Unnamed: 0,event_id,timestamp,subject_id,session_index,plane,setup,task,block,trial_index,stim_type,headpose_offset_azi,headpose_offset_ele,stim_filename,stim_level,mgb_level,fluctuation,speaker_id,speaker_proc,speaker_chan,stim_azi,stim_ele,stim_dist,resp_azi,resp_ele,resp_dist,reaction_time
0,,2024-07-26 13:08:16,sub_118,3,distance,cathedral,localisation_accuracy,1,0,pinknoise,,,pinknoise_6.wav,86.07761988144105,30,-0.1841418212282506,1,RX81,2,0.0,0.0,3.0,0,0,5.463343108504399,2.8281900882720947
0,,2024-07-26 13:08:20,sub_118,3,distance,cathedral,localisation_accuracy,1,1,pinknoise,,,pinknoise_1.wav,90.4221492298298,30,0.1155377154570748,5,RX81,6,0.0,0.0,7.0,0,0,9.114369501466276,1.8438124656677248
0,,2024-07-26 13:08:22,sub_118,3,distance,cathedral,localisation_accuracy,1,2,pinknoise,,,pinknoise_1.wav,91.93902536838246,30,-0.1075246267912425,8,RX81,9,0.0,0.0,10.0,0,0,10.80058651026393,1.5937964916229248
0,,2024-07-26 13:08:26,sub_118,3,distance,cathedral,localisation_accuracy,1,3,pinknoise,,,pinknoise_9.wav,91.87508665285633,30,-0.1836287478751939,9,RX81,10,0.0,0.0,11.0,0,0,9.378299120234605,2.5156736373901367
0,,2024-07-26 13:08:29,sub_118,3,distance,cathedral,localisation_accuracy,1,4,pinknoise,,,pinknoise_0.wav,91.24670857359432,30,-0.4838361744973747,6,RX81,7,0.0,0.0,8.0,0,0,6.181818181818182,1.9688239097595217
0,,2024-07-26 13:08:34,sub_118,3,distance,cathedral,localisation_accuracy,1,5,pinknoise,,,pinknoise_3.wav,93.18717289362137,30,0.2642469147241222,10,RX81,11,0.0,0.0,12.0,0,0,11.636363636363637,3.1716079711914062
0,,2024-07-26 13:08:38,sub_118,3,distance,cathedral,localisation_accuracy,1,6,pinknoise,,,pinknoise_2.wav,87.70844397847866,30,0.2004000901465396,2,RX81,3,0.0,0.0,4.0,0,0,5.0527859237536665,3.21883773803711
0,,2024-07-26 13:08:42,sub_118,3,distance,cathedral,localisation_accuracy,1,7,pinknoise,,,pinknoise_7.wav,89.43145582374032,30,0.1576731786818189,4,RX81,5,0.0,0.0,6.0,0,0,8.454545454545455,2.468824863433838
0,,2024-07-26 13:08:46,sub_118,3,distance,cathedral,localisation_accuracy,1,8,pinknoise,,,pinknoise_7.wav,89.05457419168985,30,-0.1343603035078383,3,RX81,4,0.0,0.0,5.0,0,0,7.1495601173020535,2.843837261199951
0,,2024-07-26 13:08:49,sub_118,3,distance,cathedral,localisation_accuracy,1,9,pinknoise,,,pinknoise_9.wav,92.06165951693144,30,0.450202569014505,7,RX81,8,0.0,0.0,9.0,0,0,11.592375366568916,2.3125619888305664
0,,2024-07-26 13:08:54,sub_118,3,distance,cathedral,localisation_accuracy,1,10,pinknoise,,,pinknoise_0.wav,84.45835404107909,30,0.0857066828629177,0,RX81,1,0.0,0.0,2.0,0,0,3.3079178885630505,3.5938503742218018
0,,2024-07-26 13:08:59,sub_118,3,distance,cathedral,localisation_accuracy,1,11,pinknoise,,,pinknoise_1.wav,91.84278300760258,30,0.364026881584894,6,RX81,7,0.0,0.0,8.0,0,0,8.87976539589443,3.5782463550567627
0,,2024-07-26 13:09:02,sub_118,3,distance,cathedral,localisation_accuracy,1,12,pinknoise,,,pinknoise_9.wav,90.09662888179945,30,-0.3480519104239012,5,RX81,6,0.0,0.0,7.0,0,0,6.093841642228739,1.8281636238098145
0,,2024-07-26 13:09:06,sub_118,3,distance,cathedral,localisation_accuracy,1,13,pinknoise,,,pinknoise_0.wav,92.14270544264872,30,0.1926486243481867,9,RX81,10,0.0,0.0,11.0,0,0,11.12316715542522,3.156351327896118
0,,2024-07-26 13:09:10,sub_118,3,distance,cathedral,localisation_accuracy,1,14,pinknoise,,,pinknoise_7.wav,91.65049757104836,30,-0.1209162849596773,7,RX81,8,0.0,0.0,9.0,0,0,8.483870967741936,2.5625550746917725
0,,2024-07-26 13:09:13,sub_118,3,distance,cathedral,localisation_accuracy,1,15,pinknoise,,,pinknoise_0.wav,89.45440306046567,30,0.1884911046204529,4,RX81,5,0.0,0.0,6.0,0,0,5.8885630498533725,1.9375441074371336
0,,2024-07-26 13:09:17,sub_118,3,distance,cathedral,localisation_accuracy,1,16,pinknoise,,,pinknoise_5.wav,84.48765369674234,30,0.1294177401438191,0,RX81,1,0.0,0.0,2.0,0,0,2.970674486803519,3.2188549041748047
0,,2024-07-26 13:09:21,sub_118,3,distance,cathedral,localisation_accuracy,1,17,pinknoise,,,pinknoise_8.wav,93.2430358526774,30,0.3435773679668852,10,RX81,11,0.0,0.0,12.0,0,0,8.850439882697948,2.4687976837158203
0,,2024-07-26 13:09:24,sub_118,3,distance,cathedral,localisation_accuracy,1,18,pinknoise,,,pinknoise_2.wav,87.64466392227112,30,0.1075813518647864,2,RX81,3,0.0,0.0,4.0,0,0,4.099706744868035,1.7031362056732178
0,,2024-07-26 13:09:27,sub_118,3,distance,cathedral,localisation_accuracy,1,19,pinknoise,,,pinknoise_2.wav,86.15539692247361,30,-0.0708233062745462,1,RX81,2,0.0,0.0,3.0,0,0,2.868035190615836,2.7032063007354736
0,,2024-07-26 13:09:31,sub_118,3,distance,cathedral,localisation_accuracy,1,20,pinknoise,,,pinknoise_9.wav,89.22178868017826,30,0.103693204873411,3,RX81,4,0.0,0.0,5.0,0,0,8.234604105571847,1.8906476497650144
0,,2024-07-26 13:09:35,sub_118,3,distance,cathedral,localisation_accuracy,1,21,pinknoise,,,pinknoise_4.wav,92.2736417723528,30,0.3671693795095055,8,RX81,9,0.0,0.0,10.0,0,0,11.313782991202348,3.3125879764556885
0,,2024-07-26 13:09:39,sub_118,3,distance,cathedral,localisation_accuracy,1,22,pinknoise,,,pinknoise_1.wav,87.76096687834806,30,0.2770511663853888,2,RX81,3,0.0,0.0,4.0,0,0,4.87683284457478,2.343794822692871
0,,2024-07-26 13:09:42,sub_118,3,distance,cathedral,localisation_accuracy,1,23,pinknoise,,,pinknoise_1.wav,84.33481310876857,30,-0.0979030768553289,0,RX81,1,0.0,0.0,2.0,0,0,2.9266862170087977,2.421942949295044
0,,2024-07-26 13:09:45,sub_118,3,distance,cathedral,localisation_accuracy,1,24,pinknoise,,,pinknoise_8.wav,88.99526678362548,30,-0.2183397854957357,3,RX81,4,0.0,0.0,5.0,0,0,6.841642228739003,1.875041961669922
0,,2024-07-26 13:09:48,sub_118,3,distance,cathedral,localisation_accuracy,1,25,pinknoise,,,pinknoise_2.wav,86.02846281491898,30,-0.2555406215015405,1,RX81,2,0.0,0.0,3.0,0,0,4.407624633431086,1.8281424045562744
0,,2024-07-26 13:09:51,sub_118,3,distance,cathedral,localisation_accuracy,1,26,pinknoise,,,pinknoise_3.wav,91.56412775035892,30,-0.0353251929284491,6,RX81,7,0.0,0.0,8.0,0,0,10.228739002932551,1.82814359664917
0,,2024-07-26 13:09:54,sub_118,3,distance,cathedral,localisation_accuracy,1,27,pinknoise,,,pinknoise_2.wav,92.24888577743118,30,0.3432527489351402,9,RX81,10,0.0,0.0,11.0,0,0,11.70967741935484,1.718832015991211
0,,2024-07-26 13:09:57,sub_118,3,distance,cathedral,localisation_accuracy,1,28,pinknoise,,,pinknoise_7.wav,93.19335801723057,30,0.2730201291566808,10,RX81,11,0.0,0.0,12.0,0,0,10.712609970674489,2.093801975250244
0,,2024-07-26 13:10:00,sub_118,3,distance,cathedral,localisation_accuracy,1,29,pinknoise,,,pinknoise_1.wav,92.07910391372678,30,0.4746734135802471,7,RX81,8,0.0,0.0,9.0,0,0,8.498533724340177,1.5625050067901611
0,,2024-07-26 13:10:03,sub_118,3,distance,cathedral,localisation_accuracy,1,30,pinknoise,,,pinknoise_0.wav,89.21720849812831,30,-0.1285452091473505,4,RX81,5,0.0,0.0,6.0,0,0,4.5982404692082115,1.8594157695770264
0,,2024-07-26 13:10:07,sub_118,3,distance,cathedral,localisation_accuracy,1,31,pinknoise,,,pinknoise_7.wav,90.5718624085962,30,0.3311781457593136,5,RX81,6,0.0,0.0,7.0,0,0,5.756598240469208,2.2500598430633545
0,,2024-07-26 13:10:09,sub_118,3,distance,cathedral,localisation_accuracy,1,32,pinknoise,,,pinknoise_0.wav,91.86527939297972,30,-0.2111402765611727,8,RX81,9,0.0,0.0,10.0,0,0,9.407624633431086,1.6875300407409668
0,,2024-07-26 13:10:12,sub_118,3,distance,cathedral,localisation_accuracy,1,33,pinknoise,,,pinknoise_9.wav,89.36827013011214,30,0.0729778599112084,4,RX81,5,0.0,0.0,6.0,0,0,5.507331378299121,1.9531502723693848
0,,2024-07-26 13:10:15,sub_118,3,distance,cathedral,localisation_accuracy,1,34,pinknoise,,,pinknoise_6.wav,86.47881284514307,30,0.4050201354821229,1,RX81,2,0.0,0.0,3.0,0,0,2.516129032258065,1.4687726497650146
0,,2024-07-26 13:10:18,sub_118,3,distance,cathedral,localisation_accuracy,1,35,pinknoise,,,pinknoise_1.wav,84.65538887742295,30,0.3808808253469058,0,RX81,1,0.0,0.0,2.0,0,0,3.131964809384164,1.859415054321289
0,,2024-07-26 13:10:22,sub_118,3,distance,cathedral,localisation_accuracy,1,36,pinknoise,,,pinknoise_3.wav,91.76948600224888,30,0.2584689982035911,6,RX81,7,0.0,0.0,8.0,0,0,8.337243401759531,2.187534809112549
0,,2024-07-26 13:10:25,sub_118,3,distance,cathedral,localisation_accuracy,1,37,pinknoise,,,pinknoise_1.wav,90.43332667380396,30,0.1315841329099483,5,RX81,6,0.0,0.0,7.0,0,0,6.914956011730206,2.453171730041504
0,,2024-07-26 13:10:28,sub_118,3,distance,cathedral,localisation_accuracy,1,38,pinknoise,,,pinknoise_6.wav,89.21419562783524,30,0.0928424080417459,3,RX81,4,0.0,0.0,5.0,0,0,3.7184750733137832,2.109485387802124
0,,2024-07-26 13:10:31,sub_118,3,distance,cathedral,localisation_accuracy,1,39,pinknoise,,,pinknoise_3.wav,91.69861794043211,30,-0.429178047768569,9,RX81,10,0.0,0.0,11.0,0,0,10.287390029325516,1.89066481590271
0,,2024-07-26 13:10:34,sub_118,3,distance,cathedral,localisation_accuracy,1,40,pinknoise,,,pinknoise_0.wav,87.78985729072647,30,0.3192962749954392,2,RX81,3,0.0,0.0,4.0,0,0,5.844574780058651,1.7812654972076416
0,,2024-07-26 13:10:38,sub_118,3,distance,cathedral,localisation_accuracy,1,41,pinknoise,,,pinknoise_4.wav,91.45860513904654,30,-0.3837832762273053,7,RX81,8,0.0,0.0,9.0,0,0,9.671554252199414,1.9219181537628176
0,,2024-07-26 13:10:40,sub_118,3,distance,cathedral,localisation_accuracy,1,42,pinknoise,,,pinknoise_6.wav,92.9456017755382,30,-0.076425172009476,10,RX81,11,0.0,0.0,12.0,0,0,11.70967741935484,1.7187838554382324
0,,2024-07-26 13:10:43,sub_118,3,distance,cathedral,localisation_accuracy,1,43,pinknoise,,,pinknoise_5.wav,92.3585635866746,30,0.4888358931175008,8,RX81,9,0.0,0.0,10.0,0,0,10.609970674486805,1.7500169277191162
0,,2024-07-26 13:10:47,sub_118,3,distance,cathedral,localisation_accuracy,1,44,pinknoise,,,pinknoise_4.wav,84.55492722568096,30,0.2300210534004675,0,RX81,1,0.0,0.0,2.0,0,0,3.322580645161291,2.203181505203247
0,,2024-07-26 13:10:50,sub_118,3,distance,cathedral,localisation_accuracy,1,45,pinknoise,,,pinknoise_1.wav,89.06606528551328,30,-0.3288255847671446,4,RX81,5,0.0,0.0,6.0,0,0,6.621700879765397,2.5625522136688232
0,,2024-07-26 13:10:53,sub_118,3,distance,cathedral,localisation_accuracy,1,46,pinknoise,,,pinknoise_1.wav,90.5110698663372,30,0.2434296050744375,5,RX81,6,0.0,0.0,7.0,0,0,8.263929618768328,1.6562817096710205
0,,2024-07-26 13:10:56,sub_118,3,distance,cathedral,localisation_accuracy,1,47,pinknoise,,,pinknoise_5.wav,86.24148666333868,30,0.0551087839991729,1,RX81,2,0.0,0.0,3.0,0,0,3.8504398826979473,1.9062716960906985
0,,2024-07-26 13:11:01,sub_118,3,distance,cathedral,localisation_accuracy,1,48,pinknoise,,,pinknoise_7.wav,91.747179661604,30,-0.376326869300152,8,RX81,9,0.0,0.0,10.0,0,0,9.24633431085044,3.375113010406494
0,,2024-07-26 13:11:04,sub_118,3,distance,cathedral,localisation_accuracy,1,49,pinknoise,,,pinknoise_3.wav,91.76413500856742,30,-0.338250525139103,9,RX81,10,0.0,0.0,11.0,0,0,10.859237536656892,1.812516927719116
0,,2024-07-26 13:11:10,sub_118,3,distance,cathedral,localisation_accuracy,1,50,pinknoise,,,pinknoise_4.wav,92.7973127209622,30,-0.2836453408363965,10,RX81,11,0.0,0.0,12.0,0,0,12.002932551319647,4.390784502029419
0,,2024-07-26 13:11:14,sub_118,3,distance,cathedral,localisation_accuracy,1,51,pinknoise,,,pinknoise_6.wav,91.92041578700795,30,0.4762304717708796,6,RX81,7,0.0,0.0,8.0,0,0,8.469208211143696,2.9219658374786377
0,,2024-07-26 13:11:17,sub_118,3,distance,cathedral,localisation_accuracy,1,52,pinknoise,,,pinknoise_2.wav,89.11620812958023,30,-0.0468355132850183,3,RX81,4,0.0,0.0,5.0,0,0,3.93841642228739,1.8281645774841309
0,,2024-07-26 13:11:20,sub_118,3,distance,cathedral,localisation_accuracy,1,53,pinknoise,,,pinknoise_0.wav,87.40192516597406,30,-0.2430735264304978,2,RX81,3,0.0,0.0,4.0,0,0,5.023460410557185,2.281310558319092
0,,2024-07-26 13:11:23,sub_118,3,distance,cathedral,localisation_accuracy,1,54,pinknoise,,,pinknoise_1.wav,91.86831963655534,30,0.180299320724427,7,RX81,8,0.0,0.0,9.0,0,0,9.774193548387098,1.8281645774841309
0,,2024-07-26 13:12:20,sub_118,3,distance,cathedral,localisation_accuracy,2,0,pinknoise,,,pinknoise_4.wav,91.79300012453696,30,-0.3123466273090646,8,RX81,9,0.0,0.0,10.0,0,0,9.041055718475072,3.7658190727233887
0,,2024-07-26 13:12:23,sub_118,3,distance,cathedral,localisation_accuracy,2,1,pinknoise,,,pinknoise_4.wav,87.37599107498716,30,-0.2802950075473349,2,RX81,3,0.0,0.0,4.0,0,0,5.771260997067449,1.7812871932983398
0,,2024-07-26 13:12:27,sub_118,3,distance,cathedral,localisation_accuracy,2,2,pinknoise,,,pinknoise_0.wav,91.87183460098451,30,-0.188172240358911,9,RX81,10,0.0,0.0,11.0,0,0,11.533724340175954,2.5000710487365723
0,,2024-07-26 13:12:30,sub_118,3,distance,cathedral,localisation_accuracy,2,3,pinknoise,,,pinknoise_0.wav,89.53477235312931,30,0.2966748312709212,4,RX81,5,0.0,0.0,6.0,0,0,9.656891495601174,2.2970011234283447
0,,2024-07-26 13:12:34,sub_118,3,distance,cathedral,localisation_accuracy,2,4,pinknoise,,,pinknoise_1.wav,90.0430225536401,30,-0.4237080091964927,5,RX81,6,0.0,0.0,7.0,0,0,10.815249266862171,2.8594439029693604
0,,2024-07-26 13:12:38,sub_118,3,distance,cathedral,localisation_accuracy,2,5,pinknoise,,,pinknoise_6.wav,84.16497431332755,30,-0.3484941871867664,0,RX81,1,0.0,0.0,2.0,0,0,3.3812316715542527,2.4688196182250977
0,,2024-07-26 13:12:42,sub_118,3,distance,cathedral,localisation_accuracy,2,6,pinknoise,,,pinknoise_6.wav,89.31675969183266,30,0.2397418126945594,3,RX81,4,0.0,0.0,5.0,0,0,5.375366568914957,3.14072585105896
0,,2024-07-26 13:12:45,sub_118,3,distance,cathedral,localisation_accuracy,2,7,pinknoise,,,pinknoise_7.wav,86.026956330052,30,-0.2577260321432466,1,RX81,2,0.0,0.0,3.0,0,0,4.290322580645162,2.0625319480895996
0,,2024-07-26 13:12:51,sub_118,3,distance,cathedral,localisation_accuracy,2,8,pinknoise,,,pinknoise_8.wav,91.83237170864736,30,0.1303802655993308,7,RX81,8,0.0,0.0,9.0,0,0,9.90615835777126,3.9376378059387207
0,,2024-07-26 13:12:54,sub_118,3,distance,cathedral,localisation_accuracy,2,9,pinknoise,,,pinknoise_4.wav,91.52008038101172,30,-0.0979687267886747,6,RX81,7,0.0,0.0,8.0,0,0,8.395894428152493,2.328187942504883
0,,2024-07-26 13:12:57,sub_118,3,distance,cathedral,localisation_accuracy,2,10,pinknoise,,,pinknoise_1.wav,92.90587198490596,30,-0.1320851561107137,10,RX81,11,0.0,0.0,12.0,0,0,10.932551319648097,1.6250085830688477
0,,2024-07-26 13:13:01,sub_118,3,distance,cathedral,localisation_accuracy,2,11,pinknoise,,,pinknoise_0.wav,87.33546028380472,30,-0.3383729459605765,2,RX81,3,0.0,0.0,4.0,0,0,4.568914956011731,2.843833923339844
0,,2024-07-26 13:13:05,sub_118,3,distance,cathedral,localisation_accuracy,2,12,pinknoise,,,pinknoise_3.wav,92.01773730447744,30,0.0163535628650979,9,RX81,10,0.0,0.0,11.0,0,0,10.771260997067449,2.6407015323638916
0,,2024-07-26 13:13:08,sub_118,3,distance,cathedral,localisation_accuracy,2,13,pinknoise,,,pinknoise_2.wav,91.69810742952691,30,-0.4446947346346404,8,RX81,9,0.0,0.0,10.0,0,0,11.768328445747802,1.687511682510376
0,,2024-07-26 13:13:11,sub_118,3,distance,cathedral,localisation_accuracy,2,14,pinknoise,,,pinknoise_3.wav,88.80004031319288,30,-0.4931166227425939,3,RX81,4,0.0,0.0,5.0,0,0,6.343108504398828,1.9531700611114504
0,,2024-07-26 13:13:14,sub_118,3,distance,cathedral,localisation_accuracy,2,15,pinknoise,,,pinknoise_3.wav,91.59313013455704,30,-0.1997455650511165,7,RX81,8,0.0,0.0,9.0,0,0,9.466275659824047,1.890666961669922
0,,2024-07-26 13:13:17,sub_118,3,distance,cathedral,localisation_accuracy,2,16,pinknoise,,,pinknoise_8.wav,91.70454866925344,30,0.1652568165909136,6,RX81,7,0.0,0.0,8.0,0,0,6.533724340175954,2.093801259994507
0,,2024-07-26 13:13:20,sub_118,3,distance,cathedral,localisation_accuracy,2,17,pinknoise,,,pinknoise_6.wav,84.21718614038406,30,-0.2716818752003447,0,RX81,1,0.0,0.0,2.0,0,0,3.0733137829912023,1.34376859664917
0,,2024-07-26 13:13:24,sub_118,3,distance,cathedral,localisation_accuracy,2,18,pinknoise,,,pinknoise_3.wav,92.94573988220174,30,-0.0762315088275701,10,RX81,11,0.0,0.0,12.0,0,0,10.4633431085044,3.2813570499420166
0,,2024-07-26 13:13:28,sub_118,3,distance,cathedral,localisation_accuracy,2,19,pinknoise,,,pinknoise_8.wav,89.14000227152215,30,-0.2310197734818555,4,RX81,5,0.0,0.0,6.0,0,0,6.680351906158359,2.5156962871551514
0,,2024-07-26 13:13:33,sub_118,3,distance,cathedral,localisation_accuracy,2,20,pinknoise,,,pinknoise_6.wav,90.56218281593286,30,0.3171895061732636,5,RX81,6,0.0,0.0,7.0,0,0,7.692082111436951,4.3282787799835205
0,,2024-07-26 13:13:36,sub_118,3,distance,cathedral,localisation_accuracy,2,21,pinknoise,,,pinknoise_9.wav,86.2410427468428,30,0.054458065667479,1,RX81,2,0.0,0.0,3.0,0,0,4.334310850439883,2.031299352645874
0,,2024-07-26 13:13:40,sub_118,3,distance,cathedral,localisation_accuracy,2,22,pinknoise,,,pinknoise_0.wav,87.74323257432502,30,0.251148278176984,2,RX81,3,0.0,0.0,4.0,0,0,5.038123167155426,2.2187867164611816
0,,2024-07-26 13:13:43,sub_118,3,distance,cathedral,localisation_accuracy,2,23,pinknoise,,,pinknoise_7.wav,91.4318144801188,30,-0.2231053375693671,6,RX81,7,0.0,0.0,8.0,0,0,9.55425219941349,1.6875112056732178
0,,2024-07-26 13:13:47,sub_118,3,distance,cathedral,localisation_accuracy,2,24,pinknoise,,,pinknoise_9.wav,88.89351159397165,30,-0.3618756869130864,3,RX81,4,0.0,0.0,5.0,0,0,5.507331378299121,3.171978235244751
0,,2024-07-26 13:13:52,sub_118,3,distance,cathedral,localisation_accuracy,2,25,pinknoise,,,pinknoise_7.wav,93.3395220005854,30,0.4810864867354465,10,RX81,11,0.0,0.0,12.0,0,0,10.551319648093845,3.5000972747802734
0,,2024-07-26 13:13:56,sub_118,3,distance,cathedral,localisation_accuracy,2,26,pinknoise,,,pinknoise_8.wav,92.07371663784323,30,0.4671140928174893,7,RX81,8,0.0,0.0,9.0,0,0,9.334310850439884,3.46886682510376
0,,2024-07-26 13:13:59,sub_118,3,distance,cathedral,localisation_accuracy,2,27,pinknoise,,,pinknoise_7.wav,91.91998498059716,30,-0.1343114950663237,8,RX81,9,0.0,0.0,10.0,0,0,11.211143695014664,1.7031598091125488
0,,2024-07-26 13:14:02,sub_118,3,distance,cathedral,localisation_accuracy,2,28,pinknoise,,,pinknoise_6.wav,89.24472548611215,30,-0.0919371567370267,4,RX81,5,0.0,0.0,6.0,0,0,7.67741935483871,1.9062931537628176
0,,2024-07-26 13:14:06,sub_118,3,distance,cathedral,localisation_accuracy,2,29,pinknoise,,,pinknoise_1.wav,85.85979840204982,30,-0.4992221511050972,1,RX81,2,0.0,0.0,3.0,0,0,4.026392961876833,2.4219820499420166
0,,2024-07-26 13:14:09,sub_118,3,distance,cathedral,localisation_accuracy,2,30,pinknoise,,,pinknoise_3.wav,90.00768989500247,30,-0.4734683945433416,5,RX81,6,0.0,0.0,7.0,0,0,6.357771260997067,2.218787908554077
0,,2024-07-26 13:14:12,sub_118,3,distance,cathedral,localisation_accuracy,2,31,pinknoise,,,pinknoise_0.wav,91.7595536041132,30,-0.3446178855368554,9,RX81,10,0.0,0.0,11.0,0,0,9.55425219941349,1.8750879764556885
0,,2024-07-26 13:14:16,sub_118,3,distance,cathedral,localisation_accuracy,2,32,pinknoise,,,pinknoise_1.wav,84.43272820248582,30,0.0475284449215833,0,RX81,1,0.0,0.0,2.0,0,0,3.0879765395894427,2.8281900882720947
0,,2024-07-26 13:14:20,sub_118,3,distance,cathedral,localisation_accuracy,2,33,pinknoise,,,pinknoise_7.wav,92.15230659080866,30,0.2062359110851233,9,RX81,10,0.0,0.0,11.0,0,0,10.932551319648097,2.3750455379486084
0,,2024-07-26 13:14:23,sub_118,3,distance,cathedral,localisation_accuracy,2,34,pinknoise,,,pinknoise_2.wav,88.80046780899175,30,-0.4925177102947455,3,RX81,4,0.0,0.0,5.0,0,0,4.803519061583578,2.5313034057617188
0,,2024-07-26 13:14:26,sub_118,3,distance,cathedral,localisation_accuracy,2,35,pinknoise,,,pinknoise_3.wav,89.59157545326508,30,0.3733702642353507,4,RX81,5,0.0,0.0,6.0,0,0,7.516129032258066,1.6875114440917969
0,,2024-07-26 13:14:31,sub_118,3,distance,cathedral,localisation_accuracy,2,36,pinknoise,,,pinknoise_8.wav,90.2289662360374,30,-0.1604508895111809,5,RX81,6,0.0,0.0,7.0,0,0,8.454545454545455,3.3126535415649414
0,,2024-07-26 13:14:34,sub_118,3,distance,cathedral,localisation_accuracy,2,37,pinknoise,,,pinknoise_0.wav,91.8888286971547,30,-0.1780917814353091,8,RX81,9,0.0,0.0,10.0,0,0,10.78592375366569,2.031280279159546
0,,2024-07-26 13:14:37,sub_118,3,distance,cathedral,localisation_accuracy,2,38,pinknoise,,,pinknoise_4.wav,91.60274496194872,30,-0.1865482380068156,7,RX81,8,0.0,0.0,9.0,0,0,11.958944281524928,2.078155040740967
0,,2024-07-26 13:14:40,sub_118,3,distance,cathedral,localisation_accuracy,2,39,pinknoise,,,pinknoise_1.wav,93.19172682480163,30,0.2707061369238406,10,RX81,11,0.0,0.0,12.0,0,0,10.551319648093845,1.5000033378601074
0,,2024-07-26 13:14:43,sub_118,3,distance,cathedral,localisation_accuracy,2,40,pinknoise,,,pinknoise_0.wav,91.52557470058396,30,-0.090161939294096,6,RX81,7,0.0,0.0,8.0,0,0,10.78592375366569,2.3750429153442383
0,,2024-07-26 13:14:48,sub_118,3,distance,cathedral,localisation_accuracy,2,41,pinknoise,,,pinknoise_7.wav,84.26801596966638,30,-0.1967115650643618,0,RX81,1,0.0,0.0,2.0,0,0,4.026392961876833,3.2032546997070312
0,,2024-07-26 13:14:51,sub_118,3,distance,cathedral,localisation_accuracy,2,42,pinknoise,,,pinknoise_9.wav,87.5625300448491,30,-0.0115274965792788,2,RX81,3,0.0,0.0,4.0,0,0,4.906158357771261,2.093801498413086
0,,2024-07-26 13:14:55,sub_118,3,distance,cathedral,localisation_accuracy,2,43,pinknoise,,,pinknoise_9.wav,86.06732091497244,30,-0.1991148632250096,1,RX81,2,0.0,0.0,3.0,0,0,4.627565982404692,2.781333923339844
0,,2024-07-26 13:14:58,sub_118,3,distance,cathedral,localisation_accuracy,2,44,pinknoise,,,pinknoise_9.wav,88.90266386453283,30,-0.3489938537667,3,RX81,4,0.0,0.0,5.0,0,0,5.8885630498533725,1.4062511920928955
0,,2024-07-26 13:15:01,sub_118,3,distance,cathedral,localisation_accuracy,2,45,pinknoise,,,pinknoise_5.wav,91.52130738057082,30,-0.0962254802122813,6,RX81,7,0.0,0.0,8.0,0,0,8.263929618768328,2.0625486373901367
0,,2024-07-26 13:15:05,sub_118,3,distance,cathedral,localisation_accuracy,2,46,pinknoise,,,pinknoise_6.wav,92.75942855138526,30,-0.3363544172117033,10,RX81,11,0.0,0.0,12.0,0,0,11.152492668621704,2.8438844680786133
0,,2024-07-26 13:15:08,sub_118,3,distance,cathedral,localisation_accuracy,2,47,pinknoise,,,pinknoise_0.wav,87.37141463542473,30,-0.2868584332643914,2,RX81,3,0.0,0.0,4.0,0,0,4.86217008797654,2.390671968460083
0,,2024-07-26 13:15:12,sub_118,3,distance,cathedral,localisation_accuracy,2,48,pinknoise,,,pinknoise_7.wav,92.29941003961588,30,0.4151789281407614,9,RX81,10,0.0,0.0,11.0,0,0,10.961876832844576,2.0156514644622803
0,,2024-07-26 13:15:14,sub_118,3,distance,cathedral,localisation_accuracy,2,49,pinknoise,,,pinknoise_4.wav,92.22807055077314,30,0.3020803097466561,8,RX81,9,0.0,0.0,10.0,0,0,11.768328445747802,1.4687724113464355
0,,2024-07-26 13:15:21,sub_118,3,distance,cathedral,localisation_accuracy,2,50,pinknoise,,,pinknoise_7.wav,84.67314318462365,30,0.407620025879843,0,RX81,1,0.0,0.0,2.0,0,0,2.868035190615836,5.46896505355835
0,,2024-07-26 13:15:25,sub_118,3,distance,cathedral,localisation_accuracy,2,51,pinknoise,,,pinknoise_9.wav,90.51683554330828,30,0.2517409307437093,5,RX81,6,0.0,0.0,7.0,0,0,6.856304985337244,2.5781779289245605
0,,2024-07-26 13:15:27,sub_118,3,distance,cathedral,localisation_accuracy,2,52,pinknoise,,,pinknoise_4.wav,91.70412564122356,30,-0.0470367452933531,7,RX81,8,0.0,0.0,9.0,0,0,8.762463343108505,1.2031352519989014
0,,2024-07-26 13:15:30,sub_118,3,distance,cathedral,localisation_accuracy,2,53,pinknoise,,,pinknoise_4.wav,86.21380116677511,30,0.0145527390490524,1,RX81,2,0.0,0.0,3.0,0,0,4.392961876832845,2.2187864780426025
0,,2024-07-26 13:15:34,sub_118,3,distance,cathedral,localisation_accuracy,2,54,pinknoise,,,pinknoise_2.wav,88.9852597095086,30,-0.435349882189723,4,RX81,5,0.0,0.0,6.0,0,0,7.281524926686217,2.68757963180542
0,,2024-07-26 13:16:57,sub_118,3,distance,cathedral,localisation_accuracy,3,0,babble,,,babble-reversed_n13_p256-four-p229-eight-p307-five-p248-three-p245-one-p284-two.wav,85.9827805891215,30,-0.3217390630697322,1,RX81,2,0.0,0.0,3.0,0,0,3.9530791788856305,2.546954870223999
0,,2024-07-26 13:17:00,sub_118,3,distance,cathedral,localisation_accuracy,3,1,babble,,,babble-reversed_n13_p229-nine-p318-one-p307-two-p248-eight-p245-five-p284-four.wav,87.64691401146737,30,0.1108510336885522,2,RX81,3,0.0,0.0,4.0,0,0,6.196480938416423,1.531294822692871
0,,2024-07-26 13:17:03,sub_118,3,distance,cathedral,localisation_accuracy,3,2,babble,,,babble-reversed_n13_p318-five-p229-three-p256-four-p268-eight-p248-one-p245-nine.wav,91.70055520193822,30,0.1595339051550889,6,RX81,7,0.0,0.0,8.0,0,0,9.979472140762464,1.6875102519989014
0,,2024-07-26 13:17:05,sub_118,3,distance,cathedral,localisation_accuracy,3,3,babble,,,babble-reversed_n13_p318-one-p307-two-p256-eight-p284-three-p248-five-p245-four.wav,90.11296528108429,30,-0.3249574442758521,5,RX81,6,0.0,0.0,7.0,0,0,8.87976539589443,1.6250083446502686
0,,2024-07-26 13:17:08,sub_118,3,distance,cathedral,localisation_accuracy,3,4,babble,,,babble-reversed_n13_p256-four-p307-eight-p318-two-p248-three-p284-nine-p268-one.wav,91.68514227155823,30,-0.4627315409553046,8,RX81,9,0.0,0.0,10.0,0,0,11.020527859237538,1.218739032745361
0,,2024-07-26 13:17:11,sub_118,3,distance,cathedral,localisation_accuracy,3,5,babble,,,babble-reversed_n13_p318-five-p256-nine-p307-two-p245-eight-p248-one-p284-four.wav,88.86193081926481,30,-0.4062827118952294,3,RX81,4,0.0,0.0,5.0,0,0,6.299120234604105,1.8281428813934328
0,,2024-07-26 13:17:13,sub_118,3,distance,cathedral,localisation_accuracy,3,6,babble,,,babble-reversed_n13_p229-nine-p256-four-p318-three-p268-eight-p248-two-p284-five.wav,91.55734151562528,30,-0.2488177568152844,7,RX81,8,0.0,0.0,9.0,0,0,9.348973607038124,1.5781314373016355
0,,2024-07-26 13:17:17,sub_118,3,distance,cathedral,localisation_accuracy,3,7,babble,,,babble-reversed_n13_p318-five-p256-nine-p307-two-p245-eight-p248-one-p284-four.wav,89.37533247588456,30,0.0824325445078183,4,RX81,5,0.0,0.0,6.0,0,0,8.366568914956012,2.1250340938568115
0,,2024-07-26 13:17:19,sub_118,3,distance,cathedral,localisation_accuracy,3,8,babble,,,babble-reversed_n13_p318-one-p307-two-p256-eight-p284-three-p248-five-p245-four.wav,91.7936741310686,30,-0.2971634124928297,9,RX81,10,0.0,0.0,11.0,0,0,10.140762463343108,1.6093833446502686
0,,2024-07-26 13:17:23,sub_118,3,distance,cathedral,localisation_accuracy,3,9,babble,,,babble-reversed_n13_p318-nine-p307-eight-p229-two-p284-one-p248-three-p245-five.wav,84.47565239450662,30,0.1115057738070841,0,RX81,1,0.0,0.0,2.0,0,0,5.595307917888563,2.609452724456787
0,,2024-07-26 13:17:27,sub_118,3,distance,cathedral,localisation_accuracy,3,10,babble,,,babble-reversed_n13_p256-four-p307-eight-p318-two-p248-three-p284-nine-p268-one.wav,92.95409993677804,30,-0.0645060992665631,10,RX81,11,0.0,0.0,12.0,0,0,9.87683284457478,3.1719563007354736
0,,2024-07-26 13:17:31,sub_118,3,distance,cathedral,localisation_accuracy,3,11,babble,,,babble-reversed_n13_p229-five-p318-two-p307-eight-p268-three-p248-four-p245-one.wav,91.95258313996658,30,0.2976361356727417,7,RX81,8,0.0,0.0,9.0,0,0,8.29325513196481,2.0000252723693848
0,,2024-07-26 13:17:34,sub_118,3,distance,cathedral,localisation_accuracy,3,12,babble,,,babble-reversed_n13_p307-two-p256-four-p318-three-p284-eight-p248-five-p245-nine.wav,86.16019751908476,30,-0.0638149046242316,1,RX81,2,0.0,0.0,3.0,0,0,5.067448680351907,2.3750646114349365
0,,2024-07-26 13:17:38,sub_118,3,distance,cathedral,localisation_accuracy,3,13,babble,,,babble-reversed_n13_p256-eight-p318-five-p307-four-p245-three-p268-one-p284-nine.wav,92.09494358301252,30,0.1251480956761725,9,RX81,10,0.0,0.0,11.0,0,0,8.513196480938417,2.8281898498535156
0,,2024-07-26 13:17:41,sub_118,3,distance,cathedral,localisation_accuracy,3,14,babble,,,babble-reversed_n13_p307-five-p229-two-p318-four-p248-three-p245-nine-p268-eight.wav,91.66200165215946,30,0.1043398424308416,6,RX81,7,0.0,0.0,8.0,0,0,7.208211143695015,2.203181743621826
0,,2024-07-26 13:17:46,sub_118,3,distance,cathedral,localisation_accuracy,3,15,babble,,,babble-reversed_n13_p256-eight-p318-two-p307-five-p245-four-p268-nine-p284-one.wav,84.60899917890316,30,0.3111256977004127,0,RX81,1,0.0,0.0,2.0,0,0,3.93841642228739,3.296980619430542
0,,2024-07-26 13:17:49,sub_118,3,distance,cathedral,localisation_accuracy,3,16,babble,,,babble-reversed_n13_p229-five-p318-two-p307-eight-p268-three-p248-four-p245-one.wav,88.81231614545536,30,-0.4759136066205233,3,RX81,4,0.0,0.0,5.0,0,0,5.316715542521995,2.140678644180298
0,,2024-07-26 13:17:52,sub_118,3,distance,cathedral,localisation_accuracy,3,17,babble,,,babble-reversed_n13_p256-four-p229-eight-p307-five-p248-three-p245-one-p284-two.wav,93.05229997928244,30,0.0735689819440637,10,RX81,11,0.0,0.0,12.0,0,0,7.398826979472142,1.7812864780426023
0,,2024-07-26 13:17:55,sub_118,3,distance,cathedral,localisation_accuracy,3,18,babble,,,babble-reversed_n13_p229-one-p318-nine-p256-four-p284-eight-p268-five-p245-two.wav,92.06405534374028,30,0.0689709917084026,8,RX81,9,0.0,0.0,10.0,0,0,8.381231671554254,1.5781526565551758
0,,2024-07-26 13:17:57,sub_118,3,distance,cathedral,localisation_accuracy,3,19,babble,,,babble-reversed_n13_p256-four-p229-eight-p307-five-p248-three-p245-one-p284-two.wav,88.93914608968684,30,-0.4959690143408483,4,RX81,5,0.0,0.0,6.0,0,0,7.486803519061585,1.4062676429748535
0,,2024-07-26 13:18:00,sub_118,3,distance,cathedral,localisation_accuracy,3,20,babble,,,babble-reversed_n13_p318-five-p256-nine-p307-two-p245-eight-p248-one-p284-four.wav,87.4649696889359,30,-0.1523953835729221,2,RX81,3,0.0,0.0,4.0,0,0,6.137829912023461,1.453124761581421
0,,2024-07-26 13:18:05,sub_118,3,distance,cathedral,localisation_accuracy,3,21,babble,,,babble-reversed_n13_p256-three-p318-one-p307-two-p284-nine-p268-four-p245-eight.wav,90.36855258295012,30,0.0387126403558404,5,RX81,6,0.0,0.0,7.0,0,0,7.472140762463344,3.656418561935425
0,,2024-07-26 13:18:07,sub_118,3,distance,cathedral,localisation_accuracy,3,22,babble,,,babble-reversed_n13_p229-five-p256-three-p318-nine-p248-two-p284-four-p268-one.wav,84.16615388094156,30,-0.3467610395301972,0,RX81,1,0.0,0.0,2.0,0,0,3.5718475073313787,1.828164339065552
0,,2024-07-26 13:18:10,sub_118,3,distance,cathedral,localisation_accuracy,3,23,babble,,,babble-reversed_n13_p318-three-p229-one-p256-eight-p245-five-p248-four-p284-nine.wav,88.96753104841184,30,-0.2575325956696171,3,RX81,4,0.0,0.0,5.0,0,0,5.9178885630498534,1.5781526565551758
0,,2024-07-26 13:18:13,sub_118,3,distance,cathedral,localisation_accuracy,3,24,babble,,,babble-reversed_n13_p318-three-p229-one-p256-eight-p245-five-p248-four-p284-nine.wav,91.48071943219536,30,-0.3536079369592275,7,RX81,8,0.0,0.0,9.0,0,0,7.765395894428153,2.1563045978546143
0,,2024-07-26 13:18:16,sub_118,3,distance,cathedral,localisation_accuracy,3,25,babble,,,babble-reversed_n13_p229-three-p256-nine-p318-five-p248-one-p245-eight-p284-two.wav,91.40692423299193,30,-0.2582980635915259,6,RX81,7,0.0,0.0,8.0,0,0,9.26099706744868,1.734407901763916
0,,2024-07-26 13:18:20,sub_118,3,distance,cathedral,localisation_accuracy,3,26,babble,,,babble-reversed_n13_p256-five-p229-one-p318-three-p248-nine-p284-eight-p268-two.wav,92.83181929915187,30,-0.2355540804971865,10,RX81,11,0.0,0.0,12.0,0,0,10.712609970674489,2.1562821865081787
0,,2024-07-26 13:18:23,sub_118,3,distance,cathedral,localisation_accuracy,3,27,babble,,,babble-reversed_n13_p229-three-p307-one-p318-two-p245-eight-p268-five-p284-four.wav,90.31286913568754,30,-0.0408960712525827,5,RX81,6,0.0,0.0,7.0,0,0,7.618768328445748,2.328165292739868
0,,2024-07-26 13:18:26,sub_118,3,distance,cathedral,localisation_accuracy,3,28,babble,,,babble-reversed_n13_p318-nine-p307-eight-p229-two-p284-one-p248-three-p245-five.wav,87.53061761284516,30,-0.0576790323693825,2,RX81,3,0.0,0.0,4.0,0,0,4.319648093841643,1.9062838554382324
0,,2024-07-26 13:18:30,sub_118,3,distance,cathedral,localisation_accuracy,3,29,babble,,,babble-reversed_n13_p229-eight-p256-nine-p318-four-p245-three-p268-five-p284-two.wav,92.07807732050574,30,0.0888296596775457,8,RX81,9,0.0,0.0,10.0,0,0,11.73900293255132,2.828261375427246
0,,2024-07-26 13:18:33,sub_118,3,distance,cathedral,localisation_accuracy,3,30,babble,,,babble-reversed_n13_p307-five-p229-three-p318-nine-p245-four-p268-eight-p284-two.wav,89.07587669052285,30,-0.3158653118825657,4,RX81,5,0.0,0.0,6.0,0,0,6.900293255131965,2.0187268257141113
0,,2024-07-26 13:18:36,sub_118,3,distance,cathedral,localisation_accuracy,3,31,babble,,,babble-reversed_n13_p229-five-p318-two-p307-eight-p268-three-p248-four-p245-one.wav,91.72010765078367,30,-0.3993844257451274,9,RX81,10,0.0,0.0,11.0,0,0,8.850439882697948,1.4062950611114502
0,,2024-07-26 13:18:38,sub_118,3,distance,cathedral,localisation_accuracy,3,32,babble,,,babble-reversed_n13_p318-nine-p256-five-p307-eight-p268-three-p248-one-p245-four.wav,86.03613775047491,30,-0.2444043384868949,1,RX81,2,0.0,0.0,3.0,0,0,4.524926686217009,1.4374995231628418
0,,2024-07-26 13:18:41,sub_118,3,distance,cathedral,localisation_accuracy,3,33,babble,,,babble-reversed_n13_p318-four-p256-five-p229-three-p284-one-p245-eight-p248-nine.wav,92.14301668524335,30,0.1930889906327397,9,RX81,10,0.0,0.0,11.0,0,0,8.425219941348974,1.6875104904174805
0,,2024-07-26 13:18:45,sub_118,3,distance,cathedral,localisation_accuracy,3,34,babble,,,babble-reversed_n13_p318-nine-p307-eight-p229-two-p284-one-p248-three-p245-five.wav,84.33568903131633,30,-0.0966052102606571,0,RX81,1,0.0,0.0,2.0,0,0,5.0527859237536665,2.937591314315796
0,,2024-07-26 13:18:48,sub_118,3,distance,cathedral,localisation_accuracy,3,35,babble,,,babble-reversed_n13_p307-nine-p229-one-p256-eight-p248-four-p284-two-p268-three.wav,90.07770761113623,30,-0.3747780985228872,5,RX81,6,0.0,0.0,7.0,0,0,7.105571847507331,1.546900749206543
0,,2024-07-26 13:18:51,sub_118,3,distance,cathedral,localisation_accuracy,3,36,babble,,,babble-reversed_n13_p307-two-p229-one-p256-five-p248-nine-p284-three-p268-eight.wav,92.32303721806944,30,0.4378784754363429,8,RX81,9,0.0,0.0,10.0,0,0,9.568914956011731,2.140707492828369
0,,2024-07-26 13:18:54,sub_118,3,distance,cathedral,localisation_accuracy,3,37,babble,,,babble-reversed_n13_p229-nine-p307-five-p256-two-p248-three-p245-one-p268-eight.wav,87.38672212016563,30,-0.2648991000701914,2,RX81,3,0.0,0.0,4.0,0,0,6.064516129032258,1.8125662803649905
0,,2024-07-26 13:18:58,sub_118,3,distance,cathedral,localisation_accuracy,3,38,babble,,,babble-reversed_n13_p256-three-p318-one-p307-two-p284-nine-p268-four-p245-eight.wav,89.24455026894817,30,0.136243938838158,3,RX81,4,0.0,0.0,5.0,0,0,7.530791788856305,2.8594412803649902
0,,2024-07-26 13:19:00,sub_118,3,distance,cathedral,localisation_accuracy,3,39,babble,,,babble-reversed_n13_p229-five-p256-three-p318-nine-p248-two-p284-four-p268-one.wav,91.6690419284688,30,0.1144113043031127,6,RX81,7,0.0,0.0,8.0,0,0,8.95307917888563,1.2968683242797852
0,,2024-07-26 13:19:03,sub_118,3,distance,cathedral,localisation_accuracy,3,40,babble,,,babble-reversed_n13_p318-one-p307-two-p256-eight-p284-three-p248-five-p245-four.wav,86.5057514750668,30,0.4449947505060158,1,RX81,2,0.0,0.0,3.0,0,0,3.9237536656891496,1.5156302452087402
0,,2024-07-26 13:19:06,sub_118,3,distance,cathedral,localisation_accuracy,3,41,babble,,,babble-reversed_n13_p229-three-p307-one-p318-two-p245-eight-p268-five-p284-four.wav,89.35094347178577,30,0.0497944578942938,4,RX81,5,0.0,0.0,6.0,0,0,7.472140762463344,1.7031381130218506
0,,2024-07-26 13:19:09,sub_118,3,distance,cathedral,localisation_accuracy,3,42,babble,,,babble-reversed_n13_p307-four-p318-three-p256-eight-p284-two-p245-nine-p248-five.wav,92.76148299511765,30,-0.3334984236135287,10,RX81,11,0.0,0.0,12.0,0,0,11.020527859237538,1.9687952995300293
0,,2024-07-26 13:19:11,sub_118,3,distance,cathedral,localisation_accuracy,3,43,babble,,,babble-reversed_n13_p256-eight-p318-two-p307-five-p245-four-p268-nine-p284-one.wav,91.4944198112848,30,-0.3348981085533291,7,RX81,8,0.0,0.0,9.0,0,0,12.076246334310852,1.4531464576721191
0,,2024-07-26 13:19:14,sub_118,3,distance,cathedral,localisation_accuracy,3,44,babble,,,babble-reversed_n13_p318-nine-p256-five-p307-eight-p268-three-p248-one-p245-four.wav,91.41542364902584,30,-0.2462852798053002,6,RX81,7,0.0,0.0,8.0,0,0,8.571847507331379,1.3124942779541016
0,,2024-07-26 13:19:16,sub_118,3,distance,cathedral,localisation_accuracy,3,45,babble,,,babble-reversed_n13_p318-five-p229-three-p256-four-p268-eight-p248-one-p245-nine.wav,90.64404087542464,30,0.4356918841353001,5,RX81,6,0.0,0.0,7.0,0,0,6.8269794721407635,1.171865463256836
0,,2024-07-26 13:19:19,sub_118,3,distance,cathedral,localisation_accuracy,3,46,babble,,,babble-reversed_n13_p318-one-p307-two-p256-eight-p284-three-p248-five-p245-four.wav,89.4873132022456,30,0.4856098492825796,3,RX81,4,0.0,0.0,5.0,0,0,5.096774193548388,1.8281433582305908
0,,2024-07-26 13:19:22,sub_118,3,distance,cathedral,localisation_accuracy,3,47,babble,,,babble-reversed_n13_p307-four-p318-three-p256-eight-p284-two-p245-nine-p248-five.wav,92.73996337273609,30,-0.3634003775139173,10,RX81,11,0.0,0.0,12.0,0,0,10.4633431085044,2.187556266784668
0,,2024-07-26 13:19:26,sub_118,3,distance,cathedral,localisation_accuracy,3,48,babble,,,babble-reversed_n13_p256-five-p229-one-p318-three-p248-nine-p284-eight-p268-two.wav,86.02512685237967,30,-0.260379782483549,1,RX81,2,0.0,0.0,3.0,0,0,3.6158357771261,2.6875603199005127
0,,2024-07-26 13:19:29,sub_118,3,distance,cathedral,localisation_accuracy,3,49,babble,,,babble-reversed_n13_p318-nine-p307-eight-p229-two-p284-one-p248-three-p245-five.wav,88.99508196507117,30,-0.4224218541841491,4,RX81,5,0.0,0.0,6.0,0,0,5.580645161290323,1.9532339572906496
0,,2024-07-26 13:19:33,sub_118,3,distance,cathedral,localisation_accuracy,3,50,babble,,,babble-reversed_n13_p318-five-p256-nine-p307-two-p245-eight-p248-one-p284-four.wav,87.76456091734418,30,0.2823033552526268,2,RX81,3,0.0,0.0,4.0,0,0,6.533724340175954,2.2656636238098145
0,,2024-07-26 13:19:36,sub_118,3,distance,cathedral,localisation_accuracy,3,51,babble,,,babble-reversed_n13_p307-five-p229-three-p318-nine-p245-four-p268-eight-p284-two.wav,91.6111940286535,30,-0.1749462114066734,7,RX81,8,0.0,0.0,9.0,0,0,8.454545454545455,1.8593964576721191
0,,2024-07-26 13:19:39,sub_118,3,distance,cathedral,localisation_accuracy,3,52,babble,,,babble-reversed_n13_p318-three-p229-one-p256-eight-p245-five-p248-four-p284-nine.wav,84.20068522125055,30,-0.2959789627481056,0,RX81,1,0.0,0.0,2.0,0,0,3.6598240469208214,1.9687745571136477
0,,2024-07-26 13:19:42,sub_118,3,distance,cathedral,localisation_accuracy,3,53,babble,,,babble-reversed_n13_p256-three-p318-two-p229-nine-p248-four-p284-one-p268-eight.wav,92.03893312979014,30,0.0461822829292229,9,RX81,10,0.0,0.0,11.0,0,0,9.114369501466276,1.5781311988830566
0,,2024-07-26 13:19:44,sub_118,3,distance,cathedral,localisation_accuracy,3,54,babble,,,babble-reversed_n13_p229-two-p256-three-p318-eight-p284-five-p268-four-p245-one.wav,91.95656610181584,30,-0.0828262782333351,8,RX81,9,0.0,0.0,10.0,0,0,10.43401759530792,1.312541961669922
0,,2024-07-26 13:21:12,sub_118,3,distance,cathedral,localisation_accuracy,4,0,babble,,,babble-reversed_n13_p229-one-p318-nine-p256-four-p284-eight-p268-five-p245-two.wav,93.12442156396992,30,0.1753816662232296,10,RX81,11,0.0,0.0,12.0,0,0,9.583577712609973,2.062538146972656
0,,2024-07-26 13:21:14,sub_118,3,distance,cathedral,localisation_accuracy,4,1,babble,,,babble-reversed_n13_p318-five-p229-four-p256-eight-p284-one-p245-three-p248-two.wav,91.6305826101079,30,-0.1483052722553989,7,RX81,8,0.0,0.0,9.0,0,0,10.4633431085044,1.2500131130218506
0,,2024-07-26 13:21:17,sub_118,3,distance,cathedral,localisation_accuracy,4,2,babble,,,babble-reversed_n13_p229-two-p256-three-p318-eight-p284-five-p268-four-p245-one.wav,91.80244949676408,30,0.3058955325303094,6,RX81,7,0.0,0.0,8.0,0,0,8.395894428152493,2.0781760215759277
0,,2024-07-26 13:21:20,sub_118,3,distance,cathedral,localisation_accuracy,4,3,babble,,,babble-reversed_n13_p318-three-p307-one-p256-five-p248-nine-p245-two-p284-eight.wav,89.17255575918486,30,0.0334067511770211,3,RX81,4,0.0,0.0,5.0,0,0,5.829912023460411,1.6094110012054443
0,,2024-07-26 13:21:23,sub_118,3,distance,cathedral,localisation_accuracy,4,4,babble,,,babble-reversed_n13_p307-one-p318-five-p229-four-p268-eight-p284-two-p245-three.wav,90.38842911593676,30,0.067180639736049,5,RX81,6,0.0,0.0,7.0,0,0,8.395894428152493,1.812538146972656
0,,2024-07-26 13:21:26,sub_118,3,distance,cathedral,localisation_accuracy,4,5,babble,,,babble-reversed_n13_p229-five-p256-three-p318-nine-p248-two-p284-four-p268-one.wav,86.36709953589629,30,0.2398065481319586,1,RX81,2,0.0,0.0,3.0,0,0,3.93841642228739,2.0312986373901367
0,,2024-07-26 13:21:29,sub_118,3,distance,cathedral,localisation_accuracy,4,6,babble,,,babble-reversed_n13_p307-one-p318-five-p229-four-p268-eight-p284-two-p245-three.wav,87.30211261588201,30,-0.3860728286604928,2,RX81,3,0.0,0.0,4.0,0,0,5.2140762463343115,1.4218952655792236
0,,2024-07-26 13:21:32,sub_118,3,distance,cathedral,localisation_accuracy,4,7,babble,,,babble-reversed_n13_p307-two-p229-one-p256-five-p248-nine-p284-three-p268-eight.wav,84.08376526665575,30,-0.4675720242255521,0,RX81,1,0.0,0.0,2.0,0,0,3.234604105571848,1.8593964576721191
0,,2024-07-26 13:21:35,sub_118,3,distance,cathedral,localisation_accuracy,4,8,babble,,,babble-reversed_n13_p256-eight-p229-three-p307-nine-p245-five-p248-four-p268-two.wav,92.0249902003296,30,0.026557172448712,9,RX81,10,0.0,0.0,11.0,0,0,10.243401759530792,1.9218971729278564
0,,2024-07-26 13:21:37,sub_118,3,distance,cathedral,localisation_accuracy,4,9,babble,,,babble-reversed_n13_p256-three-p318-two-p229-nine-p248-four-p284-one-p268-eight.wav,89.63756097525547,30,0.4356020138045597,4,RX81,5,0.0,0.0,6.0,0,0,6.929618768328446,1.2656846046447754
0,,2024-07-26 13:21:40,sub_118,3,distance,cathedral,localisation_accuracy,4,10,babble,,,babble-reversed_n13_p229-two-p256-three-p318-eight-p284-five-p268-four-p245-one.wav,92.0619591299812,30,0.0660033488538835,8,RX81,9,0.0,0.0,10.0,0,0,8.997067448680353,1.859416961669922
0,,2024-07-26 13:21:42,sub_118,3,distance,cathedral,localisation_accuracy,4,11,babble,,,babble-reversed_n13_p229-one-p318-eight-p256-three-p268-two-p245-five-p248-nine.wav,92.6704315677702,30,-0.4598103747165027,10,RX81,11,0.0,0.0,12.0,0,0,10.653958944281523,1.312514066696167
0,,2024-07-26 13:21:46,sub_118,3,distance,cathedral,localisation_accuracy,4,12,babble,,,babble-reversed_n13_p307-two-p256-four-p318-three-p284-eight-p248-five-p245-nine.wav,92.01938416228636,30,0.3909805588463203,7,RX81,8,0.0,0.0,9.0,0,0,8.835777126099707,2.484423875808716
0,,2024-07-26 13:21:49,sub_118,3,distance,cathedral,localisation_accuracy,4,13,babble,,,babble-reversed_n13_p256-eight-p229-three-p307-nine-p245-five-p248-four-p268-two.wav,91.77598148092032,30,0.2678085533510588,6,RX81,7,0.0,0.0,8.0,0,0,6.768328445747802,2.203160285949707
0,,2024-07-26 13:21:52,sub_118,3,distance,cathedral,localisation_accuracy,4,14,babble,,,babble-reversed_n13_p307-nine-p229-one-p256-eight-p248-four-p284-two-p268-three.wav,87.27315806434852,30,-0.4274266595863595,2,RX81,3,0.0,0.0,4.0,0,0,5.184750733137831,1.2656164169311523
0,,2024-07-26 13:21:54,sub_118,3,distance,cathedral,localisation_accuracy,4,15,babble,,,babble-reversed_n13_p229-nine-p307-five-p256-two-p248-three-p245-one-p268-eight.wav,88.79589051924454,30,-0.4989297633852669,3,RX81,4,0.0,0.0,5.0,0,0,4.070381231671554,1.187486171722412
0,,2024-07-26 13:21:57,sub_118,3,distance,cathedral,localisation_accuracy,4,16,babble,,,babble-reversed_n13_p256-eight-p318-five-p307-four-p245-three-p268-one-p284-nine.wav,90.07550128171978,30,-0.3778929577303928,5,RX81,6,0.0,0.0,7.0,0,0,7.706744868035191,2.1094086170196533
0,,2024-07-26 13:22:01,sub_118,3,distance,cathedral,localisation_accuracy,4,17,babble,,,babble-reversed_n13_p229-one-p318-nine-p256-four-p284-eight-p268-five-p245-two.wav,84.28279664145711,30,-0.1748756857098832,0,RX81,1,0.0,0.0,2.0,0,0,2.956011730205278,2.34381365776062
0,,2024-07-26 13:22:04,sub_118,3,distance,cathedral,localisation_accuracy,4,18,babble,,,babble-reversed_n13_p256-four-p307-eight-p318-two-p248-three-p284-nine-p268-one.wav,86.31309460792687,30,0.1602604795739792,1,RX81,2,0.0,0.0,3.0,0,0,3.1759530791788864,1.781287431716919
0,,2024-07-26 13:22:07,sub_118,3,distance,cathedral,localisation_accuracy,4,19,babble,,,babble-reversed_n13_p256-eight-p318-five-p307-four-p245-three-p268-one-p284-nine.wav,92.33168141591266,30,0.4612095606751878,9,RX81,10,0.0,0.0,11.0,0,0,10.111436950146627,2.5625743865966797
0,,2024-07-26 13:22:11,sub_118,3,distance,cathedral,localisation_accuracy,4,20,babble,,,babble-reversed_n13_p229-nine-p307-five-p256-two-p248-three-p245-one-p268-eight.wav,89.28091815710783,30,-0.0437188286973605,4,RX81,5,0.0,0.0,6.0,0,0,6.269794721407624,2.1250319480895996
0,,2024-07-26 13:22:13,sub_118,3,distance,cathedral,localisation_accuracy,4,21,babble,,,babble-reversed_n13_p256-three-p318-one-p307-two-p284-nine-p268-four-p245-eight.wav,92.18262658591271,30,0.2373119284267897,8,RX81,9,0.0,0.0,10.0,0,0,9.21700879765396,1.6718857288360596
0,,2024-07-26 13:22:16,sub_118,3,distance,cathedral,localisation_accuracy,4,22,babble,,,babble-reversed_n13_p256-four-p307-eight-p318-two-p248-three-p284-nine-p268-one.wav,93.106419685929,30,0.1499365192435542,10,RX81,11,0.0,0.0,12.0,0,0,10.668621700879768,1.609438419342041
0,,2024-07-26 13:22:19,sub_118,3,distance,cathedral,localisation_accuracy,4,23,babble,,,babble-reversed_n13_p229-one-p318-eight-p256-three-p268-two-p245-five-p248-nine.wav,91.53298766240196,30,-0.2821647571179421,7,RX81,8,0.0,0.0,9.0,0,0,11.533724340175954,2.0156736373901367
0,,2024-07-26 13:22:23,sub_118,3,distance,cathedral,localisation_accuracy,4,24,babble,,,babble-reversed_n13_p307-two-p229-one-p256-five-p248-nine-p284-three-p268-eight.wav,91.82537955421172,30,-0.252999778812325,9,RX81,10,0.0,0.0,11.0,0,0,9.55425219941349,2.25005841255188
0,,2024-07-26 13:22:25,sub_118,3,distance,cathedral,localisation_accuracy,4,25,babble,,,babble-reversed_n13_p318-five-p229-four-p256-eight-p284-one-p245-three-p248-two.wav,86.34522834219698,30,0.2075663252279121,1,RX81,2,0.0,0.0,3.0,0,0,4.7595307917888565,1.5468814373016355
0,,2024-07-26 13:22:28,sub_118,3,distance,cathedral,localisation_accuracy,4,26,babble,,,babble-reversed_n13_p307-nine-p318-two-p256-one-p245-three-p268-four-p248-eight.wav,90.51456315037684,30,0.2484649633358457,5,RX81,6,0.0,0.0,7.0,0,0,7.310850439882698,1.3438079357147217
0,,2024-07-26 13:22:30,sub_118,3,distance,cathedral,localisation_accuracy,4,27,babble,,,babble-reversed_n13_p318-five-p229-three-p256-four-p268-eight-p248-one-p245-nine.wav,91.93299280314042,30,-0.1160141082281919,8,RX81,9,0.0,0.0,10.0,0,0,10.126099706744869,1.5937786102294922
0,,2024-07-26 13:22:34,sub_118,3,distance,cathedral,localisation_accuracy,4,28,babble,,,babble-reversed_n13_p318-five-p256-nine-p307-eight-p248-two-p245-four-p284-three.wav,89.4117863539854,30,0.3764855314082679,3,RX81,4,0.0,0.0,5.0,0,0,4.055718475073314,2.500070333480835
0,,2024-07-26 13:22:37,sub_118,3,distance,cathedral,localisation_accuracy,4,29,babble,,,babble-reversed_n13_p307-two-p229-one-p256-five-p248-nine-p284-three-p268-eight.wav,87.53377608497306,30,-0.053114440835136,2,RX81,3,0.0,0.0,4.0,0,0,5.9178885630498534,1.3750195503234863
0,,2024-07-26 13:22:40,sub_118,3,distance,cathedral,localisation_accuracy,4,30,babble,,,babble-reversed_n13_p229-nine-p318-one-p307-two-p248-eight-p245-five-p284-four.wav,84.61338632663939,30,0.3177156885225057,0,RX81,1,0.0,0.0,2.0,0,0,2.67741935483871,2.4219419956207275
0,,2024-07-26 13:22:43,sub_118,3,distance,cathedral,localisation_accuracy,4,31,babble,,,babble-reversed_n13_p229-nine-p318-one-p307-two-p248-eight-p245-five-p284-four.wav,89.3675971122781,30,0.0720770153180124,4,RX81,5,0.0,0.0,6.0,0,0,4.818181818181818,1.7656598091125488
0,,2024-07-26 13:22:46,sub_118,3,distance,cathedral,localisation_accuracy,4,32,babble,,,babble-reversed_n13_p256-five-p307-nine-p318-three-p284-eight-p268-one-p248-two.wav,91.8049470223596,30,0.3094918986757644,6,RX81,7,0.0,0.0,8.0,0,0,7.07624633431085,1.4218766689300537
0,,2024-07-26 13:22:48,sub_118,3,distance,cathedral,localisation_accuracy,4,33,babble,,,babble-reversed_n13_p318-five-p229-four-p256-eight-p284-one-p245-three-p248-two.wav,91.84663338926106,30,-0.2372816228577314,8,RX81,9,0.0,0.0,10.0,0,0,9.715542521994136,1.421921968460083
0,,2024-07-26 13:22:52,sub_118,3,distance,cathedral,localisation_accuracy,4,34,babble,,,babble-reversed_n13_p318-five-p229-four-p256-eight-p284-one-p245-three-p248-two.wav,91.3652056357681,30,-0.3171914105227961,6,RX81,7,0.0,0.0,8.0,0,0,8.263929618768328,2.546929359436035
0,,2024-07-26 13:22:55,sub_118,3,distance,cathedral,localisation_accuracy,4,35,babble,,,babble-reversed_n13_p229-three-p256-nine-p318-five-p248-one-p245-eight-p284-two.wav,93.22109632876322,30,0.3123964932649002,10,RX81,11,0.0,0.0,12.0,0,0,10.80058651026393,1.8594160079956057
0,,2024-07-26 13:22:58,sub_118,3,distance,cathedral,localisation_accuracy,4,36,babble,,,babble-reversed_n13_p256-eight-p318-five-p307-four-p245-three-p268-one-p284-nine.wav,87.62647048232088,30,0.0811568781631235,2,RX81,3,0.0,0.0,4.0,0,0,6.563049853372435,1.8125388622283936
0,,2024-07-26 13:23:00,sub_118,3,distance,cathedral,localisation_accuracy,4,37,babble,,,babble-reversed_n13_p229-five-p318-three-p307-two-p245-four-p284-nine-p248-eight.wav,89.06158159643809,30,-0.3347463830356498,4,RX81,5,0.0,0.0,6.0,0,0,8.351906158357773,1.7031397819519043
0,,2024-07-26 13:23:04,sub_118,3,distance,cathedral,localisation_accuracy,4,38,babble,,,babble-reversed_n13_p229-five-p256-three-p318-nine-p248-two-p284-four-p268-one.wav,89.2002318337618,30,0.0728977576228397,3,RX81,4,0.0,0.0,5.0,0,0,6.988269794721408,2.5625522136688232
0,,2024-07-26 13:23:07,sub_118,3,distance,cathedral,localisation_accuracy,4,39,babble,,,babble-reversed_n13_p307-one-p318-five-p229-four-p268-eight-p284-two-p245-three.wav,90.08175544855744,30,-0.3690625771975602,5,RX81,6,0.0,0.0,7.0,0,0,8.190615835777127,1.921919345855713
0,,2024-07-26 13:23:10,sub_118,3,distance,cathedral,localisation_accuracy,4,40,babble,,,babble-reversed_n13_p229-two-p256-three-p318-eight-p284-five-p268-four-p245-one.wav,84.22909651905874,30,-0.2541318659947922,0,RX81,1,0.0,0.0,2.0,0,0,3.879765395894428,2.078176736831665
0,,2024-07-26 13:23:13,sub_118,3,distance,cathedral,localisation_accuracy,4,41,babble,,,babble-reversed_n13_p318-five-p256-nine-p307-two-p245-eight-p248-one-p284-four.wav,91.79044551850988,30,-0.3016569840160147,9,RX81,10,0.0,0.0,11.0,0,0,9.583577712609973,1.8437695503234863
0,,2024-07-26 13:23:17,sub_118,3,distance,cathedral,localisation_accuracy,4,42,babble,,,babble-reversed_n13_p256-eight-p229-three-p307-nine-p245-five-p248-four-p268-two.wav,86.50553456809814,30,0.4446726693869712,1,RX81,2,0.0,0.0,3.0,0,0,3.3665689149560123,2.218808174133301
0,,2024-07-26 13:23:21,sub_118,3,distance,cathedral,localisation_accuracy,4,43,babble,,,babble-reversed_n13_p229-one-p318-eight-p256-three-p268-two-p245-five-p248-nine.wav,91.48201373007151,30,-0.3518408928289752,7,RX81,8,0.0,0.0,9.0,0,0,7.164222873900293,2.7500829696655273
0,,2024-07-26 13:23:23,sub_118,3,distance,cathedral,localisation_accuracy,4,44,babble,,,babble-reversed_n13_p229-three-p256-nine-p318-five-p248-one-p245-eight-p284-two.wav,91.90542289037188,30,0.4545288001971761,6,RX81,7,0.0,0.0,8.0,0,0,9.436950146627566,1.7187902927398682
0,,2024-07-26 13:23:27,sub_118,3,distance,cathedral,localisation_accuracy,4,45,babble,,,babble-reversed_n13_p318-four-p256-five-p229-three-p284-one-p245-eight-p248-nine.wav,91.9675650619198,30,-0.0673287090366472,8,RX81,9,0.0,0.0,10.0,0,0,10.639296187683286,2.0156733989715576
0,,2024-07-26 13:23:31,sub_118,3,distance,cathedral,localisation_accuracy,4,46,babble,,,babble-reversed_n13_p307-two-p256-four-p318-three-p284-eight-p248-five-p245-nine.wav,91.71886494338776,30,-0.0266994835351515,7,RX81,8,0.0,0.0,9.0,0,0,11.313782991202348,2.937591791152954
0,,2024-07-26 13:23:34,sub_118,3,distance,cathedral,localisation_accuracy,4,47,babble,,,babble-reversed_n13_p229-five-p256-three-p318-nine-p248-two-p284-four-p268-one.wav,84.50206611986039,30,0.1509423905443044,0,RX81,1,0.0,0.0,2.0,0,0,3.513196480938417,2.640702247619629
0,,2024-07-26 13:23:37,sub_118,3,distance,cathedral,localisation_accuracy,4,48,babble,,,babble-reversed_n13_p256-five-p307-nine-p318-three-p284-eight-p268-one-p248-two.wav,86.5095449969937,30,0.4506282315170878,1,RX81,2,0.0,0.0,3.0,0,0,4.407624633431086,1.2187421321868896
0,,2024-07-26 13:23:39,sub_118,3,distance,cathedral,localisation_accuracy,4,49,babble,,,babble-reversed_n13_p256-eight-p229-three-p307-nine-p245-five-p248-four-p268-two.wav,89.68344379282013,30,0.4978218535823054,4,RX81,5,0.0,0.0,6.0,0,0,6.387096774193548,1.5000042915344238
0,,2024-07-26 13:23:42,sub_118,3,distance,cathedral,localisation_accuracy,4,50,babble,,,babble-reversed_n13_p229-eight-p256-nine-p318-four-p245-three-p268-five-p284-two.wav,90.39550750149532,30,0.077325112058895,5,RX81,6,0.0,0.0,7.0,0,0,9.085043988269796,2.000074625015259
0,,2024-07-26 13:23:45,sub_118,3,distance,cathedral,localisation_accuracy,4,51,babble,,,babble-reversed_n13_p256-three-p318-one-p307-two-p284-nine-p268-four-p245-eight.wav,92.88716347720867,30,-0.1582592248539042,10,RX81,11,0.0,0.0,12.0,0,0,10.741935483870968,1.6250081062316897
0,,2024-07-26 13:23:48,sub_118,3,distance,cathedral,localisation_accuracy,4,52,babble,,,babble-reversed_n13_p229-one-p318-eight-p256-three-p268-two-p245-five-p248-nine.wav,88.91756445554219,30,-0.3280092726753756,3,RX81,4,0.0,0.0,5.0,0,0,6.75366568914956,1.8125386238098145
0,,2024-07-26 13:23:51,sub_118,3,distance,cathedral,localisation_accuracy,4,53,babble,,,babble-reversed_n13_p256-eight-p229-three-p307-nine-p245-five-p248-four-p268-two.wav,87.2873436410915,30,-0.4071735786972034,2,RX81,3,0.0,0.0,4.0,0,0,3.630498533724341,1.4687716960906982
0,,2024-07-26 13:23:54,sub_118,3,distance,cathedral,localisation_accuracy,4,54,babble,,,babble-reversed_n13_p318-five-p229-three-p256-four-p268-eight-p248-one-p245-nine.wav,91.92063277443744,30,-0.1199227402532834,9,RX81,10,0.0,0.0,11.0,0,0,11.0791788856305,2.046903133392334
0,,2024-07-26 15:17:19,sub_119,3,distance,cathedral,localisation_accuracy,1,0,pinknoise,,,pinknoise_1.wav,89.12151552565602,30,-0.2555047187802772,4,RX81,5,0.0,0.0,6.0,0,0,5.199413489736071,4.937165021896362
0,,2024-07-26 15:17:24,sub_119,3,distance,cathedral,localisation_accuracy,1,1,pinknoise,,,pinknoise_7.wav,92.26475099127902,30,0.3658200783777067,9,RX81,10,0.0,0.0,11.0,0,0,7.03225806451613,3.24975848197937
0,,2024-07-26 15:17:28,sub_119,3,distance,cathedral,localisation_accuracy,1,2,pinknoise,,,pinknoise_1.wav,87.78342424786737,30,0.3098844367576127,2,RX81,3,0.0,0.0,4.0,0,0,5.0527859237536665,2.999760389328003
0,,2024-07-26 15:17:31,sub_119,3,distance,cathedral,localisation_accuracy,1,3,pinknoise,,,pinknoise_3.wav,92.06444221767656,30,0.0695187272552106,8,RX81,9,0.0,0.0,10.0,0,0,8.146627565982405,2.4372916221618652
0,,2024-07-26 15:17:35,sub_119,3,distance,cathedral,localisation_accuracy,1,4,pinknoise,,,pinknoise_3.wav,93.2744738754156,30,0.388313610284716,10,RX81,11,0.0,0.0,12.0,0,0,9.891495601173022,1.96856689453125
0,,2024-07-26 15:17:38,sub_119,3,distance,cathedral,localisation_accuracy,1,5,pinknoise,,,pinknoise_9.wav,86.4495973801364,30,0.3617262192369729,1,RX81,2,0.0,0.0,3.0,0,0,5.47800586510264,1.7654540538787842
0,,2024-07-26 15:17:42,sub_119,3,distance,cathedral,localisation_accuracy,1,6,pinknoise,,,pinknoise_1.wav,84.31456327015076,30,-0.127891844710323,0,RX81,1,0.0,0.0,2.0,0,0,6.167155425219942,2.9685115814208984
0,,2024-07-26 15:17:45,sub_119,3,distance,cathedral,localisation_accuracy,1,7,pinknoise,,,pinknoise_6.wav,89.49528040780683,30,0.4971440311496931,3,RX81,4,0.0,0.0,5.0,0,0,7.67741935483871,2.2810699939727783
0,,2024-07-26 15:17:48,sub_119,3,distance,cathedral,localisation_accuracy,1,8,pinknoise,,,pinknoise_6.wav,90.4553283446393,30,0.1631948698995255,5,RX81,6,0.0,0.0,7.0,0,0,9.80351906158358,1.8591971397399905
0,,2024-07-26 15:17:51,sub_119,3,distance,cathedral,localisation_accuracy,1,9,pinknoise,,,pinknoise_2.wav,92.06690550578377,30,0.4575595286849574,7,RX81,8,0.0,0.0,9.0,0,0,10.258064516129034,1.8748254776000977
0,,2024-07-26 15:17:54,sub_119,3,distance,cathedral,localisation_accuracy,1,10,pinknoise,,,pinknoise_0.wav,91.50657851228785,30,-0.117144652756972,6,RX81,7,0.0,0.0,8.0,0,0,10.741935483870968,2.140454053878784
0,,2024-07-26 15:17:58,sub_119,3,distance,cathedral,localisation_accuracy,1,11,pinknoise,,,pinknoise_7.wav,84.36433214063152,30,-0.0541332636220786,0,RX81,1,0.0,0.0,2.0,0,0,3.513196480938417,2.202993631362915
0,,2024-07-26 15:18:02,sub_119,3,distance,cathedral,localisation_accuracy,1,12,pinknoise,,,pinknoise_9.wav,87.23842011308507,30,-0.4769643352929881,2,RX81,3,0.0,0.0,4.0,0,0,5.903225806451613,2.702920913696289
0,,2024-07-26 15:18:06,sub_119,3,distance,cathedral,localisation_accuracy,1,13,pinknoise,,,pinknoise_7.wav,93.17178271021425,30,0.2424279260612399,10,RX81,11,0.0,0.0,12.0,0,0,11.064516129032258,2.6092193126678467
0,,2024-07-26 15:18:10,sub_119,3,distance,cathedral,localisation_accuracy,1,14,pinknoise,,,pinknoise_9.wav,91.75241732745064,30,-0.3690203728095644,8,RX81,9,0.0,0.0,10.0,0,0,10.947214076246334,2.9997851848602295
0,,2024-07-26 15:18:14,sub_119,3,distance,cathedral,localisation_accuracy,1,15,pinknoise,,,pinknoise_1.wav,89.19915929829772,30,0.0713663894309547,3,RX81,4,0.0,0.0,5.0,0,0,6.079178885630499,3.421628475189209
0,,2024-07-26 15:18:18,sub_119,3,distance,cathedral,localisation_accuracy,1,16,pinknoise,,,pinknoise_8.wav,91.80559529346428,30,0.0932508864620862,7,RX81,8,0.0,0.0,9.0,0,0,10.624633431085044,2.624800682067871
0,,2024-07-26 15:18:21,sub_119,3,distance,cathedral,localisation_accuracy,1,17,pinknoise,,,pinknoise_1.wav,89.4995057918621,30,0.2491554646444717,4,RX81,5,0.0,0.0,6.0,0,0,8.395894428152493,1.6560940742492676
0,,2024-07-26 15:18:24,sub_119,3,distance,cathedral,localisation_accuracy,1,18,pinknoise,,,pinknoise_2.wav,91.86371214505914,30,0.3942352803942128,6,RX81,7,0.0,0.0,8.0,0,0,10.214076246334312,2.093579053878784
0,,2024-07-26 15:18:27,sub_119,3,distance,cathedral,localisation_accuracy,1,19,pinknoise,,,pinknoise_2.wav,90.66759795624964,30,0.4698802028356735,5,RX81,6,0.0,0.0,7.0,0,0,11.167155425219942,1.6873552799224854
0,,2024-07-26 15:18:33,sub_119,3,distance,cathedral,localisation_accuracy,1,20,pinknoise,,,pinknoise_2.wav,86.16324798902062,30,-0.0593606640738451,1,RX81,2,0.0,0.0,3.0,0,0,3.8944281524926687,5.315175294876099
0,,2024-07-26 15:18:37,sub_119,3,distance,cathedral,localisation_accuracy,1,21,pinknoise,,,pinknoise_1.wav,92.2477915730852,30,0.3416969262851892,9,RX81,10,0.0,0.0,11.0,0,0,9.994134897360704,2.3904385566711426
0,,2024-07-26 15:18:43,sub_119,3,distance,cathedral,localisation_accuracy,1,22,pinknoise,,,pinknoise_8.wav,84.69465478920485,30,0.4400495068263891,0,RX81,1,0.0,0.0,2.0,0,0,2.4721407624633436,4.780924320220947
0,,2024-07-26 15:18:46,sub_119,3,distance,cathedral,localisation_accuracy,1,23,pinknoise,,,pinknoise_8.wav,87.63434654076758,30,0.0925933566531399,2,RX81,3,0.0,0.0,4.0,0,0,3.6598240469208214,1.5935888290405271
0,,2024-07-26 15:18:48,sub_119,3,distance,cathedral,localisation_accuracy,1,24,pinknoise,,,pinknoise_0.wav,91.97413276371576,30,0.3277171384592495,7,RX81,8,0.0,0.0,9.0,0,0,7.384164222873901,1.5154716968536377
0,,2024-07-26 15:18:51,sub_119,3,distance,cathedral,localisation_accuracy,1,25,pinknoise,,,pinknoise_4.wav,91.28647122750456,30,-0.4280217261195861,6,RX81,7,0.0,0.0,8.0,0,0,8.92375366568915,1.3279798030853271
0,,2024-07-26 15:18:55,sub_119,3,distance,cathedral,localisation_accuracy,1,26,pinknoise,,,pinknoise_5.wav,92.33759110126796,30,0.4587436012737194,8,RX81,9,0.0,0.0,10.0,0,0,10.536656891495602,2.9841415882110596
0,,2024-07-26 15:18:58,sub_119,3,distance,cathedral,localisation_accuracy,1,27,pinknoise,,,pinknoise_1.wav,90.25442080661723,30,-0.1242306961494731,5,RX81,6,0.0,0.0,7.0,0,0,8.043988269794722,1.374859094619751
0,,2024-07-26 15:19:00,sub_119,3,distance,cathedral,localisation_accuracy,1,28,pinknoise,,,pinknoise_8.wav,92.6811887906034,30,-0.4449153762959292,10,RX81,11,0.0,0.0,12.0,0,0,10.932551319648097,1.5936105251312256
0,,2024-07-26 15:19:04,sub_119,3,distance,cathedral,localisation_accuracy,1,29,pinknoise,,,pinknoise_4.wav,91.74740778910932,30,-0.3614918548056182,9,RX81,10,0.0,0.0,11.0,0,0,11.211143695014664,2.2341983318328857
0,,2024-07-26 15:19:07,sub_119,3,distance,cathedral,localisation_accuracy,1,30,pinknoise,,,pinknoise_5.wav,89.07982751000326,30,-0.3106449195917165,4,RX81,5,0.0,0.0,6.0,0,0,6.196480938416423,1.9216949939727783
0,,2024-07-26 15:19:10,sub_119,3,distance,cathedral,localisation_accuracy,1,31,pinknoise,,,pinknoise_8.wav,86.01732552651742,30,-0.2716933447600816,1,RX81,2,0.0,0.0,3.0,0,0,3.6891495601173023,1.5624265670776367
0,,2024-07-26 15:19:13,sub_119,3,distance,cathedral,localisation_accuracy,1,32,pinknoise,,,pinknoise_9.wav,89.25621877455653,30,0.1529443979452509,3,RX81,4,0.0,0.0,5.0,0,0,5.082111436950147,1.781099796295166
0,,2024-07-26 15:19:16,sub_119,3,distance,cathedral,localisation_accuracy,1,33,pinknoise,,,pinknoise_8.wav,91.98010451142402,30,0.3360583523125661,7,RX81,8,0.0,0.0,9.0,0,0,9.627565982404692,2.296701431274414
0,,2024-07-26 15:19:19,sub_119,3,distance,cathedral,localisation_accuracy,1,34,pinknoise,,,pinknoise_9.wav,92.91658004316348,30,-0.1170937576662708,10,RX81,11,0.0,0.0,12.0,0,0,11.10850439882698,1.5936172008514404
0,,2024-07-26 15:19:23,sub_119,3,distance,cathedral,localisation_accuracy,1,35,pinknoise,,,pinknoise_9.wav,91.77903934483982,30,0.2722063155840196,6,RX81,7,0.0,0.0,8.0,0,0,10.565982404692082,2.9528846740722656
0,,2024-07-26 15:19:25,sub_119,3,distance,cathedral,localisation_accuracy,1,36,pinknoise,,,pinknoise_2.wav,89.48562247458699,30,0.230469062133733,4,RX81,5,0.0,0.0,6.0,0,0,8.938416422287391,1.1873629093170166
0,,2024-07-26 15:19:28,sub_119,3,distance,cathedral,localisation_accuracy,1,37,pinknoise,,,pinknoise_7.wav,92.33434339390348,30,0.4650096109870349,9,RX81,10,0.0,0.0,11.0,0,0,10.316715542521996,1.3280036449432373
0,,2024-07-26 15:19:32,sub_119,3,distance,cathedral,localisation_accuracy,1,38,pinknoise,,,pinknoise_4.wav,86.02816582161309,30,-0.2559714731413721,1,RX81,2,0.0,0.0,3.0,0,0,3.7184750733137832,2.6716504096984863
0,,2024-07-26 15:19:35,sub_119,3,distance,cathedral,localisation_accuracy,1,39,pinknoise,,,pinknoise_5.wav,90.18314259435456,30,-0.2255442985098046,5,RX81,6,0.0,0.0,7.0,0,0,8.366568914956012,2.671651601791382
0,,2024-07-26 15:19:39,sub_119,3,distance,cathedral,localisation_accuracy,1,40,pinknoise,,,pinknoise_7.wav,87.48675171279791,30,-0.1210016970884609,2,RX81,3,0.0,0.0,4.0,0,0,5.844574780058651,2.234175443649292
0,,2024-07-26 15:19:43,sub_119,3,distance,cathedral,localisation_accuracy,1,41,pinknoise,,,pinknoise_2.wav,92.323926207257,30,0.4391525618353524,8,RX81,9,0.0,0.0,10.0,0,0,11.0791788856305,2.7654168605804443
0,,2024-07-26 15:19:48,sub_119,3,distance,cathedral,localisation_accuracy,1,42,pinknoise,,,pinknoise_8.wav,84.27027377811876,30,-0.1933770794113374,0,RX81,1,0.0,0.0,2.0,0,0,2.3401759530791795,3.734144687652588
0,,2024-07-26 15:19:50,sub_119,3,distance,cathedral,localisation_accuracy,1,43,pinknoise,,,pinknoise_5.wav,89.22160454018086,30,0.1034300146490356,3,RX81,4,0.0,0.0,5.0,0,0,6.621700879765397,1.6561062335968018
0,,2024-07-26 15:19:53,sub_119,3,distance,cathedral,localisation_accuracy,1,44,pinknoise,,,pinknoise_5.wav,91.84892669251032,30,0.1533590629583692,7,RX81,8,0.0,0.0,9.0,0,0,7.838709677419356,1.1561839580535889
0,,2024-07-26 15:19:57,sub_119,3,distance,cathedral,localisation_accuracy,1,45,pinknoise,,,pinknoise_4.wav,84.66647669539176,30,0.3975770790902274,0,RX81,1,0.0,0.0,2.0,0,0,2.457478005865103,3.4372990131378174
0,,2024-07-26 15:20:03,sub_119,3,distance,cathedral,localisation_accuracy,1,46,pinknoise,,,pinknoise_2.wav,90.01150523799984,30,-0.4680991301262385,5,RX81,6,0.0,0.0,7.0,0,0,10.214076246334312,3.92158579826355
0,,2024-07-26 15:20:05,sub_119,3,distance,cathedral,localisation_accuracy,1,47,pinknoise,,,pinknoise_6.wav,89.35783341463656,30,0.298771356344818,3,RX81,4,0.0,0.0,5.0,0,0,8.90909090909091,1.4529879093170166
0,,2024-07-26 15:20:08,sub_119,3,distance,cathedral,localisation_accuracy,1,48,pinknoise,,,pinknoise_1.wav,91.50218698912828,30,-0.1233790292695889,6,RX81,7,0.0,0.0,8.0,0,0,10.82991202346041,1.765475511550903
0,,2024-07-26 15:20:11,sub_119,3,distance,cathedral,localisation_accuracy,1,49,pinknoise,,,pinknoise_2.wav,92.2822791343892,30,0.3907723421334629,9,RX81,10,0.0,0.0,11.0,0,0,11.43108504398827,1.6248407363891602
0,,2024-07-26 15:20:14,sub_119,3,distance,cathedral,localisation_accuracy,1,50,pinknoise,,,pinknoise_2.wav,91.86482592403289,30,-0.2117763038184019,8,RX81,9,0.0,0.0,10.0,0,0,11.533724340175954,1.5154900550842283
0,,2024-07-26 15:20:17,sub_119,3,distance,cathedral,localisation_accuracy,1,51,pinknoise,,,pinknoise_1.wav,86.31607907390075,30,0.1646509543213735,1,RX81,2,0.0,0.0,3.0,0,0,5.873900293255132,2.0466878414154053
0,,2024-07-26 15:20:20,sub_119,3,distance,cathedral,localisation_accuracy,1,52,pinknoise,,,pinknoise_6.wav,89.03180890034218,30,-0.374031846293036,4,RX81,5,0.0,0.0,6.0,0,0,6.739002932551321,2.218573808670044
0,,2024-07-26 15:20:24,sub_119,3,distance,cathedral,localisation_accuracy,1,53,pinknoise,,,pinknoise_1.wav,87.37495267848432,30,-0.2817843793853368,2,RX81,3,0.0,0.0,4.0,0,0,5.184750733137831,2.3123180866241455
0,,2024-07-26 15:20:27,sub_119,3,distance,cathedral,localisation_accuracy,1,54,pinknoise,,,pinknoise_7.wav,93.03269559805086,30,0.045953273893143,10,RX81,11,0.0,0.0,12.0,0,0,9.686217008797655,2.1248159408569336
0,,2024-07-26 15:22:15,sub_119,3,distance,cathedral,localisation_accuracy,2,0,pinknoise,,,pinknoise_9.wav,93.27662328947528,30,0.391374629855557,10,RX81,11,0.0,0.0,12.0,0,0,10.17008797653959,3.3435497283935547
0,,2024-07-26 15:22:19,sub_119,3,distance,cathedral,localisation_accuracy,2,1,pinknoise,,,pinknoise_6.wav,86.40702357359379,30,0.2987471437763577,1,RX81,2,0.0,0.0,3.0,0,0,2.706744868035191,2.3279285430908203
0,,2024-07-26 15:22:23,sub_119,3,distance,cathedral,localisation_accuracy,2,2,pinknoise,,,pinknoise_0.wav,91.7878692326478,30,-0.3052421618938981,9,RX81,10,0.0,0.0,11.0,0,0,10.302052785923754,2.671651601791382
0,,2024-07-26 15:22:27,sub_119,3,distance,cathedral,localisation_accuracy,2,3,pinknoise,,,pinknoise_5.wav,87.70978006474643,30,0.2023475454913601,2,RX81,3,0.0,0.0,4.0,0,0,4.583577712609971,3.343508720397949
0,,2024-07-26 15:22:30,sub_119,3,distance,cathedral,localisation_accuracy,2,4,pinknoise,,,pinknoise_2.wav,89.25247497203395,30,-0.0816193009354101,4,RX81,5,0.0,0.0,6.0,0,0,5.873900293255132,1.5935890674591064
0,,2024-07-26 15:22:34,sub_119,3,distance,cathedral,localisation_accuracy,2,5,pinknoise,,,pinknoise_4.wav,84.06312837053746,30,-0.4977558842749304,0,RX81,1,0.0,0.0,2.0,0,0,2.457478005865103,2.5154590606689453
0,,2024-07-26 15:22:37,sub_119,3,distance,cathedral,localisation_accuracy,2,6,pinknoise,,,pinknoise_5.wav,89.34845456331816,30,0.2852822953812058,3,RX81,4,0.0,0.0,5.0,0,0,5.2434017595307925,1.7029592990875244
0,,2024-07-26 15:22:40,sub_119,3,distance,cathedral,localisation_accuracy,2,7,pinknoise,,,pinknoise_7.wav,90.03230573909929,30,-0.4388097783239035,5,RX81,6,0.0,0.0,7.0,0,0,8.762463343108505,2.062311887741089
0,,2024-07-26 15:22:43,sub_119,3,distance,cathedral,localisation_accuracy,2,8,pinknoise,,,pinknoise_9.wav,91.84725534017042,30,-0.2364100293355893,8,RX81,9,0.0,0.0,10.0,0,0,10.346041055718477,1.7654752731323242
0,,2024-07-26 15:22:46,sub_119,3,distance,cathedral,localisation_accuracy,2,9,pinknoise,,,pinknoise_1.wav,91.62068168225308,30,-0.1619126441098326,7,RX81,8,0.0,0.0,9.0,0,0,10.903225806451614,2.2966949939727783
0,,2024-07-26 15:22:49,sub_119,3,distance,cathedral,localisation_accuracy,2,10,pinknoise,,,pinknoise_2.wav,91.70629280269073,30,0.1677566196405121,6,RX81,7,0.0,0.0,8.0,0,0,11.299120234604109,1.2811288833618164
0,,2024-07-26 15:22:50,sub_119,3,distance,cathedral,localisation_accuracy,2,11,pinknoise,,,pinknoise_2.wav,93.01310828489926,30,0.0183869344132352,10,RX81,11,0.0,0.0,12.0,0,0,10.844574780058652,0.4218037128448486
0,,2024-07-26 15:22:53,sub_119,3,distance,cathedral,localisation_accuracy,2,12,pinknoise,,,pinknoise_1.wav,92.07804448129386,30,0.4731866904529044,7,RX81,8,0.0,0.0,9.0,0,0,9.744868035190615,1.4530470371246338
0,,2024-07-26 15:22:57,sub_119,3,distance,cathedral,localisation_accuracy,2,13,pinknoise,,,pinknoise_9.wav,89.54918721554299,30,0.316119393508374,4,RX81,5,0.0,0.0,6.0,0,0,9.495601173020528,2.734169006347656
0,,2024-07-26 15:23:01,sub_119,3,distance,cathedral,localisation_accuracy,2,14,pinknoise,,,pinknoise_6.wav,85.90483960998097,30,-0.4343439551229112,1,RX81,2,0.0,0.0,3.0,0,0,3.865102639296188,2.6404247283935547
0,,2024-07-26 15:23:04,sub_119,3,distance,cathedral,localisation_accuracy,2,15,pinknoise,,,pinknoise_9.wav,87.52257576658913,30,-0.069297885468646,2,RX81,3,0.0,0.0,4.0,0,0,5.111436950146628,2.343574047088623
0,,2024-07-26 15:23:07,sub_119,3,distance,cathedral,localisation_accuracy,2,16,pinknoise,,,pinknoise_8.wav,90.57410054662178,30,0.334413550323016,5,RX81,6,0.0,0.0,7.0,0,0,7.530791788856305,1.937340497970581
0,,2024-07-26 15:23:10,sub_119,3,distance,cathedral,localisation_accuracy,2,17,pinknoise,,,pinknoise_9.wav,91.91886856413991,30,-0.1358813744247053,8,RX81,9,0.0,0.0,10.0,0,0,9.686217008797655,1.593618392944336
0,,2024-07-26 15:23:12,sub_119,3,distance,cathedral,localisation_accuracy,2,18,pinknoise,,,pinknoise_5.wav,91.88674677081453,30,0.4275174106892868,6,RX81,7,0.0,0.0,8.0,0,0,10.49266862170088,1.0311212539672852
0,,2024-07-26 15:23:15,sub_119,3,distance,cathedral,localisation_accuracy,2,19,pinknoise,,,pinknoise_4.wav,89.41207625685406,30,0.3769036473903937,3,RX81,4,0.0,0.0,5.0,0,0,6.680351906158359,1.6717312335968018
0,,2024-07-26 15:23:18,sub_119,3,distance,cathedral,localisation_accuracy,2,20,pinknoise,,,pinknoise_0.wav,91.8780615284394,30,-0.1794718962767798,9,RX81,10,0.0,0.0,11.0,0,0,10.4633431085044,1.9530243873596191
0,,2024-07-26 15:23:23,sub_119,3,distance,cathedral,localisation_accuracy,2,21,pinknoise,,,pinknoise_8.wav,84.33367962553193,30,-0.0995824910868307,0,RX81,1,0.0,0.0,2.0,0,0,2.325513196480939,3.671614646911621
0,,2024-07-26 15:23:27,sub_119,3,distance,cathedral,localisation_accuracy,2,22,pinknoise,,,pinknoise_3.wav,85.92271672810361,30,-0.4085538843764438,1,RX81,2,0.0,0.0,3.0,0,0,2.8240469208211145,2.452913761138916
0,,2024-07-26 15:23:30,sub_119,3,distance,cathedral,localisation_accuracy,2,23,pinknoise,,,pinknoise_5.wav,90.2960443945748,30,-0.064908295710508,5,RX81,6,0.0,0.0,7.0,0,0,9.788856304985336,2.3123180866241455
0,,2024-07-26 15:23:33,sub_119,3,distance,cathedral,localisation_accuracy,2,24,pinknoise,,,pinknoise_7.wav,89.48105360740331,30,0.4765508480788212,3,RX81,4,0.0,0.0,5.0,0,0,8.263929618768328,1.577986478805542
0,,2024-07-26 15:23:36,sub_119,3,distance,cathedral,localisation_accuracy,2,25,pinknoise,,,pinknoise_8.wav,93.31760296365503,30,0.4497935419293571,10,RX81,11,0.0,0.0,12.0,0,0,10.727272727272728,1.8748254776000977
0,,2024-07-26 15:23:39,sub_119,3,distance,cathedral,localisation_accuracy,2,26,pinknoise,,,pinknoise_8.wav,91.39526639162148,30,-0.2747669696919147,6,RX81,7,0.0,0.0,8.0,0,0,11.12316715542522,1.4998478889465332
0,,2024-07-26 15:23:43,sub_119,3,distance,cathedral,localisation_accuracy,2,27,pinknoise,,,pinknoise_1.wav,91.906135736302,30,-0.1537801500562503,8,RX81,9,0.0,0.0,10.0,0,0,10.15542521994135,2.937281847000122
0,,2024-07-26 15:23:45,sub_119,3,distance,cathedral,localisation_accuracy,2,28,pinknoise,,,pinknoise_9.wav,88.95448072025103,30,-0.4758245248113562,4,RX81,5,0.0,0.0,6.0,0,0,8.381231671554254,1.4685993194580078
0,,2024-07-26 15:23:48,sub_119,3,distance,cathedral,localisation_accuracy,2,29,pinknoise,,,pinknoise_9.wav,92.06274501163504,30,0.0797279162916437,9,RX81,10,0.0,0.0,11.0,0,0,10.287390029325516,1.577986717224121
0,,2024-07-26 15:23:56,sub_119,3,distance,cathedral,localisation_accuracy,2,30,pinknoise,,,pinknoise_8.wav,84.48106466281712,30,0.1195822758534858,0,RX81,1,0.0,0.0,2.0,0,0,1.9296187683284456,6.265191555023193
0,,2024-07-26 15:23:59,sub_119,3,distance,cathedral,localisation_accuracy,2,31,pinknoise,,,pinknoise_7.wav,87.7350964192893,30,0.2392719517770462,2,RX81,3,0.0,0.0,4.0,0,0,3.0,2.4372973442077637
0,,2024-07-26 15:24:03,sub_119,3,distance,cathedral,localisation_accuracy,2,32,pinknoise,,,pinknoise_0.wav,91.77420388959575,30,0.0497804152871579,7,RX81,8,0.0,0.0,9.0,0,0,8.718475073313783,2.499786853790283
0,,2024-07-26 15:24:06,sub_119,3,distance,cathedral,localisation_accuracy,2,33,pinknoise,,,pinknoise_7.wav,93.04733493346788,30,0.0665725718531177,10,RX81,11,0.0,0.0,12.0,0,0,10.844574780058652,2.5154638290405273
0,,2024-07-26 15:24:11,sub_119,3,distance,cathedral,localisation_accuracy,2,34,pinknoise,,,pinknoise_6.wav,86.26035150758693,30,0.0827749828543846,1,RX81,2,0.0,0.0,3.0,0,0,2.1055718475073313,2.9529073238372803
0,,2024-07-26 15:24:14,sub_119,3,distance,cathedral,localisation_accuracy,2,35,pinknoise,,,pinknoise_6.wav,92.34326834128802,30,0.4668866347527471,8,RX81,9,0.0,0.0,10.0,0,0,10.712609970674489,2.62480092048645
0,,2024-07-26 15:24:17,sub_119,3,distance,cathedral,localisation_accuracy,2,36,pinknoise,,,pinknoise_4.wav,91.51869212977245,30,-0.0999409474420282,6,RX81,7,0.0,0.0,8.0,0,0,11.10850439882698,1.312377691268921
0,,2024-07-26 15:24:22,sub_119,3,distance,cathedral,localisation_accuracy,2,37,pinknoise,,,pinknoise_6.wav,87.27094754075776,30,-0.430581427496337,2,RX81,3,0.0,0.0,4.0,0,0,2.1055718475073313,4.171550750732422
0,,2024-07-26 15:24:26,sub_119,3,distance,cathedral,localisation_accuracy,2,38,pinknoise,,,pinknoise_4.wav,84.06161237166043,30,-0.4999719921584895,0,RX81,1,0.0,0.0,2.0,0,0,1.7683284457478008,2.5622735023498535
0,,2024-07-26 15:24:29,sub_119,3,distance,cathedral,localisation_accuracy,2,39,pinknoise,,,pinknoise_9.wav,90.63878895347798,30,0.4280750170203511,5,RX81,6,0.0,0.0,7.0,0,0,8.703812316715544,2.140425682067871
0,,2024-07-26 15:24:33,sub_119,3,distance,cathedral,localisation_accuracy,2,40,pinknoise,,,pinknoise_2.wav,89.39809420349137,30,0.1129249411833944,4,RX81,5,0.0,0.0,6.0,0,0,6.8269794721407635,2.2654197216033936
0,,2024-07-26 15:24:36,sub_119,3,distance,cathedral,localisation_accuracy,2,41,pinknoise,,,pinknoise_2.wav,91.55502143058855,30,-0.2519961915536527,7,RX81,8,0.0,0.0,9.0,0,0,9.87683284457478,2.1091763973236084
0,,2024-07-26 15:24:39,sub_119,3,distance,cathedral,localisation_accuracy,2,42,pinknoise,,,pinknoise_5.wav,89.09805991410406,30,-0.072633943742017,3,RX81,4,0.0,0.0,5.0,0,0,6.196480938416423,2.156078100204468
0,,2024-07-26 15:24:43,sub_119,3,distance,cathedral,localisation_accuracy,2,43,pinknoise,,,pinknoise_0.wav,91.70326951037993,30,-0.422731592992579,9,RX81,10,0.0,0.0,11.0,0,0,10.228739002932551,2.671643018722534
0,,2024-07-26 15:24:47,sub_119,3,distance,cathedral,localisation_accuracy,2,44,pinknoise,,,pinknoise_1.wav,91.89750725289686,30,0.4430774372235282,6,RX81,7,0.0,0.0,8.0,0,0,10.580645161290324,2.6247732639312744
0,,2024-07-26 15:24:51,sub_119,3,distance,cathedral,localisation_accuracy,2,45,pinknoise,,,pinknoise_4.wav,89.16941106330731,30,-0.1920274796176438,4,RX81,5,0.0,0.0,6.0,0,0,8.263929618768328,2.4529058933258057
0,,2024-07-26 15:24:55,sub_119,3,distance,cathedral,localisation_accuracy,2,46,pinknoise,,,pinknoise_5.wav,87.8678417899249,30,0.4336239169482535,2,RX81,3,0.0,0.0,4.0,0,0,4.1143695014662764,2.906024932861328
0,,2024-07-26 15:24:58,sub_119,3,distance,cathedral,localisation_accuracy,2,47,pinknoise,,,pinknoise_6.wav,90.49558751310404,30,0.2211228147576286,5,RX81,6,0.0,0.0,7.0,0,0,8.395894428152493,1.9998114109039309
0,,2024-07-26 15:25:01,sub_119,3,distance,cathedral,localisation_accuracy,2,48,pinknoise,,,pinknoise_7.wav,92.99926400174184,30,-0.0010816557782967,10,RX81,11,0.0,0.0,12.0,0,0,9.759530791788857,2.28106427192688
0,,2024-07-26 15:25:04,sub_119,3,distance,cathedral,localisation_accuracy,2,49,pinknoise,,,pinknoise_0.wav,91.85346764250964,30,0.1596650953121173,7,RX81,8,0.0,0.0,9.0,0,0,10.302052785923754,1.4842166900634766
0,,2024-07-26 15:25:09,sub_119,3,distance,cathedral,localisation_accuracy,2,50,pinknoise,,,pinknoise_6.wav,84.53927760253123,30,0.2065880888720057,0,RX81,1,0.0,0.0,2.0,0,0,2.545454545454546,4.2965638637542725
0,,2024-07-26 15:25:15,sub_119,3,distance,cathedral,localisation_accuracy,2,51,pinknoise,,,pinknoise_1.wav,92.2493699525198,30,0.343941211223653,9,RX81,10,0.0,0.0,11.0,0,0,11.020527859237538,4.171571969985962
0,,2024-07-26 15:25:20,sub_119,3,distance,cathedral,localisation_accuracy,2,52,pinknoise,,,pinknoise_6.wav,86.06533457146641,30,-0.2020018223611085,1,RX81,2,0.0,0.0,3.0,0,0,1.709677419354839,4.218420505523682
0,,2024-07-26 15:25:25,sub_119,3,distance,cathedral,localisation_accuracy,2,53,pinknoise,,,pinknoise_2.wav,91.97008481512844,30,-0.0637772388033752,8,RX81,9,0.0,0.0,10.0,0,0,11.460410557184751,3.4216177463531494
0,,2024-07-26 15:25:28,sub_119,3,distance,cathedral,localisation_accuracy,2,54,pinknoise,,,pinknoise_7.wav,89.12990518608977,30,-0.0273498621044523,3,RX81,4,0.0,0.0,5.0,0,0,9.55425219941349,1.890441417694092
0,,2024-07-26 15:29:31,sub_119,3,distance,cathedral,localisation_accuracy,3,0,babble,,,babble-reversed_n13_p318-three-p307-one-p256-five-p248-nine-p245-two-p284-eight.wav,92.72486278431116,30,-0.3843649562486086,10,RX81,11,0.0,0.0,12.0,0,0,9.964809384164225,3.2341296672821045
0,,2024-07-26 15:29:34,sub_119,3,distance,cathedral,localisation_accuracy,3,1,babble,,,babble-reversed_n13_p229-nine-p318-one-p307-two-p248-eight-p245-five-p284-four.wav,91.44353345694364,30,-0.2065212693841556,6,RX81,7,0.0,0.0,8.0,0,0,10.595307917888563,1.703013896942139
0,,2024-07-26 15:29:37,sub_119,3,distance,cathedral,localisation_accuracy,3,2,babble,,,babble-reversed_n13_p318-five-p256-nine-p307-two-p245-eight-p248-one-p284-four.wav,92.34829182821515,30,0.4849291543317727,9,RX81,10,0.0,0.0,11.0,0,0,10.991202346041057,1.57796311378479
0,,2024-07-26 15:29:40,sub_119,3,distance,cathedral,localisation_accuracy,3,3,babble,,,babble-reversed_n13_p256-four-p229-eight-p307-five-p248-three-p245-one-p284-two.wav,91.5555927245771,30,-0.2512135704360911,7,RX81,8,0.0,0.0,9.0,0,0,10.551319648093845,1.9842615127563477
0,,2024-07-26 15:29:43,sub_119,3,distance,cathedral,localisation_accuracy,3,4,babble,,,babble-reversed_n13_p256-eight-p318-five-p307-four-p245-three-p268-one-p284-nine.wav,84.34343352421322,30,-0.0851276365242265,0,RX81,1,0.0,0.0,2.0,0,0,5.829912023460411,2.3280017375946045
0,,2024-07-26 15:29:47,sub_119,3,distance,cathedral,localisation_accuracy,3,5,babble,,,babble-reversed_n13_p318-five-p256-nine-p307-two-p245-eight-p248-one-p284-four.wav,89.1864542887497,30,0.0532320843912312,3,RX81,4,0.0,0.0,5.0,0,0,8.95307917888563,2.484182357788086
0,,2024-07-26 15:29:50,sub_119,3,distance,cathedral,localisation_accuracy,3,6,babble,,,babble-reversed_n13_p307-five-p229-three-p318-nine-p245-four-p268-eight-p284-two.wav,87.571002827688,30,0.0007377286344228,2,RX81,3,0.0,0.0,4.0,0,0,9.788856304985336,1.9373390674591064
0,,2024-07-26 15:29:53,sub_119,3,distance,cathedral,localisation_accuracy,3,7,babble,,,babble-reversed_n13_p318-five-p256-nine-p307-two-p245-eight-p248-one-p284-four.wav,89.63653202213598,30,0.4342081481607486,4,RX81,5,0.0,0.0,6.0,0,0,10.844574780058652,1.9842092990875244
0,,2024-07-26 15:29:56,sub_119,3,distance,cathedral,localisation_accuracy,3,8,babble,,,babble-reversed_n13_p256-three-p318-one-p307-two-p284-nine-p268-four-p245-eight.wav,86.10585325939311,30,-0.1430564361257865,1,RX81,2,0.0,0.0,3.0,0,0,8.439882697947215,2.031064033508301
0,,2024-07-26 15:29:59,sub_119,3,distance,cathedral,localisation_accuracy,3,9,babble,,,babble-reversed_n13_p318-nine-p256-five-p307-eight-p268-three-p248-one-p245-four.wav,92.02321474037304,30,0.0112050112442085,8,RX81,9,0.0,0.0,10.0,0,0,10.023460410557185,1.2655444145202637
0,,2024-07-26 15:30:01,sub_119,3,distance,cathedral,localisation_accuracy,3,10,babble,,,babble-reversed_n13_p256-three-p318-two-p229-nine-p248-four-p284-one-p268-eight.wav,90.54674037309891,30,0.2948859338762786,5,RX81,6,0.0,0.0,7.0,0,0,10.580645161290324,1.1405153274536133
0,,2024-07-26 15:30:04,sub_119,3,distance,cathedral,localisation_accuracy,3,11,babble,,,babble-reversed_n13_p256-five-p307-nine-p318-three-p284-eight-p268-one-p248-two.wav,91.44777544552612,30,-0.200515957881713,6,RX81,7,0.0,0.0,8.0,0,0,9.407624633431086,1.5467486381530762
0,,2024-07-26 15:30:06,sub_119,3,distance,cathedral,localisation_accuracy,3,12,babble,,,babble-reversed_n13_p256-four-p307-eight-p318-two-p248-three-p284-nine-p268-one.wav,90.21112878123776,30,-0.1858062534014246,5,RX81,6,0.0,0.0,7.0,0,0,10.844574780058652,1.5467321872711182
0,,2024-07-26 15:30:09,sub_119,3,distance,cathedral,localisation_accuracy,3,13,babble,,,babble-reversed_n13_p318-five-p229-three-p256-four-p268-eight-p248-one-p245-nine.wav,92.35476735564411,30,0.4941811812179056,9,RX81,10,0.0,0.0,11.0,0,0,11.313782991202348,1.1249220371246338
0,,2024-07-26 15:30:11,sub_119,3,distance,cathedral,localisation_accuracy,3,14,babble,,,babble-reversed_n13_p229-five-p256-one-p318-three-p248-nine-p268-four-p284-eight.wav,87.24256578252405,30,-0.47105681207081,2,RX81,3,0.0,0.0,4.0,0,0,10.331378299120235,1.2811079025268557
0,,2024-07-26 15:30:13,sub_119,3,distance,cathedral,localisation_accuracy,3,15,babble,,,babble-reversed_n13_p256-nine-p307-four-p229-one-p284-three-p248-two-p245-five.wav,93.32362783298562,30,0.4583918072698433,10,RX81,11,0.0,0.0,12.0,0,0,11.12316715542522,1.0780186653137207
0,,2024-07-26 15:30:15,sub_119,3,distance,cathedral,localisation_accuracy,3,16,babble,,,babble-reversed_n13_p307-one-p318-five-p229-four-p268-eight-p284-two-p245-three.wav,89.30515189408125,30,0.2230803938740959,3,RX81,4,0.0,0.0,5.0,0,0,11.152492668621704,1.2030513286590576
0,,2024-07-26 15:30:18,sub_119,3,distance,cathedral,localisation_accuracy,3,17,babble,,,babble-reversed_n13_p318-one-p307-two-p256-eight-p284-three-p248-five-p245-four.wav,86.30365789430178,30,0.1463822496077658,1,RX81,2,0.0,0.0,3.0,0,0,10.419354838709678,1.1092679500579834
0,,2024-07-26 15:30:21,sub_119,3,distance,cathedral,localisation_accuracy,3,18,babble,,,babble-reversed_n13_p256-four-p229-two-p318-five-p268-one-p248-eight-p245-three.wav,91.47105528798988,30,-0.3667986108158951,7,RX81,8,0.0,0.0,9.0,0,0,11.313782991202348,1.781138896942139
0,,2024-07-26 15:30:24,sub_119,3,distance,cathedral,localisation_accuracy,3,19,babble,,,babble-reversed_n13_p256-four-p229-eight-p307-five-p248-three-p245-one-p284-two.wav,89.4124271784775,30,0.132141746746826,4,RX81,5,0.0,0.0,6.0,0,0,9.8475073313783,2.531048536300659
0,,2024-07-26 15:30:27,sub_119,3,distance,cathedral,localisation_accuracy,3,20,babble,,,babble-reversed_n13_p307-two-p256-four-p318-three-p284-eight-p248-five-p245-nine.wav,91.93866150945674,30,-0.108036744891222,8,RX81,9,0.0,0.0,10.0,0,0,9.8475073313783,2.015439510345459
0,,2024-07-26 15:30:29,sub_119,3,distance,cathedral,localisation_accuracy,3,21,babble,,,babble-reversed_n13_p256-three-p318-two-p229-nine-p248-four-p284-one-p268-eight.wav,84.31358529296318,30,-0.1293394073085008,0,RX81,1,0.0,0.0,2.0,0,0,10.19941348973607,0.0155849456787109
0,,2024-07-26 15:30:30,sub_119,3,distance,cathedral,localisation_accuracy,3,22,babble,,,babble-reversed_n13_p256-eight-p318-two-p307-five-p245-four-p268-nine-p284-one.wav,89.50118978127546,30,0.251422833938598,4,RX81,5,0.0,0.0,6.0,0,0,6.768328445747802,0.4842994213104248
0,,2024-07-26 15:30:33,sub_119,3,distance,cathedral,localisation_accuracy,3,23,babble,,,babble-reversed_n13_p318-three-p307-one-p256-five-p248-nine-p245-two-p284-eight.wav,91.93899668669388,30,0.278686216584368,7,RX81,8,0.0,0.0,9.0,0,0,10.815249266862171,2.015439748764038
0,,2024-07-26 15:30:36,sub_119,3,distance,cathedral,localisation_accuracy,3,24,babble,,,babble-reversed_n13_p229-three-p256-nine-p318-five-p248-one-p245-eight-p284-two.wav,91.26298829920194,30,-0.4609972301537531,6,RX81,7,0.0,0.0,8.0,0,0,10.390029325513195,1.68735671043396
0,,2024-07-26 15:30:39,sub_119,3,distance,cathedral,localisation_accuracy,3,25,babble,,,babble-reversed_n13_p307-four-p318-three-p256-eight-p284-two-p245-nine-p248-five.wav,86.26367604961987,30,0.0876532220232793,1,RX81,2,0.0,0.0,3.0,0,0,10.82991202346041,1.8435728549957275
0,,2024-07-26 15:30:42,sub_119,3,distance,cathedral,localisation_accuracy,3,26,babble,,,babble-reversed_n13_p229-nine-p318-one-p307-two-p248-eight-p245-five-p284-four.wav,90.42609185776926,30,0.1211968042055503,5,RX81,6,0.0,0.0,7.0,0,0,8.821114369501467,1.6404786109924316
0,,2024-07-26 15:30:44,sub_119,3,distance,cathedral,localisation_accuracy,3,27,babble,,,babble-reversed_n13_p256-four-p229-eight-p307-five-p248-three-p245-one-p284-two.wav,92.13308759162148,30,0.1790438279152207,9,RX81,10,0.0,0.0,11.0,0,0,10.067448680351909,1.296729564666748
0,,2024-07-26 15:30:48,sub_119,3,distance,cathedral,localisation_accuracy,3,28,babble,,,babble-reversed_n13_p318-nine-p256-five-p307-eight-p268-three-p248-one-p245-four.wav,84.14275619385054,30,-0.381120521911614,0,RX81,1,0.0,0.0,2.0,0,0,9.52492668621701,3.0153963565826416
0,,2024-07-26 15:30:51,sub_119,3,distance,cathedral,localisation_accuracy,3,29,babble,,,babble-reversed_n13_p229-eight-p256-nine-p318-four-p245-three-p268-five-p284-two.wav,92.09752560516398,30,0.1163950655229036,8,RX81,9,0.0,0.0,10.0,0,0,10.404692082111438,1.562342405319214
0,,2024-07-26 15:30:54,sub_119,3,distance,cathedral,localisation_accuracy,3,30,babble,,,babble-reversed_n13_p256-four-p307-eight-p318-two-p248-three-p284-nine-p268-one.wav,93.15285128105086,30,0.2156100132616377,10,RX81,11,0.0,0.0,12.0,0,0,11.167155425219942,1.3280036449432373
0,,2024-07-26 15:30:56,sub_119,3,distance,cathedral,localisation_accuracy,3,31,babble,,,babble-reversed_n13_p307-two-p256-four-p318-three-p284-eight-p248-five-p245-nine.wav,88.84152594691656,30,-0.4349394521103664,3,RX81,4,0.0,0.0,5.0,0,0,10.17008797653959,1.562401294708252
0,,2024-07-26 15:30:58,sub_119,3,distance,cathedral,localisation_accuracy,3,32,babble,,,babble-reversed_n13_p318-five-p256-nine-p307-eight-p248-two-p245-four-p284-three.wav,87.47088023123545,30,-0.143879983327215,2,RX81,3,0.0,0.0,4.0,0,0,10.683284457478006,0.9998979568481444
0,,2024-07-26 15:31:01,sub_119,3,distance,cathedral,localisation_accuracy,3,33,babble,,,babble-reversed_n13_p229-one-p318-nine-p256-four-p284-eight-p268-five-p245-two.wav,89.3769032187371,30,0.3262168858802547,3,RX81,4,0.0,0.0,5.0,0,0,11.0791788856305,1.2498650550842283
0,,2024-07-26 15:31:03,sub_119,3,distance,cathedral,localisation_accuracy,3,34,babble,,,babble-reversed_n13_p318-four-p256-five-p229-three-p284-one-p245-eight-p248-nine.wav,85.93593819352719,30,-0.3894657285031146,1,RX81,2,0.0,0.0,3.0,0,0,9.451612903225808,1.62485933303833
0,,2024-07-26 15:31:06,sub_119,3,distance,cathedral,localisation_accuracy,3,35,babble,,,babble-reversed_n13_p229-five-p318-two-p307-eight-p268-three-p248-four-p245-one.wav,89.52777629674826,30,0.287242174662314,4,RX81,5,0.0,0.0,6.0,0,0,10.44868035190616,1.2655057907104492
0,,2024-07-26 15:31:09,sub_119,3,distance,cathedral,localisation_accuracy,3,36,babble,,,babble-reversed_n13_p318-five-p256-nine-p307-two-p245-eight-p248-one-p284-four.wav,91.75828780601732,30,-0.3608289664266595,8,RX81,9,0.0,0.0,10.0,0,0,10.75659824046921,2.3904311656951904
0,,2024-07-26 15:31:12,sub_119,3,distance,cathedral,localisation_accuracy,3,37,babble,,,babble-reversed_n13_p229-three-p307-one-p318-two-p245-eight-p268-five-p284-four.wav,91.5503572634907,30,-0.0549234687311428,6,RX81,7,0.0,0.0,8.0,0,0,8.557184750733139,1.4686121940612793
0,,2024-07-26 15:31:15,sub_119,3,distance,cathedral,localisation_accuracy,3,38,babble,,,babble-reversed_n13_p307-four-p318-three-p256-eight-p284-two-p245-nine-p248-five.wav,93.24014776930966,30,0.3394709356726252,10,RX81,11,0.0,0.0,12.0,0,0,8.087976539589443,2.390411615371704
0,,2024-07-26 15:31:18,sub_119,3,distance,cathedral,localisation_accuracy,3,39,babble,,,babble-reversed_n13_p307-two-p256-four-p318-three-p284-eight-p248-five-p245-nine.wav,90.11759133523876,30,-0.3184144095785162,5,RX81,6,0.0,0.0,7.0,0,0,9.583577712609973,1.281167984008789
0,,2024-07-26 15:31:20,sub_119,3,distance,cathedral,localisation_accuracy,3,40,babble,,,babble-reversed_n13_p318-three-p307-one-p256-five-p248-nine-p245-two-p284-eight.wav,91.90864248307328,30,-0.1367069192543237,9,RX81,10,0.0,0.0,11.0,0,0,9.612903225806452,1.1561198234558103
0,,2024-07-26 15:31:24,sub_119,3,distance,cathedral,localisation_accuracy,3,41,babble,,,babble-reversed_n13_p229-eight-p256-nine-p318-four-p245-three-p268-five-p284-two.wav,84.71798016956751,30,0.4752524010071769,0,RX81,1,0.0,0.0,2.0,0,0,7.618768328445748,2.24981689453125
0,,2024-07-26 15:31:26,sub_119,3,distance,cathedral,localisation_accuracy,3,42,babble,,,babble-reversed_n13_p229-three-p256-nine-p318-five-p248-one-p245-eight-p284-two.wav,91.72287913162744,30,-0.0211583220088571,7,RX81,8,0.0,0.0,9.0,0,0,8.469208211143696,1.5467407703399658
0,,2024-07-26 15:31:28,sub_119,3,distance,cathedral,localisation_accuracy,3,43,babble,,,babble-reversed_n13_p318-five-p229-four-p256-eight-p284-one-p245-three-p248-two.wav,87.40563630487173,30,-0.2377433635162837,2,RX81,3,0.0,0.0,4.0,0,0,7.560117302052786,1.124939203262329
0,,2024-07-26 15:31:31,sub_119,3,distance,cathedral,localisation_accuracy,3,44,babble,,,babble-reversed_n13_p229-five-p318-two-p307-eight-p268-three-p248-four-p245-one.wav,91.79741827831614,30,0.2986520160332148,6,RX81,7,0.0,0.0,8.0,0,0,9.950146627565983,1.546733856201172
0,,2024-07-26 15:31:34,sub_119,3,distance,cathedral,localisation_accuracy,3,45,babble,,,babble-reversed_n13_p256-eight-p318-two-p307-five-p245-four-p268-nine-p284-one.wav,87.81578645190645,30,0.3572614720894315,2,RX81,3,0.0,0.0,4.0,0,0,9.099706744868037,1.4217197895050049
0,,2024-07-26 15:31:36,sub_119,3,distance,cathedral,localisation_accuracy,3,46,babble,,,babble-reversed_n13_p229-two-p307-five-p318-four-p284-one-p248-nine-p268-eight.wav,86.26333312925698,30,0.0871500040862914,1,RX81,2,0.0,0.0,3.0,0,0,9.55425219941349,1.4061250686645508
0,,2024-07-26 15:31:39,sub_119,3,distance,cathedral,localisation_accuracy,3,47,babble,,,babble-reversed_n13_p307-one-p318-five-p229-four-p268-eight-p284-two-p245-three.wav,89.03141887564502,30,-0.1671764488185824,3,RX81,4,0.0,0.0,5.0,0,0,8.850439882697948,1.499861240386963
0,,2024-07-26 15:31:41,sub_119,3,distance,cathedral,localisation_accuracy,3,48,babble,,,babble-reversed_n13_p256-five-p229-one-p318-three-p248-nine-p284-eight-p268-two.wav,93.27877880374568,30,0.3944446464980673,10,RX81,11,0.0,0.0,12.0,0,0,10.258064516129034,1.2811131477355957
0,,2024-07-26 15:31:44,sub_119,3,distance,cathedral,localisation_accuracy,3,49,babble,,,babble-reversed_n13_p307-two-p256-four-p318-three-p284-eight-p248-five-p245-nine.wav,89.61671975899011,30,0.4073820200597704,4,RX81,5,0.0,0.0,6.0,0,0,9.568914956011731,1.7029814720153809
0,,2024-07-26 15:31:46,sub_119,3,distance,cathedral,localisation_accuracy,3,50,babble,,,babble-reversed_n13_p318-five-p256-nine-p307-two-p245-eight-p248-one-p284-four.wav,91.71965756331328,30,-0.4146903512409589,8,RX81,9,0.0,0.0,10.0,0,0,10.4633431085044,1.3280043601989746
0,,2024-07-26 15:31:49,sub_119,3,distance,cathedral,localisation_accuracy,3,51,babble,,,babble-reversed_n13_p307-five-p229-three-p318-nine-p245-four-p268-eight-p284-two.wav,91.76215201426186,30,0.0331077975856878,7,RX81,8,0.0,0.0,9.0,0,0,10.80058651026393,1.546715259552002
0,,2024-07-26 15:31:52,sub_119,3,distance,cathedral,localisation_accuracy,3,52,babble,,,babble-reversed_n13_p307-four-p318-three-p256-eight-p284-two-p245-nine-p248-five.wav,91.79838935071348,30,-0.2905995648864911,9,RX81,10,0.0,0.0,11.0,0,0,9.407624633431086,1.406118392944336
0,,2024-07-26 15:31:56,sub_119,3,distance,cathedral,localisation_accuracy,3,53,babble,,,babble-reversed_n13_p229-nine-p318-one-p307-two-p248-eight-p245-five-p284-four.wav,84.07880388805842,30,-0.4748314357785872,0,RX81,1,0.0,0.0,2.0,0,0,4.085043988269795,3.093498706817627
0,,2024-07-26 15:31:59,sub_119,3,distance,cathedral,localisation_accuracy,3,54,babble,,,babble-reversed_n13_p318-five-p229-three-p256-four-p268-eight-p248-one-p245-nine.wav,90.5456383657872,30,0.2932949283814374,5,RX81,6,0.0,0.0,7.0,0,0,8.087976539589443,1.7342429161071775
0,,2024-07-26 15:32:52,sub_119,3,distance,cathedral,localisation_accuracy,4,0,babble,,,babble-reversed_n13_p256-nine-p307-four-p229-one-p284-three-p248-two-p245-five.wav,91.8107743196794,30,0.1004287859294938,7,RX81,8,0.0,0.0,9.0,0,0,9.480938416422289,2.9997501373291016
0,,2024-07-26 15:32:55,sub_119,3,distance,cathedral,localisation_accuracy,4,1,babble,,,babble-reversed_n13_p307-two-p256-four-p318-three-p284-eight-p248-five-p245-nine.wav,86.40468894925971,30,0.2952973343196167,1,RX81,2,0.0,0.0,3.0,0,0,7.545454545454547,1.5467400550842283
0,,2024-07-26 15:32:58,sub_119,3,distance,cathedral,localisation_accuracy,4,2,babble,,,babble-reversed_n13_p229-five-p256-one-p318-three-p248-nine-p268-four-p284-eight.wav,90.42952553969418,30,0.1261262387770962,5,RX81,6,0.0,0.0,7.0,0,0,8.982404692082111,1.5154926776885986
0,,2024-07-26 15:33:00,sub_119,3,distance,cathedral,localisation_accuracy,4,3,babble,,,babble-reversed_n13_p256-five-p229-one-p318-three-p248-nine-p284-eight-p268-two.wav,92.88267383393055,30,-0.1645370303059834,10,RX81,11,0.0,0.0,12.0,0,0,9.583577712609973,1.1561179161071775
0,,2024-07-26 15:33:03,sub_119,3,distance,cathedral,localisation_accuracy,4,4,babble,,,babble-reversed_n13_p318-five-p229-four-p256-eight-p284-one-p245-three-p248-two.wav,84.32205890157371,30,-0.1167947822741561,0,RX81,1,0.0,0.0,2.0,0,0,7.398826979472142,1.390495777130127
0,,2024-07-26 15:33:05,sub_119,3,distance,cathedral,localisation_accuracy,4,5,babble,,,babble-reversed_n13_p318-five-p229-three-p256-four-p268-eight-p248-one-p245-nine.wav,91.9003392607716,30,0.4471739403546568,6,RX81,7,0.0,0.0,8.0,0,0,8.659824046920821,0.9842925071716307
0,,2024-07-26 15:33:07,sub_119,3,distance,cathedral,localisation_accuracy,4,6,babble,,,babble-reversed_n13_p229-two-p307-five-p318-four-p284-one-p248-nine-p268-eight.wav,89.21794139005023,30,0.0981947736977262,3,RX81,4,0.0,0.0,5.0,0,0,9.466275659824047,1.0312066078186035
0,,2024-07-26 15:33:09,sub_119,3,distance,cathedral,localisation_accuracy,4,7,babble,,,babble-reversed_n13_p307-five-p229-two-p318-four-p248-three-p245-nine-p268-eight.wav,89.61042241050609,30,0.3988602606645961,4,RX81,5,0.0,0.0,6.0,0,0,8.645161290322582,1.4373977184295654
0,,2024-07-26 15:33:12,sub_119,3,distance,cathedral,localisation_accuracy,4,8,babble,,,babble-reversed_n13_p229-five-p256-three-p318-nine-p248-two-p284-four-p268-one.wav,92.05963218594796,30,0.0627094005346936,8,RX81,9,0.0,0.0,10.0,0,0,10.47800586510264,1.6717586517333984
0,,2024-07-26 15:33:15,sub_119,3,distance,cathedral,localisation_accuracy,4,9,babble,,,babble-reversed_n13_p318-three-p229-one-p256-eight-p245-five-p248-four-p284-nine.wav,92.02390321287346,30,0.0250277422376923,9,RX81,10,0.0,0.0,11.0,0,0,9.304985337243403,1.3436284065246582
0,,2024-07-26 15:33:17,sub_119,3,distance,cathedral,localisation_accuracy,4,10,babble,,,babble-reversed_n13_p229-five-p256-three-p318-nine-p248-two-p284-four-p268-one.wav,87.7933293153602,30,0.3243772213664658,2,RX81,3,0.0,0.0,4.0,0,0,8.410557184750735,1.3279812335968018
0,,2024-07-26 15:33:20,sub_119,3,distance,cathedral,localisation_accuracy,4,11,babble,,,babble-reversed_n13_p307-nine-p318-two-p256-one-p245-three-p268-four-p248-eight.wav,91.91463318488913,30,0.4678585344913866,6,RX81,7,0.0,0.0,8.0,0,0,9.979472140762464,1.3904998302459717
0,,2024-07-26 15:33:22,sub_119,3,distance,cathedral,localisation_accuracy,4,12,babble,,,babble-reversed_n13_p256-two-p307-five-p318-nine-p248-eight-p245-four-p284-one.wav,89.08186951544587,30,-0.0956305032759264,3,RX81,4,0.0,0.0,5.0,0,0,8.322580645161292,1.359252691268921
0,,2024-07-26 15:33:25,sub_119,3,distance,cathedral,localisation_accuracy,4,13,babble,,,babble-reversed_n13_p256-four-p307-eight-p318-two-p248-three-p284-nine-p268-one.wav,86.11177824745113,30,-0.1344271725556988,1,RX81,2,0.0,0.0,3.0,0,0,6.093841642228739,1.5779621601104736
0,,2024-07-26 15:33:28,sub_119,3,distance,cathedral,localisation_accuracy,4,14,babble,,,babble-reversed_n13_p229-three-p256-one-p307-two-p284-eight-p268-five-p248-nine.wav,87.91215462457747,30,0.4987798534629132,2,RX81,3,0.0,0.0,4.0,0,0,7.750733137829913,1.9998104572296145
0,,2024-07-26 15:33:30,sub_119,3,distance,cathedral,localisation_accuracy,4,15,babble,,,babble-reversed_n13_p229-five-p256-three-p318-nine-p248-two-p284-four-p268-one.wav,90.6490193020713,30,0.442913861094256,5,RX81,6,0.0,0.0,7.0,0,0,9.187683284457478,1.2030482292175293
0,,2024-07-26 15:33:33,sub_119,3,distance,cathedral,localisation_accuracy,4,16,babble,,,babble-reversed_n13_p318-five-p229-three-p256-four-p268-eight-p248-one-p245-nine.wav,91.88535252852034,30,-0.1692815889828315,9,RX81,10,0.0,0.0,11.0,0,0,8.527859237536658,1.515474557876587
0,,2024-07-26 15:33:35,sub_119,3,distance,cathedral,localisation_accuracy,4,17,babble,,,babble-reversed_n13_p307-four-p318-three-p256-eight-p284-two-p245-nine-p248-five.wav,91.6622882656844,30,-0.4944986689236281,8,RX81,9,0.0,0.0,10.0,0,0,10.008797653958943,1.1405155658721924
0,,2024-07-26 15:33:37,sub_119,3,distance,cathedral,localisation_accuracy,4,18,babble,,,babble-reversed_n13_p229-two-p318-eight-p256-three-p268-one-p248-nine-p284-five.wav,91.92931687734638,30,0.2651923812160169,7,RX81,8,0.0,0.0,9.0,0,0,9.334310850439884,1.2186377048492432
0,,2024-07-26 15:33:41,sub_119,3,distance,cathedral,localisation_accuracy,4,19,babble,,,babble-reversed_n13_p307-two-p229-one-p256-five-p248-nine-p284-three-p268-eight.wav,84.4368015495518,30,0.0535938146376711,0,RX81,1,0.0,0.0,2.0,0,0,3.8944281524926687,2.3904387950897217
0,,2024-07-26 15:33:44,sub_119,3,distance,cathedral,localisation_accuracy,4,20,babble,,,babble-reversed_n13_p256-four-p229-two-p318-five-p268-one-p248-eight-p245-three.wav,89.17534826404079,30,-0.1841493172257831,4,RX81,5,0.0,0.0,6.0,0,0,7.824046920821115,1.9060726165771484
0,,2024-07-26 15:33:47,sub_119,3,distance,cathedral,localisation_accuracy,4,21,babble,,,babble-reversed_n13_p229-two-p318-eight-p256-three-p268-one-p248-nine-p284-five.wav,92.69975842630942,30,-0.4191852382628407,10,RX81,11,0.0,0.0,12.0,0,0,9.55425219941349,1.59360933303833
0,,2024-07-26 15:33:49,sub_119,3,distance,cathedral,localisation_accuracy,4,22,babble,,,babble-reversed_n13_p318-nine-p256-five-p307-eight-p268-three-p248-one-p245-four.wav,85.98228760450041,30,-0.3224526464958264,1,RX81,2,0.0,0.0,3.0,0,0,8.87976539589443,1.1873865127563477
0,,2024-07-26 15:33:51,sub_119,3,distance,cathedral,localisation_accuracy,4,23,babble,,,babble-reversed_n13_p229-nine-p318-one-p307-two-p248-eight-p245-five-p284-four.wav,91.57502662577024,30,-0.2245786160781597,7,RX81,8,0.0,0.0,9.0,0,0,10.50733137829912,1.3280038833618164
0,,2024-07-26 15:33:54,sub_119,3,distance,cathedral,localisation_accuracy,4,24,babble,,,babble-reversed_n13_p229-three-p256-nine-p318-five-p248-one-p245-eight-p284-two.wav,92.23814839162304,30,0.3279889691836027,9,RX81,10,0.0,0.0,11.0,0,0,10.917888563049852,1.343623399734497
0,,2024-07-26 15:33:56,sub_119,3,distance,cathedral,localisation_accuracy,4,25,babble,,,babble-reversed_n13_p256-three-p318-one-p307-two-p284-nine-p268-four-p245-eight.wav,91.88656340191562,30,0.4272523218956623,6,RX81,7,0.0,0.0,8.0,0,0,9.451612903225808,1.1717395782470703
0,,2024-07-26 15:33:58,sub_119,3,distance,cathedral,localisation_accuracy,4,26,babble,,,babble-reversed_n13_p229-nine-p307-five-p256-two-p248-three-p245-one-p268-eight.wav,89.04760631511175,30,-0.353193433369281,4,RX81,5,0.0,0.0,6.0,0,0,10.111436950146627,1.03114652633667
0,,2024-07-26 15:34:01,sub_119,3,distance,cathedral,localisation_accuracy,4,27,babble,,,babble-reversed_n13_p256-eight-p318-two-p307-five-p245-four-p268-nine-p284-one.wav,92.93662500120551,30,-0.0890103681524232,10,RX81,11,0.0,0.0,12.0,0,0,8.87976539589443,1.171823024749756
0,,2024-07-26 15:34:04,sub_119,3,distance,cathedral,localisation_accuracy,4,28,babble,,,babble-reversed_n13_p307-four-p318-three-p256-eight-p284-two-p245-nine-p248-five.wav,92.10308424012844,30,0.124278344710473,8,RX81,9,0.0,0.0,10.0,0,0,9.466275659824047,2.0467636585235596
0,,2024-07-26 15:34:08,sub_119,3,distance,cathedral,localisation_accuracy,4,29,babble,,,babble-reversed_n13_p229-three-p256-one-p307-two-p284-eight-p268-five-p248-nine.wav,84.60320443431127,30,0.3024235330967588,0,RX81,1,0.0,0.0,2.0,0,0,2.5014662756598245,3.046618700027466
