Unnamed: 0,event_id,subject_id,timestamp,session_index,plane,setup,task,block,trial_index,stim_number,stim_type,stim_country_ids,stim_sexes,stim_talker_ids,speaker_ids,stim_level,resp_number,is_correct,speaker_distance_mean,speaker_distance_st_dev,reaction_time,spectral_coverage
0,,sub_109,2024-07-01 14:21:57,3,distance,cathedral,numerosity_judgement,1,0,5,countries_forward,"['_Cuba_', '_Mali_', '_Syria_', '_Sudan_', '_Belgium_']","['m', 'm', 'm', 'f', 'f']","['p256', 'p307', 'p318', 'p268', 'p284']","[5, 4, 2, 1, 9]","[90.34149293193902, 89.31368318402099, 87.57049330475357, 86.2038576498559, 92.00610777531934]",3.0,False,6.2,3.1144823004794877,4.31024169921875,0.8978436045851776
0,,sub_109,2024-07-01 14:22:01,3,distance,cathedral,numerosity_judgement,1,1,3,countries_forward,"['_Cuba_', '_Yemen_', '_Oman_']","['f', 'f', 'm']","['p245', 'p268', 'p256']","[7, 6, 9]","[91.73820004985969, 91.58892582949886, 92.00610777531934]",3.0,True,9.333333333333334,1.5275252316519468,3.3086562156677246,0.6788446260356372
0,,sub_109,2024-07-01 14:22:07,3,distance,cathedral,numerosity_judgement,1,2,4,countries_forward,"['_Britain_', '_Sudan_', '_Belgium_', '_Syria_']","['f', 'f', 'm', 'm']","['p268', 'p245', 'p307', 'p318']","[7, 2, 1, 8]","[91.73820004985969, 87.57049330475357, 86.2038576498559, 92.0152836843556]",2.0,False,6.5,3.5118845842842465,4.108660697937012,0.9344001815911928
0,,sub_109,2024-07-01 14:22:12,3,distance,cathedral,numerosity_judgement,1,3,2,countries_forward,"['_Syria_', '_Peru_']","['f', 'f']","['p284', 'p268']","[4, 1]","[89.31368318402099, 86.2038576498559]",2.0,True,4.5,2.1213203435596424,2.809213876724243,0.9263420724094882
0,,sub_109,2024-07-01 14:22:18,3,distance,cathedral,numerosity_judgement,1,4,6,countries_forward,"['_Sudan_', '_Cuba_', '_Britain_', '_Belgium_', '_Yemen_', '_Syria_']","['m', 'm', 'f', 'f', 'm', 'm']","['p307', 'p229', 'p245', 'p284', 'p256', 'p318']","[3, 6, 1, 10, 9, 2]","[89.14911522239515, 91.58892582949886, 86.2038576498559, 93.00003341222717, 92.00610777531934, 87.57049330475357]",5.0,False,7.166666666666667,3.763863263545405,4.0458104610443115,0.8319940982862332
0,,sub_109,2024-07-01 14:22:23,3,distance,cathedral,numerosity_judgement,1,5,3,countries_forward,"['_Yemen_', '_Congo_', '_Peru_']","['f', 'f', 'm']","['p284', 'p245', 'p318']","[2, 5, 8]","[87.57049330475357, 90.34149293193902, 92.0152836843556]",3.0,True,7.0,3.0,3.422647714614868,0.8493020088525707
0,,sub_109,2024-07-01 14:22:27,3,distance,cathedral,numerosity_judgement,1,6,5,countries_forward,"['_Sudan_', '_Yemen_', '_Cuba_', '_Britain_', '_Belgium_']","['f', 'm', 'm', 'f', 'f']","['p268', 'p318', 'p307', 'p248', 'p284']","[5, 4, 6, 0, 1]","[90.34149293193902, 89.31368318402099, 91.58892582949886, 84.40078082039426, 86.2038576498559]",6.0,False,5.2,2.588435821108957,1.80872106552124,0.9300760413119964
0,,sub_109,2024-07-01 14:22:32,3,distance,cathedral,numerosity_judgement,1,7,2,countries_forward,"['_Tonga_', '_Congo_']","['m', 'f']","['p256', 'p245']","[5, 8]","[90.34149293193902, 92.0152836843556]",2.0,True,8.5,2.1213203435596424,3.4370663166046143,0.7441720576552038
0,,sub_109,2024-07-01 14:22:35,3,distance,cathedral,numerosity_judgement,1,8,4,countries_forward,"['_Togo_', '_Syria_', '_Sudan_', '_Tonga_']","['m', 'm', 'f', 'f']","['p256', 'p307', 'p245', 'p248']","[10, 3, 0, 1]","[93.00003341222717, 89.14911522239515, 84.40078082039426, 86.2038576498559]",3.0,False,5.5,4.509249752822894,2.1248531341552734,0.8923050732039496
0,,sub_109,2024-07-01 14:22:39,3,distance,cathedral,numerosity_judgement,1,9,6,countries_forward,"['_Cuba_', '_Congo_', '_Togo_', '_Yemen_', '_Mali_', '_Peru_']","['m', 'f', 'f', 'f', 'm', 'f']","['p307', 'p245', 'p268', 'p248', 'p256', 'p284']","[4, 2, 10, 3, 6, 8]","[89.31368318402099, 87.57049330475357, 93.00003341222717, 89.14911522239515, 91.58892582949886, 92.0152836843556]",5.0,False,7.5,3.082207001484488,1.999861240386963,0.721632050845534
0,,sub_109,2024-07-01 14:22:44,3,distance,cathedral,numerosity_judgement,1,10,4,countries_forward,"['_Britain_', '_Mali_', '_Peru_', '_Oman_']","['f', 'f', 'm', 'm']","['p268', 'p248', 'p318', 'p229']","[0, 4, 1, 3]","[84.40078082039426, 89.31368318402099, 86.2038576498559, 89.14911522239515]",3.0,False,4.0,1.8257418583505536,2.611130952835083,0.6887413460447168
0,,sub_109,2024-07-01 14:22:50,3,distance,cathedral,numerosity_judgement,1,11,6,countries_forward,"['_Yemen_', '_Cuba_', '_Tonga_', '_Togo_', '_Peru_', '_Britain_']","['m', 'f', 'f', 'f', 'f', 'm']","['p256', 'p245', 'p248', 'p268', 'p284', 'p307']","[6, 10, 8, 5, 7, 3]","[91.58892582949886, 93.00003341222717, 92.0152836843556, 90.34149293193902, 91.73820004985969, 89.14911522239515]",4.0,False,8.5,2.4289915602982237,3.984151840209961,0.756996935648621
0,,sub_109,2024-07-01 14:22:53,3,distance,cathedral,numerosity_judgement,1,12,2,countries_forward,"['_Syria_', '_Tonga_']","['f', 'm']","['p245', 'p318']","[10, 2]","[93.00003341222717, 87.57049330475357]",2.0,True,8.0,5.656854249492381,1.798642635345459,0.9000794461468619
0,,sub_109,2024-07-01 14:22:57,3,distance,cathedral,numerosity_judgement,1,13,3,countries_forward,"['_Britain_', '_Mali_', '_Cuba_']","['m', 'm', 'm']","['p256', 'p229', 'p318']","[8, 3, 7]","[92.0152836843556, 89.14911522239515, 91.73820004985969]",3.0,True,8.0,2.6457513110645907,1.8096303939819336,0.7618318011576438
0,,sub_109,2024-07-01 14:23:00,3,distance,cathedral,numerosity_judgement,1,14,5,countries_forward,"['_Tonga_', '_Togo_', '_Peru_', '_Mali_', '_Britain_']","['f', 'f', 'm', 'm', 'm']","['p268', 'p245', 'p256', 'p229', 'p307']","[9, 1, 10, 4, 5]","[92.00610777531934, 86.2038576498559, 93.00003341222717, 89.31368318402099, 90.34149293193902]",3.0,False,7.8,3.7013511046643495,1.874870777130127,0.7712064464873454
0,,sub_109,2024-07-01 14:23:05,3,distance,cathedral,numerosity_judgement,1,15,6,countries_forward,"['_Yemen_', '_Belgium_', '_Oman_', '_Cuba_', '_Mali_', '_Peru_']","['m', 'm', 'm', 'f', 'f', 'f']","['p318', 'p307', 'p256', 'p245', 'p248', 'p268']","[8, 0, 1, 3, 6, 4]","[92.0152836843556, 84.40078082039426, 86.2038576498559, 89.14911522239515, 91.58892582949886, 89.31368318402099]",3.0,False,5.666666666666667,3.011090610836324,2.374836683273315,0.7344796277380548
0,,sub_109,2024-07-01 14:23:09,3,distance,cathedral,numerosity_judgement,1,16,4,countries_forward,"['_Yemen_', '_Oman_', '_Peru_', '_Togo_']","['m', 'm', 'f', 'm']","['p229', 'p307', 'p268', 'p256']","[9, 5, 3, 10]","[92.00610777531934, 90.34149293193902, 89.14911522239515, 93.00003341222717]",2.0,False,8.75,3.304037933599835,2.7208375930786133,0.6414935875610033
0,,sub_109,2024-07-01 14:23:14,3,distance,cathedral,numerosity_judgement,1,17,5,countries_forward,"['_Togo_', '_Cuba_', '_Congo_', '_Sudan_', '_Yemen_']","['f', 'm', 'm', 'f', 'm']","['p245', 'p229', 'p307', 'p268', 'p256']","[2, 9, 7, 6, 10]","[87.57049330475357, 92.00610777531934, 91.73820004985969, 91.58892582949886, 93.00003341222717]",3.0,False,8.8,3.1144823004794873,3.110196113586426,0.8590057882192713
0,,sub_109,2024-07-01 14:23:21,3,distance,cathedral,numerosity_judgement,1,18,3,countries_forward,"['_Oman_', '_Mali_', '_Peru_']","['m', 'm', 'm']","['p307', 'p256', 'p318']","[5, 6, 10]","[90.34149293193902, 91.58892582949886, 93.00003341222717]",2.0,False,9.0,2.6457513110645907,4.797504425048828,0.6453864487572353
0,,sub_109,2024-07-01 14:23:25,3,distance,cathedral,numerosity_judgement,1,19,2,countries_forward,"['_Peru_', '_Yemen_']","['m', 'm']","['p318', 'p256']","[6, 4]","[91.58892582949886, 89.31368318402099]",2.0,True,7.0,1.4142135623730951,3.364795207977295,0.6299171490182726
0,,sub_109,2024-07-01 14:23:29,3,distance,cathedral,numerosity_judgement,1,20,3,countries_forward,"['_Peru_', '_Yemen_', '_Oman_']","['m', 'm', 'm']","['p307', 'p256', 'p229']","[3, 1, 10]","[89.14911522239515, 86.2038576498559, 93.00003341222717]",2.0,False,6.666666666666667,4.725815626252608,2.1796140670776367,0.6106230847803882
0,,sub_109,2024-07-01 14:23:33,3,distance,cathedral,numerosity_judgement,1,21,5,countries_forward,"['_Tonga_', '_Yemen_', '_Peru_', '_Mali_', '_Oman_']","['m', 'f', 'f', 'f', 'm']","['p229', 'p268', 'p248', 'p284', 'p307']","[10, 8, 6, 2, 4]","[93.00003341222717, 92.0152836843556, 91.58892582949886, 87.57049330475357, 89.31368318402099]",3.0,False,8.0,3.1622776601683795,1.7966010570526123,0.6974804221995233
0,,sub_109,2024-07-01 14:23:37,3,distance,cathedral,numerosity_judgement,1,22,6,countries_forward,"['_Mali_', '_Togo_', '_Tonga_', '_Belgium_', '_Oman_', '_Cuba_']","['m', 'f', 'f', 'm', 'm', 'f']","['p256', 'p284', 'p248', 'p229', 'p318', 'p268']","[3, 1, 6, 7, 0, 8]","[89.14911522239515, 86.2038576498559, 91.58892582949886, 91.73820004985969, 84.40078082039426, 92.0152836843556]",3.0,False,6.166666666666667,3.3115957885386114,2.297802448272705,0.8013505844966519
0,,sub_109,2024-07-01 14:23:41,3,distance,cathedral,numerosity_judgement,1,23,2,countries_forward,"['_Congo_', '_Yemen_']","['m', 'm']","['p307', 'p318']","[6, 0]","[91.58892582949886, 84.40078082039426]",2.0,True,5.0,4.242640687119285,1.9998626708984375,0.7728521166723414
0,,sub_109,2024-07-01 14:23:46,3,distance,cathedral,numerosity_judgement,1,24,4,countries_forward,"['_Belgium_', '_Japan_', '_Britain_', '_Peru_']","['f', 'f', 'f', 'm']","['p245', 'p284', 'p248', 'p256']","[8, 4, 1, 5]","[92.0152836843556, 89.31368318402099, 86.2038576498559, 90.34149293193902]",3.0,False,6.5,2.886751345948129,3.0623157024383545,0.911565089093179
0,,sub_109,2024-07-01 14:23:48,3,distance,cathedral,numerosity_judgement,1,25,2,countries_forward,"['_Cuba_', '_Congo_']","['f', 'm']","['p284', 'p256']","[7, 0]","[91.73820004985969, 84.40078082039426]",2.0,True,5.5,4.949747468305833,1.4401464462280271,0.8301781863579616
0,,sub_109,2024-07-01 14:23:53,3,distance,cathedral,numerosity_judgement,1,26,3,countries_forward,"['_Togo_', '_Peru_', '_Oman_']","['f', 'f', 'm']","['p245', 'p268', 'p229']","[3, 6, 8]","[89.14911522239515, 91.58892582949886, 92.0152836843556]",2.0,False,7.666666666666667,2.516611478423583,3.3589401245117188,0.706514584042674
0,,sub_109,2024-07-01 14:23:59,3,distance,cathedral,numerosity_judgement,1,27,6,countries_forward,"['_Oman_', '_Cuba_', '_Mali_', '_Britain_', '_Togo_', '_Tonga_']","['m', 'm', 'm', 'f', 'm', 'f']","['p229', 'p318', 'p256', 'p248', 'p307', 'p245']","[10, 3, 4, 9, 8, 5]","[93.00003341222717, 89.14911522239515, 89.31368318402099, 92.00610777531934, 92.0152836843556, 90.34149293193902]",4.0,False,8.5,2.8809720581775866,3.985114336013794,0.7045851776188855
0,,sub_109,2024-07-01 14:24:04,3,distance,cathedral,numerosity_judgement,1,28,5,countries_forward,"['_Belgium_', '_Togo_', '_Mali_', '_Cuba_', '_Oman_']","['m', 'f', 'f', 'm', 'f']","['p307', 'p248', 'p245', 'p229', 'p284']","[10, 5, 7, 0, 9]","[93.00003341222717, 90.34149293193902, 91.73820004985969, 84.40078082039426, 92.00610777531934]",5.0,True,8.2,3.96232255123179,2.734241247177124,0.7544660083985927
0,,sub_109,2024-07-01 14:24:08,3,distance,cathedral,numerosity_judgement,1,29,4,countries_forward,"['_Peru_', '_Britain_', '_Oman_', '_Mali_']","['f', 'm', 'm', 'f']","['p284', 'p229', 'p256', 'p245']","[3, 2, 7, 10]","[89.14911522239515, 87.57049330475357, 91.73820004985969, 93.00003341222717]",4.0,True,7.5,3.696845502136472,2.3616302013397217,0.7668369084099421
0,,sub_109,2024-07-01 14:24:11,3,distance,cathedral,numerosity_judgement,1,30,2,countries_forward,"['_Tonga_', '_Peru_']","['m', 'f']","['p229', 'p268']","[10, 3]","[93.00003341222717, 89.14911522239515]",2.0,True,8.5,4.949747468305833,1.8737635612487793,0.7809215753035977
0,,sub_109,2024-07-01 14:24:16,3,distance,cathedral,numerosity_judgement,1,31,5,countries_forward,"['_Britain_', '_Peru_', '_Togo_', '_Mali_', '_Sudan_']","['m', 'f', 'f', 'm', 'm']","['p256', 'p248', 'p268', 'p307', 'p229']","[3, 4, 10, 2, 0]","[89.14911522239515, 89.31368318402099, 93.00003341222717, 87.57049330475357, 84.40078082039426]",3.0,False,5.8,3.7682887362833544,2.4998269081115723,0.9330609465440928
0,,sub_109,2024-07-01 14:24:20,3,distance,cathedral,numerosity_judgement,1,32,3,countries_forward,"['_Congo_', '_Togo_', '_Yemen_']","['f', 'f', 'f']","['p268', 'p248', 'p245']","[5, 9, 4]","[90.34149293193902, 92.00610777531934, 89.31368318402099]",3.0,True,8.0,2.6457513110645907,3.062288522720337,0.8636477130859154
0,,sub_109,2024-07-01 14:24:24,3,distance,cathedral,numerosity_judgement,1,33,4,countries_forward,"['_Yemen_', '_Tonga_', '_Belgium_', '_Mali_']","['m', 'f', 'm', 'f']","['p229', 'p248', 'p256', 'p284']","[3, 10, 9, 1]","[89.14911522239515, 93.00003341222717, 92.00610777531934, 86.2038576498559]",3.0,False,7.75,4.425306015783918,1.6278095245361328,0.8809102258540461
0,,sub_109,2024-07-01 14:24:29,3,distance,cathedral,numerosity_judgement,1,34,6,countries_forward,"['_Togo_', '_Peru_', '_Belgium_', '_Cuba_', '_Japan_', '_Sudan_']","['f', 'f', 'f', 'f', 'm', 'm']","['p268', 'p245', 'p248', 'p284', 'p318', 'p307']","[10, 2, 8, 7, 3, 0]","[93.00003341222717, 87.57049330475357, 92.0152836843556, 91.73820004985969, 89.14911522239515, 84.40078082039426]",4.0,False,7.0,3.898717737923586,2.7357912063598633,0.914856429463171
0,,sub_109,2024-07-01 14:24:35,3,distance,cathedral,numerosity_judgement,1,35,5,countries_forward,"['_Tonga_', '_Yemen_', '_Peru_', '_Congo_', '_Oman_']","['f', 'f', 'm', 'f', 'f']","['p284', 'p245', 'p307', 'p268', 'p248']","[3, 1, 8, 5, 2]","[89.14911522239515, 86.2038576498559, 92.0152836843556, 90.34149293193902, 87.57049330475357]",4.0,False,5.8,2.7748873851023212,4.295721530914307,0.8189989785495404
0,,sub_109,2024-07-01 14:24:39,3,distance,cathedral,numerosity_judgement,1,36,3,countries_forward,"['_Togo_', '_Congo_', '_Tonga_']","['f', 'm', 'm']","['p245', 'p307', 'p256']","[1, 3, 5]","[86.2038576498559, 89.14911522239515, 90.34149293193902]",2.0,False,5.0,2.0,2.2353272438049316,0.7565543071161048
0,,sub_109,2024-07-01 14:24:42,3,distance,cathedral,numerosity_judgement,1,37,6,countries_forward,"['_Tonga_', '_Togo_', '_Cuba_', '_Yemen_', '_Japan_', '_Oman_']","['m', 'f', 'f', 'f', 'm', 'f']","['p318', 'p245', 'p268', 'p248', 'p256', 'p284']","[0, 9, 6, 7, 2, 3]","[84.40078082039426, 92.00610777531934, 91.58892582949886, 91.73820004985969, 87.57049330475357, 89.14911522239515]",3.0,False,6.5,3.391164991562634,1.8601505756378176,0.7740551583248212
0,,sub_109,2024-07-01 14:24:45,3,distance,cathedral,numerosity_judgement,1,38,2,countries_forward,"['_Oman_', '_Britain_']","['f', 'm']","['p245', 'p307']","[7, 6]","[91.73820004985969, 91.58892582949886]",2.0,True,8.5,0.7071067811865476,1.4998974800109863,0.6788105776869822
0,,sub_109,2024-07-01 14:24:50,3,distance,cathedral,numerosity_judgement,1,39,4,countries_forward,"['_Oman_', '_Cuba_', '_Britain_', '_Sudan_']","['m', 'f', 'm', 'm']","['p229', 'p268', 'p256', 'p307']","[9, 3, 6, 4]","[92.00610777531934, 89.14911522239515, 91.58892582949886, 89.31368318402099]",3.0,False,7.5,2.6457513110645907,2.803800344467163,0.7387583702190443
0,,sub_109,2024-07-01 14:24:54,3,distance,cathedral,numerosity_judgement,1,40,6,countries_forward,"['_Cuba_', '_Togo_', '_Belgium_', '_Britain_', '_Sudan_', '_Oman_']","['m', 'm', 'm', 'f', 'f', 'm']","['p229', 'p318', 'p307', 'p245', 'p268', 'p256']","[0, 4, 8, 1, 2, 10]","[84.40078082039426, 89.31368318402099, 92.0152836843556, 86.2038576498559, 87.57049330475357, 93.00003341222717]",3.0,False,6.166666666666667,4.02077936060494,2.3145911693573,0.8978095562365225
0,,sub_109,2024-07-01 14:25:00,3,distance,cathedral,numerosity_judgement,1,41,4,countries_forward,"['_Togo_', '_Syria_', '_Peru_', '_Sudan_']","['m', 'f', 'f', 'f']","['p318', 'p268', 'p245', 'p284']","[0, 6, 3, 1]","[84.40078082039426, 91.58892582949886, 89.14911522239515, 86.2038576498559]",3.0,False,4.5,2.6457513110645907,3.5476937294006348,0.9558960390421064
0,,sub_109,2024-07-01 14:25:05,3,distance,cathedral,numerosity_judgement,1,42,5,countries_forward,"['_Tonga_', '_Oman_', '_Mali_', '_Peru_', '_Belgium_']","['f', 'f', 'm', 'f', 'f']","['p245', 'p248', 'p307', 'p284', 'p268']","[1, 9, 4, 0, 2]","[86.2038576498559, 92.00610777531934, 89.31368318402099, 84.40078082039426, 87.57049330475357]",3.0,False,5.2,3.5637059362410923,3.1708083152770996,0.8125297923050732
0,,sub_109,2024-07-01 14:25:09,3,distance,cathedral,numerosity_judgement,1,43,3,countries_forward,"['_Syria_', '_Tonga_', '_Belgium_']","['f', 'm', 'f']","['p284', 'p307', 'p268']","[3, 4, 2]","[89.14911522239515, 89.31368318402099, 87.57049330475357]",2.0,False,5.0,1.0,2.6104812622070312,0.9585745091363068
0,,sub_109,2024-07-01 14:25:12,3,distance,cathedral,numerosity_judgement,1,44,2,countries_forward,"['_Oman_', '_Yemen_']","['m', 'm']","['p229', 'p256']","[3, 6]","[89.14911522239515, 91.58892582949886]",2.0,True,6.5,2.1213203435596424,1.7457680702209473,0.5410623084780388
0,,sub_109,2024-07-01 14:25:16,3,distance,cathedral,numerosity_judgement,1,45,5,countries_forward,"['_Oman_', '_Cuba_', '_Togo_', '_Yemen_', '_Congo_']","['f', 'f', 'm', 'm', 'm']","['p284', 'p268', 'p307', 'p256', 'p318']","[1, 10, 4, 3, 7]","[86.2038576498559, 93.00003341222717, 89.31368318402099, 89.14911522239515, 91.73820004985969]",4.0,False,7.0,3.5355339059327378,2.3748364448547363,0.6794347974123255
0,,sub_109,2024-07-01 14:25:20,3,distance,cathedral,numerosity_judgement,1,46,3,countries_forward,"['_Peru_', '_Sudan_', '_Mali_']","['m', 'm', 'f']","['p256', 'p229', 'p248']","[1, 5, 7]","[86.2038576498559, 90.34149293193902, 91.73820004985969]",2.0,False,6.333333333333333,3.0550504633038935,2.0623576641082764,0.9404607876517987
0,,sub_109,2024-07-01 14:25:23,3,distance,cathedral,numerosity_judgement,1,47,2,countries_forward,"['_Oman_', '_Britain_']","['m', 'm']","['p307', 'p229']","[1, 6]","[86.2038576498559, 91.58892582949886]",2.0,True,5.5,3.5355339059327378,1.42195463180542,0.8368970604925661
0,,sub_109,2024-07-01 14:25:26,3,distance,cathedral,numerosity_judgement,1,48,4,countries_forward,"['_Yemen_', '_Cuba_', '_Belgium_', '_Britain_']","['f', 'm', 'm', 'm']","['p284', 'p307', 'p229', 'p256']","[2, 3, 1, 6]","[87.57049330475357, 89.14911522239515, 86.2038576498559, 91.58892582949886]",3.0,False,5.0,2.160246899469287,1.4998960494995115,0.7878333900805811
0,,sub_109,2024-07-01 14:25:31,3,distance,cathedral,numerosity_judgement,1,49,6,countries_forward,"['_Oman_', '_Congo_', '_Belgium_', '_Yemen_', '_Tonga_', '_Togo_']","['m', 'f', 'm', 'f', 'f', 'm']","['p229', 'p245', 'p256', 'p268', 'p284', 'p307']","[2, 6, 7, 10, 4, 9]","[87.57049330475357, 91.58892582949886, 91.73820004985969, 93.00003341222717, 89.31368318402099, 92.00610777531934]",5.0,False,8.333333333333334,3.011090610836324,2.812305688858032,0.8489842242651231
0,,sub_109,2024-07-01 14:25:35,3,distance,cathedral,numerosity_judgement,1,50,3,countries_forward,"['_Tonga_', '_Cuba_', '_Togo_']","['m', 'f', 'f']","['p318', 'p248', 'p284']","[0, 2, 5]","[84.40078082039426, 87.57049330475357, 90.34149293193902]",3.0,True,4.333333333333333,2.516611478423583,1.9998621940612793,0.8912268754965385
0,,sub_109,2024-07-01 14:25:38,3,distance,cathedral,numerosity_judgement,1,51,6,countries_forward,"['_Peru_', '_Belgium_', '_Sudan_', '_Yemen_', '_Japan_', '_Mali_']","['f', 'f', 'f', 'm', 'm', 'f']","['p248', 'p284', 'p245', 'p307', 'p318', 'p268']","[7, 4, 2, 10, 9, 3]","[91.73820004985969, 89.31368318402099, 87.57049330475357, 93.00003341222717, 92.00610777531934, 89.14911522239515]",4.0,False,7.833333333333333,3.3115957885386114,1.672290563583374,0.938735671319941
0,,sub_109,2024-07-01 14:25:42,3,distance,cathedral,numerosity_judgement,1,52,4,countries_forward,"['_Congo_', '_Oman_', '_Peru_', '_Yemen_']","['m', 'm', 'f', 'f']","['p307', 'p229', 'p284', 'p248']","[3, 10, 2, 6]","[89.14911522239515, 93.00003341222717, 87.57049330475357, 91.58892582949886]",4.0,True,7.25,3.593976442141304,1.7480876445770264,0.672829417773238
0,,sub_109,2024-07-01 14:25:46,3,distance,cathedral,numerosity_judgement,1,53,2,countries_forward,"['_Congo_', '_Yemen_']","['m', 'f']","['p256', 'p245']","[8, 3]","[92.0152836843556, 89.14911522239515]",3.0,False,7.5,3.5355339059327378,2.624819040298462,0.6093632958801498
0,,sub_109,2024-07-01 14:25:50,3,distance,cathedral,numerosity_judgement,1,54,5,countries_forward,"['_Yemen_', '_Tonga_', '_Cuba_', '_Mali_', '_Belgium_']","['f', 'm', 'm', 'f', 'm']","['p245', 'p307', 'p256', 'p268', 'p229']","[6, 9, 10, 3, 1]","[91.58892582949886, 92.00610777531934, 93.00003341222717, 89.14911522239515, 86.2038576498559]",3.0,False,7.8,3.8340579025361623,1.9372987747192385,0.7308705027806152
0,,sub_109,2024-07-01 14:25:54,3,distance,cathedral,numerosity_judgement,1,55,6,countries_forward,"['_Sudan_', '_Syria_', '_Belgium_', '_Togo_', '_Tonga_', '_Peru_']","['f', 'm', 'f', 'f', 'm', 'f']","['p284', 'p307', 'p248', 'p268', 'p256', 'p245']","[6, 1, 9, 2, 8, 4]","[91.58892582949886, 86.2038576498559, 92.00610777531934, 87.57049330475357, 92.0152836843556, 89.31368318402099]",4.0,False,7.0,3.22490309931942,2.609057903289795,0.9531040744523892
0,,sub_109,2024-07-01 14:26:00,3,distance,cathedral,numerosity_judgement,1,56,5,countries_forward,"['_Cuba_', '_Peru_', '_Tonga_', '_Syria_', '_Japan_']","['f', 'f', 'm', 'm', 'm']","['p268', 'p284', 'p307', 'p256', 'p229']","[9, 4, 5, 2, 8]","[92.00610777531934, 89.31368318402099, 90.34149293193902, 87.57049330475357, 92.0152836843556]",4.0,False,7.6,2.8809720581775866,3.672698736190796,0.7941890818295313
0,,sub_109,2024-07-01 14:26:04,3,distance,cathedral,numerosity_judgement,1,57,4,countries_forward,"['_Yemen_', '_Oman_', '_Tonga_', '_Congo_']","['m', 'm', 'f', 'f']","['p256', 'p318', 'p284', 'p245']","[2, 3, 1, 8]","[87.57049330475357, 89.14911522239515, 86.2038576498559, 92.0152836843556]",3.0,False,5.5,3.1091263510296048,2.5476338863372803,0.8015435251390307
0,,sub_109,2024-07-01 14:26:09,3,distance,cathedral,numerosity_judgement,1,58,2,countries_forward,"['_Britain_', '_Tonga_']","['f', 'm']","['p268', 'p229']","[8, 1]","[92.0152836843556, 86.2038576498559]",2.0,True,6.5,4.949747468305833,3.047398567199707,0.8898535921007831
0,,sub_109,2024-07-01 14:26:12,3,distance,cathedral,numerosity_judgement,1,59,3,countries_forward,"['_Tonga_', '_Yemen_', '_Oman_']","['f', 'm', 'm']","['p268', 'p256', 'p318']","[2, 10, 7]","[87.57049330475357, 93.00003341222717, 91.73820004985969]",2.0,False,8.333333333333334,4.041451884327381,1.7491390705108645,0.717852684144819
0,,sub_109,2024-07-01 14:26:15,3,distance,cathedral,numerosity_judgement,1,60,2,countries_forward,"['_Congo_', '_Yemen_']","['m', 'f']","['p256', 'p248']","[2, 5]","[87.57049330475357, 90.34149293193902]",2.0,True,5.5,2.1213203435596424,1.999861240386963,0.6993190330268982
0,,sub_109,2024-07-01 14:26:20,3,distance,cathedral,numerosity_judgement,1,61,6,countries_forward,"['_Tonga_', '_Congo_', '_Belgium_', '_Peru_', '_Togo_', '_Japan_']","['m', 'm', 'm', 'm', 'f', 'f']","['p256', 'p307', 'p318', 'p229', 'p268', 'p245']","[7, 2, 4, 3, 6, 5]","[91.73820004985969, 87.57049330475357, 89.31368318402099, 89.14911522239515, 91.58892582949886, 90.34149293193902]",3.0,False,6.5,1.8708286933869709,2.989514112472534,0.8886732493474067
0,,sub_109,2024-07-01 14:26:24,3,distance,cathedral,numerosity_judgement,1,62,5,countries_forward,"['_Congo_', '_Yemen_', '_Peru_', '_Mali_', '_Oman_']","['m', 'm', 'f', 'm', 'f']","['p256', 'p229', 'p284', 'p318', 'p245']","[4, 6, 8, 10, 0]","[89.31368318402099, 91.58892582949886, 92.0152836843556, 93.00003341222717, 84.40078082039426]",3.0,False,7.6,3.847076812334269,2.065967321395874,0.8839518783339008
0,,sub_109,2024-07-01 14:26:29,3,distance,cathedral,numerosity_judgement,1,63,4,countries_forward,"['_Japan_', '_Cuba_', '_Togo_', '_Mali_']","['f', 'f', 'm', 'm']","['p284', 'p245', 'p307', 'p318']","[3, 10, 8, 0]","[89.14911522239515, 93.00003341222717, 92.0152836843556, 84.40078082039426]",3.0,False,7.25,4.573474244670748,3.359153985977173,0.8473612529792305
0,,sub_109,2024-07-01 14:26:33,3,distance,cathedral,numerosity_judgement,1,64,3,countries_forward,"['_Yemen_', '_Belgium_', '_Japan_']","['f', 'f', 'm']","['p248', 'p245', 'p256']","[5, 6, 1]","[90.34149293193902, 91.58892582949886, 86.2038576498559]",4.0,False,6.0,2.6457513110645907,1.7977888584136963,0.8079219157870843
0,,sub_109,2024-07-01 14:26:37,3,distance,cathedral,numerosity_judgement,1,65,4,countries_forward,"['_Yemen_', '_Britain_', '_Belgium_', '_Oman_']","['m', 'f', 'm', 'f']","['p318', 'p245', 'p229', 'p268']","[9, 6, 10, 1]","[92.00610777531934, 91.58892582949886, 93.00003341222717, 86.2038576498559]",4.0,True,8.5,4.041451884327381,2.310253620147705,0.818227215980025
0,,sub_109,2024-07-01 14:26:40,3,distance,cathedral,numerosity_judgement,1,66,5,countries_forward,"['_Syria_', '_Oman_', '_Peru_', '_Britain_', '_Belgium_']","['f', 'f', 'm', 'm', 'm']","['p268', 'p284', 'p229', 'p307', 'p256']","[4, 10, 6, 1, 9]","[89.31368318402099, 93.00003341222717, 91.58892582949886, 86.2038576498559, 92.00610777531934]",5.0,True,8.0,3.6742346141747673,1.499897003173828,0.9533424128929748
0,,sub_109,2024-07-01 14:26:45,3,distance,cathedral,numerosity_judgement,1,67,3,countries_forward,"['_Congo_', '_Tonga_', '_Syria_']","['m', 'm', 'f']","['p318', 'p307', 'p268']","[6, 8, 10]","[91.58892582949886, 92.0152836843556, 93.00003341222717]",4.0,False,10.0,2.0,3.238417148590088,0.9143570536828964
0,,sub_109,2024-07-01 14:26:51,3,distance,cathedral,numerosity_judgement,1,68,6,countries_forward,"['_Oman_', '_Togo_', '_Congo_', '_Peru_', '_Japan_', '_Belgium_']","['m', 'm', 'f', 'f', 'f', 'm']","['p256', 'p318', 'p245', 'p284', 'p248', 'p229']","[7, 1, 2, 10, 8, 3]","[91.73820004985969, 86.2038576498559, 87.57049330475357, 93.00003341222717, 92.0152836843556, 89.14911522239515]",5.0,False,7.166666666666667,3.65604522218567,3.549329996109009,0.8634207240948814
0,,sub_109,2024-07-01 14:26:54,3,distance,cathedral,numerosity_judgement,1,69,2,countries_forward,"['_Oman_', '_Yemen_']","['m', 'f']","['p307', 'p245']","[6, 10]","[91.58892582949886, 93.00003341222717]",2.0,True,10.0,2.8284271247461903,2.364194393157959,0.5938372488934287
0,,sub_109,2024-07-01 14:26:59,3,distance,cathedral,numerosity_judgement,1,70,5,countries_forward,"['_Oman_', '_Congo_', '_Mali_', '_Syria_', '_Britain_']","['f', 'f', 'm', 'm', 'm']","['p245', 'p248', 'p256', 'p307', 'p229']","[9, 3, 7, 0, 4]","[92.00610777531934, 89.14911522239515, 91.73820004985969, 84.40078082039426, 89.31368318402099]",4.0,False,6.6,3.5071355833500366,3.046653985977173,0.8333560322324367
0,,sub_109,2024-07-01 14:27:02,3,distance,cathedral,numerosity_judgement,1,71,2,countries_forward,"['_Syria_', '_Cuba_']","['f', 'm']","['p248', 'p318']","[0, 1]","[84.40078082039426, 86.2038576498559]",2.0,True,2.5,0.7071067811865476,1.681546926498413,0.9561457269322438
0,,sub_109,2024-07-01 14:27:06,3,distance,cathedral,numerosity_judgement,1,72,3,countries_forward,"['_Japan_', '_Peru_', '_Yemen_']","['m', 'm', 'f']","['p256', 'p229', 'p245']","[10, 1, 7]","[93.00003341222717, 86.2038576498559, 91.73820004985969]",2.0,False,8.0,4.58257569495584,2.1248538494110107,0.7865736011803428
0,,sub_109,2024-07-01 14:27:10,3,distance,cathedral,numerosity_judgement,1,73,6,countries_forward,"['_Oman_', '_Yemen_', '_Belgium_', '_Tonga_', '_Japan_', '_Peru_']","['m', 'm', 'm', 'f', 'm', 'f']","['p256', 'p318', 'p307', 'p248', 'p229', 'p268']","[4, 0, 3, 2, 6, 5]","[89.31368318402099, 84.40078082039426, 89.14911522239515, 87.57049330475357, 91.58892582949886, 90.34149293193902]",3.0,False,5.333333333333333,2.160246899469287,1.8748700618743896,0.8211553739643628
0,,sub_109,2024-07-01 14:27:14,3,distance,cathedral,numerosity_judgement,1,74,4,countries_forward,"['_Mali_', '_Cuba_', '_Congo_', '_Yemen_']","['f', 'm', 'm', 'f']","['p248', 'p307', 'p256', 'p245']","[4, 10, 3, 2]","[89.31368318402099, 93.00003341222717, 89.14911522239515, 87.57049330475357]",3.0,False,6.75,3.593976442141304,1.8593223094940183,0.7184428555215072
0,,sub_109,2024-07-01 14:29:30,3,distance,cathedral,numerosity_judgement,2,0,6,countries_forward,"['_Congo_', '_Japan_', '_Togo_', '_Cuba_', '_Oman_', '_Mali_']","['f', 'f', 'm', 'f', 'f', 'm']","['p245', 'p284', 'p229', 'p268', 'p248', 'p318']","[10, 9, 6, 1, 7, 5]","[93.00003341222717, 92.00610777531934, 91.58892582949886, 86.2038576498559, 91.73820004985969, 90.34149293193902]",4.0,False,8.333333333333334,3.204163957519444,2.704540729522705,0.963136987856089
0,,sub_109,2024-07-01 14:29:36,3,distance,cathedral,numerosity_judgement,2,1,5,countries_forward,"['_Mali_', '_Oman_', '_Syria_', '_Cuba_', '_Japan_']","['m', 'm', 'f', 'f', 'm']","['p229', 'p318', 'p284', 'p248', 'p256']","[2, 6, 9, 7, 8]","[87.57049330475357, 91.58892582949886, 92.00610777531934, 91.73820004985969, 92.0152836843556]",4.0,False,8.4,2.701851217221259,4.049592018127441,0.9189876290999888
0,,sub_109,2024-07-01 14:29:40,3,distance,cathedral,numerosity_judgement,2,2,2,countries_forward,"['_Syria_', '_Cuba_']","['f', 'f']","['p284', 'p248']","[5, 1]","[90.34149293193902, 86.2038576498559]",2.0,True,5.0,2.8284271247461903,2.1757636070251465,0.9577913971172398
0,,sub_109,2024-07-01 14:29:44,3,distance,cathedral,numerosity_judgement,2,3,3,countries_forward,"['_Japan_', '_Sudan_', '_Peru_']","['f', 'f', 'm']","['p248', 'p268', 'p307']","[9, 0, 6]","[92.00610777531934, 84.40078082039426, 91.58892582949886]",3.0,True,7.0,4.58257569495584,2.610212802886963,0.8907388491658155
0,,sub_109,2024-07-01 14:29:49,3,distance,cathedral,numerosity_judgement,2,4,4,countries_forward,"['_Cuba_', '_Syria_', '_Britain_', '_Togo_']","['m', 'm', 'm', 'f']","['p318', 'p256', 'p307', 'p245']","[5, 1, 2, 9]","[90.34149293193902, 86.2038576498559, 87.57049330475357, 92.00610777531934]",3.0,False,6.25,3.593976442141304,3.0466372966766357,0.7766655317217115
0,,sub_109,2024-07-01 14:29:52,3,distance,cathedral,numerosity_judgement,2,5,3,countries_forward,"['_Peru_', '_Oman_', '_Togo_']","['f', 'm', 'm']","['p268', 'p307', 'p256']","[5, 6, 0]","[90.34149293193902, 91.58892582949886, 84.40078082039426]",2.0,False,5.666666666666667,3.2145502536643185,1.6873838901519775,0.6646578140960163
0,,sub_109,2024-07-01 14:29:57,3,distance,cathedral,numerosity_judgement,2,6,4,countries_forward,"['_Oman_', '_Peru_', '_Yemen_', '_Cuba_']","['m', 'f', 'f', 'f']","['p307', 'p248', 'p284', 'p268']","[5, 6, 3, 9]","[90.34149293193902, 91.58892582949886, 89.14911522239515, 92.00610777531934]",2.0,False,7.75,2.5,3.748140811920166,0.7419589149926229
0,,sub_109,2024-07-01 14:30:00,3,distance,cathedral,numerosity_judgement,2,7,2,countries_forward,"['_Yemen_', '_Oman_']","['m', 'f']","['p256', 'p245']","[6, 1]","[91.58892582949886, 86.2038576498559]",2.0,True,5.5,3.5355339059327378,1.562392234802246,0.6588582453750993
0,,sub_109,2024-07-01 14:30:04,3,distance,cathedral,numerosity_judgement,2,8,6,countries_forward,"['_Peru_', '_Yemen_', '_Mali_', '_Tonga_', '_Togo_', '_Congo_']","['m', 'f', 'f', 'm', 'm', 'f']","['p318', 'p245', 'p284', 'p307', 'p229', 'p248']","[1, 6, 2, 7, 3, 9]","[86.2038576498559, 91.58892582949886, 87.57049330475357, 91.73820004985969, 89.14911522239515, 92.00610777531934]",4.0,False,6.666666666666667,3.141125063837266,1.6743080615997314,0.8966178640335943
0,,sub_109,2024-07-01 14:30:08,3,distance,cathedral,numerosity_judgement,2,9,5,countries_forward,"['_Tonga_', '_Yemen_', '_Britain_', '_Peru_', '_Oman_']","['f', 'm', 'f', 'f', 'm']","['p248', 'p229', 'p245', 'p268', 'p307']","[2, 0, 7, 3, 6]","[87.57049330475357, 84.40078082039426, 91.73820004985969, 89.14911522239515, 91.58892582949886]",3.0,False,5.6,2.8809720581775866,2.246192216873169,0.7157757348768585
0,,sub_109,2024-07-01 14:30:13,3,distance,cathedral,numerosity_judgement,2,10,6,countries_forward,"['_Yemen_', '_Mali_', '_Cuba_', '_Oman_', '_Japan_', '_Sudan_']","['f', 'm', 'f', 'f', 'm', 'm']","['p284', 'p229', 'p268', 'p245', 'p256', 'p307']","[6, 0, 5, 10, 3, 8]","[91.58892582949886, 84.40078082039426, 90.34149293193902, 93.00003341222717, 89.14911522239515, 92.0152836843556]",4.0,False,7.333333333333333,3.559026084010437,2.796814203262329,0.7366246737033254
0,,sub_109,2024-07-01 14:30:20,3,distance,cathedral,numerosity_judgement,2,11,4,countries_forward,"['_Togo_', '_Oman_', '_Tonga_', '_Yemen_']","['m', 'f', 'f', 'm']","['p318', 'p268', 'p245', 'p229']","[10, 8, 4, 7]","[93.00003341222717, 92.0152836843556, 89.31368318402099, 91.73820004985969]",4.0,True,9.25,2.5,5.610039710998535,0.6996822154125525
0,,sub_109,2024-07-01 14:30:26,3,distance,cathedral,numerosity_judgement,2,12,5,countries_forward,"['_Britain_', '_Togo_', '_Tonga_', '_Peru_', '_Cuba_']","['f', 'm', 'f', 'f', 'm']","['p248', 'p256', 'p284', 'p245', 'p229']","[1, 6, 2, 9, 7]","[86.2038576498559, 91.58892582949886, 87.57049330475357, 92.00610777531934, 91.73820004985969]",4.0,False,7.0,3.391164991562634,3.797572374343872,0.8513335603223243
0,,sub_109,2024-07-01 14:30:29,3,distance,cathedral,numerosity_judgement,2,13,2,countries_forward,"['_Yemen_', '_Oman_']","['f', 'm']","['p248', 'p307']","[7, 9]","[91.73820004985969, 92.00610777531934]",2.0,True,10.0,1.4142135623730951,1.2981879711151123,0.5863920099875156
0,,sub_109,2024-07-01 14:30:32,3,distance,cathedral,numerosity_judgement,2,14,3,countries_forward,"['_Oman_', '_Yemen_', '_Tonga_']","['f', 'f', 'm']","['p248', 'p284', 'p256']","[5, 10, 2]","[90.34149293193902, 93.00003341222717, 87.57049330475357]",3.0,True,7.666666666666667,4.041451884327381,1.562391996383667,0.8463284530700261
0,,sub_109,2024-07-01 14:30:35,3,distance,cathedral,numerosity_judgement,2,15,2,countries_forward,"['_Japan_', '_Togo_']","['m', 'm']","['p229', 'p307']","[3, 8]","[89.14911522239515, 92.0152836843556]",2.0,True,7.5,3.5355339059327378,1.5623910427093506,0.8701168993303825
0,,sub_109,2024-07-01 14:30:42,3,distance,cathedral,numerosity_judgement,2,16,4,countries_forward,"['_Yemen_', '_Oman_', '_Peru_', '_Togo_']","['m', 'm', 'f', 'm']","['p229', 'p307', 'p268', 'p256']","[9, 5, 3, 10]","[92.00610777531934, 90.34149293193902, 89.14911522239515, 93.00003341222717]",2.0,False,8.75,3.304037933599835,5.046069145202637,0.6414935875610033
0,,sub_109,2024-07-01 14:30:45,3,distance,cathedral,numerosity_judgement,2,17,3,countries_forward,"['_Peru_', '_Britain_', '_Yemen_']","['f', 'm', 'm']","['p245', 'p256', 'p307']","[5, 1, 8]","[90.34149293193902, 86.2038576498559, 92.0152836843556]",2.0,False,6.666666666666667,3.5118845842842465,1.1249220371246338,0.6509136306889116
0,,sub_109,2024-07-01 14:30:50,3,distance,cathedral,numerosity_judgement,2,18,6,countries_forward,"['_Togo_', '_Cuba_', '_Oman_', '_Britain_', '_Mali_', '_Syria_']","['f', 'f', 'm', 'm', 'f', 'm']","['p248', 'p268', 'p229', 'p307', 'p245', 'p318']","[1, 8, 6, 10, 5, 4]","[86.2038576498559, 92.0152836843556, 91.58892582949886, 93.00003341222717, 90.34149293193902, 89.31368318402099]",3.0,False,7.666666666666667,3.141125063837266,3.3745954036712646,0.8009533537623426
0,,sub_109,2024-07-01 14:30:56,3,distance,cathedral,numerosity_judgement,2,19,5,countries_forward,"['_Yemen_', '_Oman_', '_Peru_', '_Mali_', '_Congo_']","['m', 'm', 'f', 'f', 'm']","['p256', 'p307', 'p268', 'p248', 'p229']","[7, 5, 4, 0, 9]","[91.73820004985969, 90.34149293193902, 89.31368318402099, 84.40078082039426, 92.00610777531934]",3.0,False,7.0,3.391164991562634,4.438353061676025,0.6961865849506299
0,,sub_109,2024-07-01 14:31:00,3,distance,cathedral,numerosity_judgement,2,20,3,countries_forward,"['_Oman_', '_Peru_', '_Mali_']","['f', 'm', 'm']","['p245', 'p318', 'p229']","[5, 3, 4]","[90.34149293193902, 89.14911522239515, 89.31368318402099]",2.0,False,6.0,1.0,1.7998974323272705,0.7289070480081716
0,,sub_109,2024-07-01 14:31:04,3,distance,cathedral,numerosity_judgement,2,21,6,countries_forward,"['_Peru_', '_Congo_', '_Cuba_', '_Sudan_', '_Tonga_', '_Japan_']","['m', 'f', 'f', 'm', 'f', 'm']","['p307', 'p248', 'p245', 'p318', 'p284', 'p256']","[8, 9, 5, 6, 4, 10]","[92.0152836843556, 92.00610777531934, 90.34149293193902, 91.58892582949886, 89.31368318402099, 93.00003341222717]",5.0,False,9.0,2.3664319132398464,1.860703706741333,0.8394279877425945
0,,sub_109,2024-07-01 14:31:07,3,distance,cathedral,numerosity_judgement,2,22,2,countries_forward,"['_Yemen_', '_Mali_']","['m', 'f']","['p256', 'p245']","[6, 0]","[91.58892582949886, 84.40078082039426]",2.0,True,5.0,4.242640687119285,1.9998621940612793,0.70441493587561
0,,sub_109,2024-07-01 14:31:11,3,distance,cathedral,numerosity_judgement,2,23,4,countries_forward,"['_Yemen_', '_Belgium_', '_Cuba_', '_Britain_']","['f', 'm', 'f', 'f']","['p284', 'p256', 'p268', 'p245']","[1, 0, 6, 7]","[86.2038576498559, 84.40078082039426, 91.58892582949886, 91.73820004985969]",2.0,False,5.5,3.5118845842842465,2.5623233318328857,0.7952786289864942
0,,sub_109,2024-07-01 14:31:15,3,distance,cathedral,numerosity_judgement,2,24,5,countries_forward,"['_Oman_', '_Tonga_', '_Belgium_', '_Syria_', '_Britain_']","['f', 'f', 'm', 'f', 'f']","['p248', 'p284', 'p229', 'p245', 'p268']","[1, 7, 5, 8, 0]","[86.2038576498559, 91.73820004985969, 90.34149293193902, 92.0152836843556, 84.40078082039426]",4.0,False,6.2,3.5637059362410923,1.7498784065246582,0.9339689025082284
0,,sub_109,2024-07-01 14:31:18,3,distance,cathedral,numerosity_judgement,2,25,2,countries_forward,"['_Cuba_', '_Tonga_']","['m', 'm']","['p307', 'p229']","[4, 6]","[89.31368318402099, 91.58892582949886]",2.0,True,7.0,1.4142135623730951,1.560462236404419,0.8017818635796163
0,,sub_109,2024-07-01 14:31:22,3,distance,cathedral,numerosity_judgement,2,26,4,countries_forward,"['_Congo_', '_Oman_', '_Peru_', '_Yemen_']","['m', 'm', 'f', 'f']","['p307', 'p229', 'p284', 'p248']","[3, 10, 2, 6]","[89.14911522239515, 93.00003341222717, 87.57049330475357, 91.58892582949886]",3.0,False,7.25,3.593976442141304,2.3748083114624023,0.672829417773238
0,,sub_109,2024-07-01 14:31:27,3,distance,cathedral,numerosity_judgement,2,27,3,countries_forward,"['_Britain_', '_Tonga_', '_Japan_']","['f', 'm', 'f']","['p268', 'p229', 'p245']","[3, 6, 10]","[89.14911522239515, 91.58892582949886, 93.00003341222717]",3.0,True,8.333333333333334,3.511884584284246,2.8123066425323486,0.7994325275224151
0,,sub_109,2024-07-01 14:31:30,3,distance,cathedral,numerosity_judgement,2,28,5,countries_forward,"['_Oman_', '_Britain_', '_Japan_', '_Belgium_', '_Togo_']","['m', 'f', 'f', 'f', 'm']","['p229', 'p248', 'p284', 'p268', 'p256']","[1, 3, 5, 8, 2]","[86.2038576498559, 89.14911522239515, 90.34149293193902, 92.0152836843556, 87.57049330475357]",4.0,False,5.8,2.7748873851023212,1.874870538711548,0.9518783339008058
0,,sub_109,2024-07-01 14:31:34,3,distance,cathedral,numerosity_judgement,2,29,6,countries_forward,"['_Oman_', '_Togo_', '_Britain_', '_Peru_', '_Cuba_', '_Tonga_']","['m', 'm', 'm', 'f', 'f', 'm']","['p307', 'p318', 'p229', 'p268', 'p245', 'p256']","[7, 6, 10, 0, 4, 9]","[91.73820004985969, 91.58892582949886, 93.00003341222717, 84.40078082039426, 89.31368318402099, 92.00610777531934]",4.0,False,8.0,3.63318042491699,2.172674655914306,0.8051866984451254
0,,sub_109,2024-07-01 14:31:38,3,distance,cathedral,numerosity_judgement,2,30,2,countries_forward,"['_Yemen_', '_Oman_']","['m', 'm']","['p256', 'p307']","[0, 5]","[84.40078082039426, 90.34149293193902]",2.0,True,4.5,3.5355339059327378,1.7489893436431885,0.608194302576325
0,,sub_109,2024-07-01 14:31:42,3,distance,cathedral,numerosity_judgement,2,31,4,countries_forward,"['_Yemen_', '_Peru_', '_Cuba_', '_Britain_']","['m', 'm', 'm', 'f']","['p256', 'p229', 'p307', 'p248']","[9, 1, 7, 8]","[92.00610777531934, 86.2038576498559, 91.73820004985969, 92.0152836843556]",3.0,False,8.25,3.593976442141304,2.749906539916992,0.6815457950289411
0,,sub_109,2024-07-01 14:31:47,3,distance,cathedral,numerosity_judgement,2,32,6,countries_forward,"['_Peru_', '_Togo_', '_Mali_', '_Britain_', '_Oman_', '_Cuba_']","['f', 'm', 'm', 'm', 'm', 'f']","['p248', 'p307', 'p256', 'p318', 'p229', 'p284']","[3, 10, 6, 4, 9, 2]","[89.14911522239515, 93.00003341222717, 91.58892582949886, 89.31368318402099, 92.00610777531934, 87.57049330475357]",4.0,False,7.666666666666667,3.265986323710904,2.562323093414306,0.7583929179434797
0,,sub_109,2024-07-01 14:31:52,3,distance,cathedral,numerosity_judgement,2,33,5,countries_forward,"['_Peru_', '_Sudan_', '_Belgium_', '_Togo_', '_Japan_']","['m', 'f', 'm', 'f', 'm']","['p318', 'p284', 'p256', 'p268', 'p307']","[5, 3, 1, 6, 4]","[90.34149293193902, 89.14911522239515, 86.2038576498559, 91.58892582949886, 89.31368318402099]",4.0,False,5.8,1.9235384061671343,2.812305212020874,0.8825899443876972
0,,sub_109,2024-07-01 14:31:56,3,distance,cathedral,numerosity_judgement,2,34,3,countries_forward,"['_Peru_', '_Mali_', '_Britain_']","['m', 'm', 'f']","['p229', 'p307', 'p248']","[1, 2, 6]","[86.2038576498559, 87.57049330475357, 91.58892582949886]",3.0,True,5.0,2.6457513110645907,2.4412732124328613,0.8710248552945182
0,,sub_109,2024-07-01 14:32:00,3,distance,cathedral,numerosity_judgement,2,35,6,countries_forward,"['_Tonga_', '_Japan_', '_Britain_', '_Congo_', '_Mali_', '_Belgium_']","['m', 'f', 'f', 'm', 'f', 'f']","['p307', 'p284', 'p245', 'p318', 'p248', 'p268']","[9, 3, 2, 6, 1, 5]","[92.00610777531934, 89.14911522239515, 87.57049330475357, 91.58892582949886, 86.2038576498559, 90.34149293193902]",3.0,False,6.333333333333333,2.943920288775949,2.6736929416656494,0.9331857904891612
0,,sub_109,2024-07-01 14:32:04,3,distance,cathedral,numerosity_judgement,2,36,4,countries_forward,"['_Congo_', '_Syria_', '_Cuba_', '_Japan_']","['f', 'f', 'm', 'm']","['p248', 'p245', 'p318', 'p307']","[2, 9, 7, 0]","[87.57049330475357, 92.00610777531934, 91.73820004985969, 84.40078082039426]",3.0,False,6.5,4.203173404306164,2.4226272106170654,0.8758143230053342
0,,sub_109,2024-07-01 14:32:08,3,distance,cathedral,numerosity_judgement,2,37,2,countries_forward,"['_Britain_', '_Sudan_']","['m', 'f']","['p307', 'p268']","[8, 2]","[92.0152836843556, 87.57049330475357]",3.0,False,7.0,4.242640687119285,2.0593533515930176,0.920508455339916
0,,sub_109,2024-07-01 14:32:12,3,distance,cathedral,numerosity_judgement,2,38,3,countries_forward,"['_Togo_', '_Sudan_', '_Belgium_']","['f', 'm', 'm']","['p248', 'p229', 'p318']","[0, 2, 9]","[84.40078082039426, 87.57049330475357, 92.00610777531934]",2.0,False,5.666666666666667,4.725815626252608,2.1248528957366943,0.9567245488593804
0,,sub_109,2024-07-01 14:32:18,3,distance,cathedral,numerosity_judgement,2,39,5,countries_forward,"['_Cuba_', '_Tonga_', '_Peru_', '_Oman_', '_Belgium_']","['m', 'f', 'm', 'm', 'f']","['p307', 'p268', 'p229', 'p256', 'p284']","[1, 3, 10, 5, 4]","[86.2038576498559, 89.14911522239515, 93.00003341222717, 90.34149293193902, 89.31368318402099]",3.0,False,6.6,3.361547262794322,4.062450170516968,0.7540574282147315
0,,sub_109,2024-07-01 14:32:20,3,distance,cathedral,numerosity_judgement,2,40,3,countries_forward,"['_Peru_', '_Yemen_', '_Oman_']","['f', 'f', 'f']","['p284', 'p268', 'p248']","[6, 7, 4]","[91.58892582949886, 91.73820004985969, 89.31368318402099]",2.0,False,7.666666666666667,1.5275252316519463,1.124922275543213,0.7685733741913517
0,,sub_109,2024-07-01 14:32:24,3,distance,cathedral,numerosity_judgement,2,41,2,countries_forward,"['_Syria_', '_Oman_']","['f', 'm']","['p245', 'p307']","[0, 2]","[84.40078082039426, 87.57049330475357]",2.0,True,3.0,1.4142135623730951,2.1258811950683594,0.9485869935308138
0,,sub_109,2024-07-01 14:32:27,3,distance,cathedral,numerosity_judgement,2,42,4,countries_forward,"['_Sudan_', '_Syria_', '_Mali_', '_Tonga_']","['f', 'm', 'f', 'm']","['p268', 'p229', 'p248', 'p307']","[10, 4, 1, 2]","[93.00003341222717, 89.31368318402099, 86.2038576498559, 87.57049330475357]",3.0,False,6.25,4.031128874149275,1.4374568462371826,0.9598683463852004
0,,sub_109,2024-07-01 14:32:33,3,distance,cathedral,numerosity_judgement,2,43,5,countries_forward,"['_Peru_', '_Yemen_', '_Oman_', '_Tonga_', '_Sudan_']","['f', 'm', 'm', 'f', 'm']","['p284', 'p256', 'p229', 'p268', 'p307']","[9, 7, 4, 8, 10]","[92.00610777531934, 91.73820004985969, 89.31368318402099, 92.0152836843556, 93.00003341222717]",3.0,False,9.6,2.302172886644267,3.497666597366333,0.7196004993757803
0,,sub_109,2024-07-01 14:32:37,3,distance,cathedral,numerosity_judgement,2,44,6,countries_forward,"['_Syria_', '_Sudan_', '_Peru_', '_Mali_', '_Congo_', '_Tonga_']","['f', 'f', 'f', 'm', 'm', 'f']","['p268', 'p245', 'p284', 'p229', 'p256', 'p248']","[6, 8, 4, 0, 5, 10]","[91.58892582949886, 92.0152836843556, 89.31368318402099, 84.40078082039426, 90.34149293193902, 93.00003341222717]",4.0,False,7.5,3.449637662132068,1.999860763549805,0.9213029168085348
0,,sub_109,2024-07-01 14:32:41,3,distance,cathedral,numerosity_judgement,2,45,4,countries_forward,"['_Sudan_', '_Cuba_', '_Britain_', '_Syria_']","['m', 'f', 'm', 'f']","['p256', 'p284', 'p229', 'p268']","[4, 10, 1, 5]","[89.31368318402099, 93.00003341222717, 86.2038576498559, 90.34149293193902]",2.0,False,7.0,3.7416573867739418,2.8748016357421875,0.8973328793553512
0,,sub_109,2024-07-01 14:32:44,3,distance,cathedral,numerosity_judgement,2,46,2,countries_forward,"['_Yemen_', '_Cuba_']","['m', 'm']","['p256', 'p229']","[5, 10]","[90.34149293193902, 93.00003341222717]",2.0,True,9.5,3.5355339059327378,1.3758234977722168,0.6432527522415162
0,,sub_109,2024-07-01 14:32:48,3,distance,cathedral,numerosity_judgement,2,47,5,countries_forward,"['_Tonga_', '_Oman_', '_Congo_', '_Cuba_', '_Syria_']","['f', 'm', 'm', 'f', 'm']","['p248', 'p318', 'p307', 'p268', 'p256']","[6, 10, 3, 8, 0]","[91.58892582949886, 93.00003341222717, 89.14911522239515, 92.0152836843556, 84.40078082039426]",3.0,False,7.4,3.9749213828703582,2.5620579719543457,0.7788786743842924
0,,sub_109,2024-07-01 14:32:52,3,distance,cathedral,numerosity_judgement,2,48,3,countries_forward,"['_Oman_', '_Congo_', '_Yemen_']","['m', 'f', 'f']","['p256', 'p248', 'p245']","[2, 5, 6]","[87.57049330475357, 90.34149293193902, 91.58892582949886]",2.0,False,6.333333333333333,2.0816659994661326,1.9373693466186523,0.7071728521166724
0,,sub_109,2024-07-01 14:32:58,3,distance,cathedral,numerosity_judgement,2,49,6,countries_forward,"['_Peru_', '_Congo_', '_Oman_', '_Mali_', '_Tonga_', '_Cuba_']","['m', 'm', 'f', 'f', 'f', 'm']","['p318', 'p229', 'p268', 'p245', 'p248', 'p307']","[5, 10, 9, 6, 4, 2]","[90.34149293193902, 93.00003341222717, 92.00610777531934, 91.58892582949886, 89.31368318402099, 87.57049330475357]",4.0,False,8.0,3.03315017762062,3.560809850692749,0.7256838043354897
0,,sub_109,2024-07-01 14:33:01,3,distance,cathedral,numerosity_judgement,2,50,2,countries_forward,"['_Britain_', '_Japan_']","['m', 'f']","['p229', 'p248']","[10, 3]","[93.00003341222717, 89.14911522239515]",2.0,True,8.5,4.949747468305833,1.624887228012085,0.8273408239700375
0,,sub_109,2024-07-01 14:33:06,3,distance,cathedral,numerosity_judgement,2,51,6,countries_forward,"['_Syria_', '_Oman_', '_Japan_', '_Tonga_', '_Yemen_', '_Britain_']","['m', 'm', 'm', 'm', 'f', 'f']","['p318', 'p256', 'p307', 'p229', 'p245', 'p248']","[1, 9, 8, 2, 7, 4]","[86.2038576498559, 92.00610777531934, 92.0152836843556, 87.57049330475357, 91.73820004985969, 89.31368318402099]",3.0,False,7.166666666666667,3.3115957885386114,3.002868413925171,0.7841448189762796
0,,sub_109,2024-07-01 14:33:10,3,distance,cathedral,numerosity_judgement,2,52,5,countries_forward,"['_Syria_', '_Oman_', '_Britain_', '_Yemen_', '_Mali_']","['f', 'm', 'f', 'm', 'm']","['p268', 'p318', 'p245', 'p256', 'p229']","[9, 3, 8, 6, 7]","[92.00610777531934, 89.14911522239515, 92.0152836843556, 91.58892582949886, 91.73820004985969]",4.0,False,8.6,2.302172886644267,2.125286817550659,0.9007377142208602
0,,sub_109,2024-07-01 14:33:14,3,distance,cathedral,numerosity_judgement,2,53,3,countries_forward,"['_Yemen_', '_Oman_', '_Britain_']","['f', 'm', 'm']","['p248', 'p229', 'p307']","[10, 3, 6]","[93.00003341222717, 89.14911522239515, 91.58892582949886]",2.0,False,8.333333333333334,3.511884584284246,2.2974867820739746,0.6105209397344229
0,,sub_109,2024-07-01 14:33:17,3,distance,cathedral,numerosity_judgement,2,54,4,countries_forward,"['_Congo_', '_Syria_', '_Peru_', '_Oman_']","['m', 'f', 'f', 'f']","['p318', 'p284', 'p248', 'p245']","[0, 5, 4, 7]","[84.40078082039426, 90.34149293193902, 89.31368318402099, 91.73820004985969]",3.0,False,6.0,2.943920288775949,1.6873841285705566,0.9376347747134264
0,,sub_109,2024-07-01 14:33:21,3,distance,cathedral,numerosity_judgement,2,55,2,countries_forward,"['_Oman_', '_Yemen_']","['m', 'm']","['p229', 'p256']","[3, 6]","[89.14911522239515, 91.58892582949886]",2.0,True,6.5,2.1213203435596424,1.9373834133148191,0.5410623084780388
0,,sub_109,2024-07-01 14:33:25,3,distance,cathedral,numerosity_judgement,2,56,5,countries_forward,"['_Togo_', '_Tonga_', '_Yemen_', '_Cuba_', '_Congo_']","['m', 'f', 'm', 'm', 'f']","['p229', 'p245', 'p307', 'p318', 'p248']","[8, 3, 4, 5, 2]","[92.0152836843556, 89.14911522239515, 89.31368318402099, 90.34149293193902, 87.57049330475357]",2.0,False,6.4,2.302172886644267,2.7983763217926025,0.7958347520145272
0,,sub_109,2024-07-01 14:33:29,3,distance,cathedral,numerosity_judgement,2,57,3,countries_forward,"['_Tonga_', '_Congo_', '_Oman_']","['f', 'm', 'm']","['p245', 'p307', 'p318']","[2, 10, 9]","[87.57049330475357, 93.00003341222717, 92.00610777531934]",3.0,True,9.0,4.358898943540674,2.6713309288024902,0.8268641470888662
0,,sub_109,2024-07-01 14:33:34,3,distance,cathedral,numerosity_judgement,2,58,6,countries_forward,"['_Yemen_', '_Belgium_', '_Britain_', '_Cuba_', '_Congo_', '_Peru_']","['m', 'f', 'f', 'm', 'f', 'm']","['p318', 'p268', 'p284', 'p256', 'p248', 'p307']","[7, 6, 0, 9, 10, 1]","[91.73820004985969, 91.58892582949886, 84.40078082039426, 92.00610777531934, 93.00003341222717, 86.2038576498559]",4.0,False,7.5,4.135214625627067,2.188310146331787,0.8480195210532289
0,,sub_109,2024-07-01 14:33:38,3,distance,cathedral,numerosity_judgement,2,59,4,countries_forward,"['_Cuba_', '_Belgium_', '_Yemen_', '_Congo_']","['m', 'm', 'm', 'f']","['p229', 'p256', 'p318', 'p284']","[1, 7, 4, 2]","[86.2038576498559, 91.73820004985969, 89.31368318402099, 87.57049330475357]",3.0,False,5.5,2.6457513110645907,2.435392141342163,0.8145613437748269
0,,sub_109,2024-07-01 14:33:41,3,distance,cathedral,numerosity_judgement,2,60,3,countries_forward,"['_Congo_', '_Oman_', '_Togo_']","['m', 'f', 'f']","['p318', 'p245', 'p268']","[10, 5, 4]","[93.00003341222717, 90.34149293193902, 89.31368318402099]",3.0,True,8.333333333333334,3.214550253664318,1.874850511550903,0.748167063897401
0,,sub_109,2024-07-01 14:33:46,3,distance,cathedral,numerosity_judgement,2,61,4,countries_forward,"['_Oman_', '_Cuba_', '_Tonga_', '_Yemen_']","['f', 'f', 'm', 'm']","['p268', 'p248', 'p307', 'p229']","[0, 5, 3, 2]","[84.40078082039426, 90.34149293193902, 89.14911522239515, 87.57049330475357]",3.0,False,4.5,2.0816659994661326,2.752845764160156,0.8451935081148564
0,,sub_109,2024-07-01 14:33:49,3,distance,cathedral,numerosity_judgement,2,62,5,countries_forward,"['_Cuba_', '_Congo_', '_Togo_', '_Japan_', '_Yemen_']","['m', 'f', 'f', 'f', 'm']","['p307', 'p268', 'p248', 'p245', 'p318']","[7, 9, 5, 6, 0]","[91.73820004985969, 92.00610777531934, 90.34149293193902, 91.58892582949886, 84.40078082039426]",5.0,True,7.4,3.361547262794322,1.6875662803649902,0.7675973215299058
0,,sub_109,2024-07-01 14:33:54,3,distance,cathedral,numerosity_judgement,2,63,6,countries_forward,"['_Oman_', '_Togo_', '_Mali_', '_Cuba_', '_Sudan_', '_Japan_']","['f', 'f', 'm', 'm', 'm', 'm']","['p248', 'p245', 'p256', 'p307', 'p229', 'p318']","[8, 5, 0, 2, 7, 6]","[92.0152836843556, 90.34149293193902, 84.40078082039426, 87.57049330475357, 91.73820004985969, 91.58892582949886]",3.0,False,6.666666666666667,3.0767948691238205,2.6724376678466797,0.8716150266712065
0,,sub_109,2024-07-01 14:33:57,3,distance,cathedral,numerosity_judgement,2,64,2,countries_forward,"['_Japan_', '_Cuba_']","['f', 'm']","['p245', 'p229']","[5, 10]","[90.34149293193902, 93.00003341222717]",2.0,True,9.5,3.5355339059327378,1.437401294708252,0.7724321870389286
0,,sub_109,2024-07-01 14:34:01,3,distance,cathedral,numerosity_judgement,2,65,3,countries_forward,"['_Japan_', '_Syria_', '_Mali_']","['m', 'f', 'm']","['p318', 'p248', 'p229']","[8, 3, 2]","[92.0152836843556, 89.14911522239515, 87.57049330475357]",2.0,False,6.333333333333333,3.2145502536643185,2.687314510345459,0.9302689819543752
0,,sub_109,2024-07-01 14:34:05,3,distance,cathedral,numerosity_judgement,2,66,6,countries_forward,"['_Yemen_', '_Tonga_', '_Mali_', '_Cuba_', '_Togo_', '_Congo_']","['m', 'f', 'f', 'm', 'm', 'f']","['p318', 'p268', 'p248', 'p307', 'p256', 'p245']","[5, 3, 10, 7, 2, 4]","[90.34149293193902, 89.14911522239515, 93.00003341222717, 91.73820004985969, 87.57049330475357, 89.31368318402099]",3.0,False,7.166666666666667,2.9268868558020253,2.1751601696014404,0.6946544092611509
0,,sub_109,2024-07-01 14:34:08,3,distance,cathedral,numerosity_judgement,2,67,2,countries_forward,"['_Sudan_', '_Yemen_']","['m', 'f']","['p256', 'p248']","[6, 7]","[91.58892582949886, 91.73820004985969]",2.0,True,8.5,0.7071067811865476,1.3091862201690674,0.7408012711383498
0,,sub_109,2024-07-01 14:34:12,3,distance,cathedral,numerosity_judgement,2,68,4,countries_forward,"['_Japan_', '_Syria_', '_Belgium_', '_Oman_']","['m', 'f', 'f', 'f']","['p229', 'p284', 'p245', 'p248']","[4, 0, 2, 7]","[89.31368318402099, 84.40078082039426, 87.57049330475357, 91.73820004985969]",3.0,False,5.25,2.9860788111948193,2.124880790710449,0.9214958574509136
0,,sub_109,2024-07-01 14:34:16,3,distance,cathedral,numerosity_judgement,2,69,5,countries_forward,"['_Mali_', '_Yemen_', '_Sudan_', '_Peru_', '_Cuba_']","['f', 'f', 'm', 'm', 'm']","['p245', 'p248', 'p229', 'p307', 'p256']","[0, 10, 2, 4, 3]","[84.40078082039426, 93.00003341222717, 87.57049330475357, 89.31368318402099, 89.14911522239515]",3.0,False,5.8,3.7682887362833544,1.6873819828033447,0.8590852343661333
0,,sub_109,2024-07-01 14:34:19,3,distance,cathedral,numerosity_judgement,2,70,2,countries_forward,"['_Japan_', '_Yemen_']","['f', 'm']","['p284', 'p307']","[1, 7]","[86.2038576498559, 91.73820004985969]",2.0,True,6.0,4.242640687119285,1.4397382736206057,0.8610827374872319
0,,sub_109,2024-07-01 14:34:22,3,distance,cathedral,numerosity_judgement,2,71,3,countries_forward,"['_Cuba_', '_Mali_', '_Britain_']","['m', 'f', 'f']","['p318', 'p248', 'p284']","[8, 9, 3]","[92.0152836843556, 92.00610777531934, 89.14911522239515]",3.0,True,8.666666666666666,3.214550253664318,2.311737298965454,0.9086596300079446
0,,sub_109,2024-07-01 14:34:26,3,distance,cathedral,numerosity_judgement,2,72,4,countries_forward,"['_Cuba_', '_Japan_', '_Oman_', '_Belgium_']","['m', 'm', 'f', 'f']","['p307', 'p256', 'p248', 'p268']","[7, 9, 5, 4]","[91.73820004985969, 92.00610777531934, 90.34149293193902, 89.31368318402099]",3.0,False,8.25,2.217355782608345,2.06235408782959,0.753558052434457
0,,sub_109,2024-07-01 14:34:31,3,distance,cathedral,numerosity_judgement,2,73,5,countries_forward,"['_Yemen_', '_Belgium_', '_Britain_', '_Togo_', '_Sudan_']","['m', 'm', 'f', 'f', 'm']","['p307', 'p256', 'p268', 'p245', 'p318']","[3, 2, 10, 4, 6]","[89.14911522239515, 87.57049330475357, 93.00003341222717, 89.31368318402099, 91.58892582949886]",3.0,False,7.0,3.1622776601683795,2.92631459236145,0.8321075927817501
0,,sub_109,2024-07-01 14:34:35,3,distance,cathedral,numerosity_judgement,2,74,6,countries_forward,"['_Oman_', '_Britain_', '_Congo_', '_Cuba_', '_Yemen_', '_Syria_']","['f', 'm', 'f', 'm', 'f', 'm']","['p248', 'p307', 'p284', 'p318', 'p268', 'p229']","[1, 9, 8, 2, 3, 7]","[86.2038576498559, 92.00610777531934, 92.0152836843556, 87.57049330475357, 89.14911522239515, 91.73820004985969]",5.0,False,7.0,3.40587727318528,2.237276792526245,0.8844172057655204
0,,sub_109,2024-07-01 14:35:35,3,distance,cathedral,numerosity_judgement,3,0,2,countries_reversed,"['_Yemen_reversed', '_Japan_reversed']","['f', 'f']","['p245', 'p284']","[5, 7]","[90.34149293193902, 91.73820004985969]",2.0,True,8.0,1.4142135623730951,2.6745450496673584,0.7805129951197367
0,,sub_109,2024-07-01 14:35:39,3,distance,cathedral,numerosity_judgement,3,1,6,countries_reversed,"['_Togo_reversed', '_Japan_reversed', '_Peru_reversed', '_Cuba_reversed', '_Yemen_reversed', '_Sudan_reversed']","['f', 'm', 'm', 'f', 'm', 'f']","['p268', 'p307', 'p318', 'p284', 'p229', 'p248']","[4, 9, 10, 8, 3, 0]","[89.31368318402099, 92.00610777531934, 93.00003341222717, 92.0152836843556, 89.14911522239515, 84.40078082039426]",3.0,False,7.666666666666667,3.9327683210007,1.8133385181427,0.8782317557598457
0,,sub_109,2024-07-01 14:35:43,3,distance,cathedral,numerosity_judgement,3,2,3,countries_reversed,"['_Tonga_reversed', '_Oman_reversed', '_Cuba_reversed']","['f', 'm', 'f']","['p284', 'p318', 'p268']","[2, 8, 3]","[87.57049330475357, 92.0152836843556, 89.14911522239515]",2.0,False,6.333333333333333,3.2145502536643185,3.185657501220703,0.7595278628986494
0,,sub_109,2024-07-01 14:35:46,3,distance,cathedral,numerosity_judgement,3,3,4,countries_reversed,"['_Yemen_reversed', '_Togo_reversed', '_Tonga_reversed', '_Cuba_reversed']","['f', 'm', 'm', 'f']","['p284', 'p318', 'p229', 'p268']","[9, 0, 10, 6]","[92.00610777531934, 84.40078082039426, 93.00003341222717, 91.58892582949886]",3.0,False,8.25,4.5,1.999861478805542,0.7727726705254795
0,,sub_109,2024-07-01 14:35:50,3,distance,cathedral,numerosity_judgement,3,4,5,countries_reversed,"['_Japan_reversed', '_Britain_reversed', '_Sudan_reversed', '_Yemen_reversed', '_Togo_reversed']","['m', 'm', 'f', 'f', 'm']","['p318', 'p256', 'p248', 'p268', 'p229']","[3, 10, 8, 9, 4]","[89.14911522239515, 93.00003341222717, 92.0152836843556, 92.00610777531934, 89.31368318402099]",3.0,False,8.8,3.1144823004794873,2.046437978744507,0.7369197593916695
0,,sub_109,2024-07-01 14:35:53,3,distance,cathedral,numerosity_judgement,3,5,6,countries_reversed,"['_Congo_reversed', '_Belgium_reversed', '_Mali_reversed', '_Yemen_reversed', '_Japan_reversed', '_Sudan_reversed']","['f', 'm', 'm', 'f', 'f', 'm']","['p248', 'p229', 'p307', 'p268', 'p284', 'p256']","[6, 3, 4, 1, 2, 10]","[91.58892582949886, 89.14911522239515, 89.31368318402099, 86.2038576498559, 87.57049330475357, 93.00003341222717]",3.0,False,6.333333333333333,3.265986323710904,1.8114292621612549,0.8988650550448303
0,,sub_109,2024-07-01 14:35:57,3,distance,cathedral,numerosity_judgement,3,6,5,countries_reversed,"['_Yemen_reversed', '_Togo_reversed', '_Cuba_reversed', '_Britain_reversed', '_Japan_reversed']","['m', 'm', 'f', 'f', 'f']","['p318', 'p307', 'p248', 'p268', 'p284']","[2, 5, 6, 7, 3]","[87.57049330475357, 90.34149293193902, 91.58892582949886, 91.73820004985969, 89.14911522239515]",3.0,False,6.6,2.073644135332772,3.124783515930176,0.8434343434343434
0,,sub_109,2024-07-01 14:36:00,3,distance,cathedral,numerosity_judgement,3,7,4,countries_reversed,"['_Togo_reversed', '_Japan_reversed', '_Belgium_reversed', '_Oman_reversed']","['f', 'm', 'm', 'f']","['p284', 'p318', 'p229', 'p248']","[4, 6, 9, 8]","[89.31368318402099, 91.58892582949886, 92.00610777531934, 92.0152836843556]",4.0,True,8.75,2.217355782608345,1.3163983821868896,0.9168879809329248
0,,sub_109,2024-07-01 14:36:03,3,distance,cathedral,numerosity_judgement,3,8,3,countries_reversed,"['_Togo_reversed', '_Oman_reversed', '_Yemen_reversed']","['m', 'f', 'm']","['p256', 'p268', 'p307']","[6, 2, 8]","[91.58892582949886, 87.57049330475357, 92.0152836843556]",2.0,False,7.333333333333333,3.0550504633038935,1.8743467330932615,0.7867324934740665
0,,sub_109,2024-07-01 14:36:07,3,distance,cathedral,numerosity_judgement,3,9,2,countries_reversed,"['_Congo_reversed', '_Tonga_reversed']","['m', 'f']","['p256', 'p284']","[9, 2]","[92.00610777531934, 87.57049330475357]",2.0,True,7.5,4.949747468305833,2.7498116493225098,0.8544660083985927
0,,sub_109,2024-07-01 14:36:11,3,distance,cathedral,numerosity_judgement,3,10,6,countries_reversed,"['_Oman_reversed', '_Sudan_reversed', '_Togo_reversed', '_Japan_reversed', '_Belgium_reversed', '_Yemen_reversed']","['f', 'f', 'f', 'm', 'f', 'm']","['p248', 'p284', 'p245', 'p256', 'p268', 'p307']","[10, 3, 9, 7, 6, 5]","[93.00003341222717, 89.14911522239515, 92.00610777531934, 91.73820004985969, 91.58892582949886, 90.34149293193902]",4.0,False,8.666666666666666,2.581988897471611,2.8120598793029785,0.8353421859039837
0,,sub_109,2024-07-01 14:36:14,3,distance,cathedral,numerosity_judgement,3,11,2,countries_reversed,"['_Peru_reversed', '_Tonga_reversed']","['f', 'm']","['p268', 'p229']","[7, 2]","[91.73820004985969, 87.57049330475357]",2.0,True,6.5,3.5355339059327378,1.563103437423706,0.8871410736579276
0,,sub_109,2024-07-01 14:36:18,3,distance,cathedral,numerosity_judgement,3,12,5,countries_reversed,"['_Togo_reversed', '_Britain_reversed', '_Cuba_reversed', '_Oman_reversed', '_Japan_reversed']","['f', 'f', 'f', 'm', 'm']","['p284', 'p248', 'p268', 'p256', 'p318']","[9, 2, 8, 7, 5]","[92.00610777531934, 87.57049330475357, 92.0152836843556, 91.73820004985969, 90.34149293193902]",4.0,False,8.2,2.7748873851023217,2.686096429824829,0.769538077403246
0,,sub_109,2024-07-01 14:36:21,3,distance,cathedral,numerosity_judgement,3,13,3,countries_reversed,"['_Britain_reversed', '_Togo_reversed', '_Peru_reversed']","['f', 'm', 'f']","['p268', 'p229', 'p284']","[0, 10, 6]","[84.40078082039426, 93.00003341222717, 91.58892582949886]",3.0,True,7.333333333333333,5.033222956847167,1.499897003173828,0.8617637044603337
0,,sub_109,2024-07-01 14:36:25,3,distance,cathedral,numerosity_judgement,3,14,4,countries_reversed,"['_Japan_reversed', '_Cuba_reversed', '_Congo_reversed', '_Oman_reversed']","['m', 'm', 'm', 'f']","['p318', 'p307', 'p256', 'p245']","[9, 7, 10, 3]","[92.00610777531934, 91.73820004985969, 93.00003341222717, 89.14911522239515]",2.0,False,9.25,3.095695936834452,2.7354624271392822,0.6886505504483033
0,,sub_109,2024-07-01 14:36:29,3,distance,cathedral,numerosity_judgement,3,15,5,countries_reversed,"['_Belgium_reversed', '_Peru_reversed', '_Togo_reversed', '_Tonga_reversed', '_Syria_reversed']","['f', 'm', 'm', 'f', 'f']","['p245', 'p229', 'p318', 'p268', 'p284']","[1, 5, 2, 9, 3]","[86.2038576498559, 90.34149293193902, 87.57049330475357, 92.00610777531934, 89.14911522239515]",3.0,False,6.0,3.1622776601683795,2.687136173248291,0.95351265463625
0,,sub_109,2024-07-01 14:36:34,3,distance,cathedral,numerosity_judgement,3,16,6,countries_reversed,"['_Yemen_reversed', '_Sudan_reversed', '_Cuba_reversed', '_Britain_reversed', '_Oman_reversed', '_Congo_reversed']","['m', 'f', 'f', 'm', 'f', 'f']","['p229', 'p248', 'p245', 'p307', 'p284', 'p268']","[6, 10, 5, 7, 0, 3]","[91.58892582949886, 93.00003341222717, 90.34149293193902, 91.73820004985969, 84.40078082039426, 89.14911522239515]",4.0,False,7.166666666666667,3.4302575219167823,3.435863971710205,0.6710135058449666
0,,sub_109,2024-07-01 14:36:37,3,distance,cathedral,numerosity_judgement,3,17,3,countries_reversed,"['_Togo_reversed', '_Belgium_reversed', '_Congo_reversed']","['f', 'm', 'm']","['p245', 'p307', 'p256']","[4, 1, 10]","[89.31368318402099, 86.2038576498559, 93.00003341222717]",2.0,False,7.0,4.58257569495584,2.312343120574951,0.8873453637498582
0,,sub_109,2024-07-01 14:36:40,3,distance,cathedral,numerosity_judgement,3,18,4,countries_reversed,"['_Oman_reversed', '_Britain_reversed', '_Tonga_reversed', '_Cuba_reversed']","['f', 'm', 'f', 'm']","['p284', 'p256', 'p268', 'p229']","[2, 8, 3, 9]","[87.57049330475357, 92.0152836843556, 89.14911522239515, 92.00610777531934]",3.0,False,7.5,3.5118845842842465,1.5496869087219238,0.8455339916014073
0,,sub_109,2024-07-01 14:36:43,3,distance,cathedral,numerosity_judgement,3,19,2,countries_reversed,"['_Congo_reversed', '_Belgium_reversed']","['m', 'm']","['p307', 'p318']","[4, 3]","[89.31368318402099, 89.14911522239515]",2.0,True,5.5,0.7071067811865476,1.437401294708252,0.90943139257746
0,,sub_109,2024-07-01 14:36:46,3,distance,cathedral,numerosity_judgement,3,20,3,countries_reversed,"['_Belgium_reversed', '_Mali_reversed', '_Britain_reversed']","['m', 'm', 'm']","['p229', 'p307', 'p256']","[7, 1, 8]","[91.73820004985969, 86.2038576498559, 92.0152836843556]",2.0,False,7.333333333333333,3.7859388972001824,2.06229305267334,0.7335262739757121
0,,sub_109,2024-07-01 14:36:49,3,distance,cathedral,numerosity_judgement,3,21,2,countries_reversed,"['_Mali_reversed', '_Yemen_reversed']","['f', 'm']","['p284', 'p307']","[1, 5]","[86.2038576498559, 90.34149293193902]",2.0,True,5.0,2.8284271247461903,1.4997315406799316,0.7932357280671888
0,,sub_109,2024-07-01 14:36:52,3,distance,cathedral,numerosity_judgement,3,22,5,countries_reversed,"['_Togo_reversed', '_Congo_reversed', '_Yemen_reversed', '_Peru_reversed', '_Tonga_reversed']","['f', 'm', 'm', 'f', 'f']","['p248', 'p307', 'p318', 'p245', 'p284']","[10, 0, 3, 8, 1]","[93.00003341222717, 84.40078082039426, 89.14911522239515, 92.0152836843556, 86.2038576498559]",3.0,False,6.4,4.39317652729776,2.437331199645996,0.901498127340824
0,,sub_109,2024-07-01 14:36:55,3,distance,cathedral,numerosity_judgement,3,23,6,countries_reversed,"['_Yemen_reversed', '_Sudan_reversed', '_Togo_reversed', '_Mali_reversed', '_Peru_reversed', '_Congo_reversed']","['f', 'm', 'm', 'f', 'f', 'f']","['p248', 'p307', 'p256', 'p245', 'p284', 'p268']","[8, 6, 10, 7, 9, 0]","[92.0152836843556, 91.58892582949886, 93.00003341222717, 91.73820004985969, 92.00610777531934, 84.40078082039426]",4.0,False,8.666666666666666,3.559026084010437,1.7540147304534912,0.7549313358302122
0,,sub_109,2024-07-01 14:36:59,3,distance,cathedral,numerosity_judgement,3,24,4,countries_reversed,"['_Syria_reversed', '_Mali_reversed', '_Japan_reversed', '_Congo_reversed']","['f', 'f', 'f', 'm']","['p284', 'p248', 'p268', 'p229']","[1, 2, 10, 3]","[86.2038576498559, 87.57049330475357, 93.00003341222717, 89.14911522239515]",3.0,False,6.0,4.08248290463863,2.17167592048645,0.8563159686755193
0,,sub_109,2024-07-01 14:37:03,3,distance,cathedral,numerosity_judgement,3,25,6,countries_reversed,"['_Tonga_reversed', '_Japan_reversed', '_Oman_reversed', '_Mali_reversed', '_Congo_reversed', '_Cuba_reversed']","['f', 'f', 'f', 'f', 'm', 'm']","['p268', 'p248', 'p284', 'p245', 'p318', 'p307']","[6, 10, 2, 5, 1, 7]","[91.58892582949886, 93.00003341222717, 87.57049330475357, 90.34149293193902, 86.2038576498559, 91.73820004985969]",3.0,False,7.166666666666667,3.3115957885386114,2.4373321533203125,0.6877879922823743
0,,sub_109,2024-07-01 14:37:06,3,distance,cathedral,numerosity_judgement,3,26,5,countries_reversed,"['_Cuba_reversed', '_Oman_reversed', '_Britain_reversed', '_Tonga_reversed', '_Mali_reversed']","['m', 'm', 'f', 'm', 'f']","['p318', 'p307', 'p268', 'p229', 'p248']","[10, 5, 8, 3, 0]","[93.00003341222717, 90.34149293193902, 92.0152836843556, 89.14911522239515, 84.40078082039426]",3.0,False,7.2,3.96232255123179,2.4998276233673096,0.7003404834865509
0,,sub_109,2024-07-01 14:37:09,3,distance,cathedral,numerosity_judgement,3,27,2,countries_reversed,"['_Togo_reversed', '_Cuba_reversed']","['m', 'm']","['p318', 'p256']","[8, 10]","[92.0152836843556, 93.00003341222717]",2.0,True,11.0,1.4142135623730951,1.4369826316833496,0.7054477357848145
0,,sub_109,2024-07-01 14:37:14,3,distance,cathedral,numerosity_judgement,3,28,3,countries_reversed,"['_Peru_reversed', '_Oman_reversed', '_Congo_reversed']","['f', 'f', 'f']","['p284', 'p248', 'p268']","[9, 5, 8]","[92.00610777531934, 90.34149293193902, 92.0152836843556]",3.0,True,9.333333333333334,2.0816659994661326,3.672716617584229,0.6981840880717285
0,,sub_109,2024-07-01 14:37:17,3,distance,cathedral,numerosity_judgement,3,29,4,countries_reversed,"['_Japan_reversed', '_Mali_reversed', '_Oman_reversed', '_Syria_reversed']","['f', 'f', 'm', 'm']","['p284', 'p268', 'p256', 'p307']","[2, 3, 7, 5]","[87.57049330475357, 89.14911522239515, 91.73820004985969, 90.34149293193902]",3.0,False,6.25,2.217355782608345,2.1248531341552734,0.8117012824877994
0,,sub_109,2024-07-01 14:37:22,3,distance,cathedral,numerosity_judgement,3,30,3,countries_reversed,"['_Oman_reversed', '_Sudan_reversed', '_Mali_reversed']","['m', 'm', 'f']","['p307', 'p256', 'p248']","[4, 10, 8]","[89.31368318402099, 93.00003341222717, 92.0152836843556]",3.0,True,9.333333333333334,3.055050463303893,2.87679672241211,0.6254454658949041
0,,sub_109,2024-07-01 14:37:26,3,distance,cathedral,numerosity_judgement,3,31,6,countries_reversed,"['_Mali_reversed', '_Congo_reversed', '_Cuba_reversed', '_Oman_reversed', '_Britain_reversed', '_Peru_reversed']","['f', 'f', 'm', 'm', 'm', 'f']","['p245', 'p268', 'p307', 'p229', 'p256', 'p284']","[8, 7, 4, 0, 10, 6]","[92.0152836843556, 91.73820004985969, 89.31368318402099, 84.40078082039426, 93.00003341222717, 91.58892582949886]",3.0,False,7.833333333333333,3.488074922742725,3.124451160430908,0.740233798660765
0,,sub_109,2024-07-01 14:37:31,3,distance,cathedral,numerosity_judgement,3,32,2,countries_reversed,"['_Oman_reversed', '_Cuba_reversed']","['m', 'm']","['p318', 'p307']","[5, 4]","[90.34149293193902, 89.31368318402099]",2.0,True,6.5,0.7071067811865476,3.562901258468628,0.6767903756667801
0,,sub_109,2024-07-01 14:37:36,3,distance,cathedral,numerosity_judgement,3,33,4,countries_reversed,"['_Peru_reversed', '_Britain_reversed', '_Yemen_reversed', '_Congo_reversed']","['m', 'f', 'f', 'm']","['p307', 'p245', 'p268', 'p256']","[6, 0, 4, 3]","[91.58892582949886, 84.40078082039426, 89.31368318402099, 89.14911522239515]",3.0,False,5.25,2.5,4.312240839004517,0.6504256043581886
0,,sub_109,2024-07-01 14:37:41,3,distance,cathedral,numerosity_judgement,3,34,5,countries_reversed,"['_Syria_reversed', '_Mali_reversed', '_Togo_reversed', '_Oman_reversed', '_Congo_reversed']","['m', 'm', 'm', 'm', 'f']","['p318', 'p229', 'p256', 'p307', 'p268']","[7, 1, 9, 10, 6]","[91.73820004985969, 86.2038576498559, 92.00610777531934, 93.00003341222717, 91.58892582949886]",4.0,False,8.6,3.5071355833500366,3.1726791858673096,0.9125297923050733
0,,sub_109,2024-07-01 14:37:45,3,distance,cathedral,numerosity_judgement,3,35,6,countries_reversed,"['_Britain_reversed', '_Oman_reversed', '_Syria_reversed', '_Togo_reversed', '_Japan_reversed', '_Tonga_reversed']","['f', 'm', 'm', 'f', 'm', 'f']","['p268', 'p318', 'p229', 'p245', 'p256', 'p284']","[0, 8, 2, 4, 6, 3]","[84.40078082039426, 92.0152836843556, 87.57049330475357, 89.31368318402099, 91.58892582949886, 89.14911522239515]",5.0,False,5.833333333333333,2.857738033247041,3.2347335815429688,0.9501305186698444
0,,sub_109,2024-07-01 14:37:50,3,distance,cathedral,numerosity_judgement,3,36,5,countries_reversed,"['_Britain_reversed', '_Syria_reversed', '_Mali_reversed', '_Belgium_reversed', '_Japan_reversed']","['f', 'f', 'f', 'm', 'm']","['p245', 'p248', 'p284', 'p256', 'p318']","[0, 6, 4, 9, 10]","[84.40078082039426, 91.58892582949886, 89.31368318402099, 92.00610777531934, 93.00003341222717]",4.0,False,7.8,4.024922359499621,3.686295509338379,0.9317898081943026
0,,sub_109,2024-07-01 14:37:53,3,distance,cathedral,numerosity_judgement,3,37,3,countries_reversed,"['_Cuba_reversed', '_Yemen_reversed', '_Peru_reversed']","['f', 'm', 'f']","['p245', 'p307', 'p248']","[7, 5, 1]","[91.73820004985969, 90.34149293193902, 86.2038576498559]",2.0,False,6.333333333333333,3.0550504633038935,1.559551477432251,0.5953013278855975
0,,sub_109,2024-07-01 14:37:57,3,distance,cathedral,numerosity_judgement,3,38,4,countries_reversed,"['_Peru_reversed', '_Mali_reversed', '_Cuba_reversed', '_Yemen_reversed']","['f', 'f', 'm', 'm']","['p284', 'p268', 'p256', 'p307']","[0, 3, 10, 8]","[84.40078082039426, 89.14911522239515, 93.00003341222717, 92.0152836843556]",2.0,False,7.25,4.573474244670748,2.437333583831787,0.7248666439677676
0,,sub_109,2024-07-01 14:38:00,3,distance,cathedral,numerosity_judgement,3,39,2,countries_reversed,"['_Mali_reversed', '_Cuba_reversed']","['m', 'f']","['p307', 'p248']","[10, 8]","[93.00003341222717, 92.0152836843556]",2.0,True,11.0,1.4142135623730951,2.110926389694214,0.627431619566451
0,,sub_109,2024-07-01 14:38:05,3,distance,cathedral,numerosity_judgement,3,40,6,countries_reversed,"['_Belgium_reversed', '_Oman_reversed', '_Syria_reversed', '_Japan_reversed', '_Tonga_reversed', '_Sudan_reversed']","['m', 'm', 'f', 'f', 'f', 'f']","['p256', 'p307', 'p245', 'p248', 'p284', 'p268']","[9, 1, 0, 2, 10, 8]","[92.00610777531934, 86.2038576498559, 84.40078082039426, 87.57049330475357, 93.00003341222717, 92.0152836843556]",3.0,False,7.0,4.47213595499958,3.110110282897949,0.9162297128589264
0,,sub_109,2024-07-01 14:38:08,3,distance,cathedral,numerosity_judgement,3,41,2,countries_reversed,"['_Tonga_reversed', '_Cuba_reversed']","['m', 'f']","['p256', 'p248']","[9, 10]","[92.00610777531934, 93.00003341222717]",2.0,True,11.5,0.7071067811865476,1.7498795986175537,0.6626830098740211
0,,sub_109,2024-07-01 14:38:11,3,distance,cathedral,numerosity_judgement,3,42,5,countries_reversed,"['_Oman_reversed', '_Britain_reversed', '_Peru_reversed', '_Togo_reversed', '_Tonga_reversed']","['m', 'f', 'm', 'f', 'f']","['p256', 'p284', 'p318', 'p268', 'p245']","[6, 5, 4, 9, 10]","[91.58892582949886, 90.34149293193902, 89.31368318402099, 92.00610777531934, 93.00003341222717]",3.0,False,8.8,2.588435821108957,1.8123745918273928,0.8143797525819998
0,,sub_109,2024-07-01 14:38:14,3,distance,cathedral,numerosity_judgement,3,43,3,countries_reversed,"['_Mali_reversed', '_Peru_reversed', '_Britain_reversed']","['f', 'f', 'm']","['p284', 'p248', 'p229']","[3, 9, 1]","[89.14911522239515, 92.00610777531934, 86.2038576498559]",2.0,False,6.333333333333333,4.163331998932266,1.5588233470916748,0.9100783112019069
0,,sub_109,2024-07-01 14:38:18,3,distance,cathedral,numerosity_judgement,3,44,4,countries_reversed,"['_Mali_reversed', '_Peru_reversed', '_Yemen_reversed', '_Tonga_reversed']","['m', 'f', 'f', 'f']","['p307', 'p284', 'p248', 'p245']","[2, 5, 9, 4]","[87.57049330475357, 90.34149293193902, 92.00610777531934, 89.31368318402099]",3.0,False,7.0,2.943920288775949,3.186218738555908,0.7872545681534445
0,,sub_109,2024-07-01 14:38:21,3,distance,cathedral,numerosity_judgement,3,45,2,countries_reversed,"['_Togo_reversed', '_Congo_reversed']","['f', 'm']","['p268', 'p307']","[2, 5]","[87.57049330475357, 90.34149293193902]",2.0,True,5.5,2.1213203435596424,2.1248528957366943,0.8283168766314833
0,,sub_109,2024-07-01 14:38:25,3,distance,cathedral,numerosity_judgement,3,46,4,countries_reversed,"['_Oman_reversed', '_Yemen_reversed', '_Britain_reversed', '_Mali_reversed']","['m', 'm', 'm', 'm']","['p229', 'p318', 'p307', 'p256']","[5, 7, 9, 6]","[90.34149293193902, 91.73820004985969, 92.00610777531934, 91.58892582949886]",2.0,False,8.75,1.707825127659933,2.1723992824554443,0.6135966405629327
0,,sub_109,2024-07-01 14:38:29,3,distance,cathedral,numerosity_judgement,3,47,5,countries_reversed,"['_Cuba_reversed', '_Congo_reversed', '_Sudan_reversed', '_Yemen_reversed', '_Oman_reversed']","['m', 'f', 'f', 'f', 'm']","['p318', 'p245', 'p284', 'p268', 'p307']","[5, 9, 1, 7, 4]","[90.34149293193902, 92.00610777531934, 86.2038576498559, 91.73820004985969, 89.31368318402099]",4.0,False,7.2,3.03315017762062,2.4966394901275635,0.7267620020429009
0,,sub_109,2024-07-01 14:38:34,3,distance,cathedral,numerosity_judgement,3,48,6,countries_reversed,"['_Tonga_reversed', '_Britain_reversed', '_Yemen_reversed', '_Syria_reversed', '_Oman_reversed', '_Cuba_reversed']","['f', 'm', 'f', 'm', 'f', 'f']","['p248', 'p307', 'p284', 'p256', 'p245', 'p268']","[2, 6, 7, 8, 10, 3]","[87.57049330475357, 91.58892582949886, 91.73820004985969, 92.0152836843556, 93.00003341222717, 89.14911522239515]",4.0,False,8.0,3.03315017762062,3.6803739070892334,0.7033934854159574
0,,sub_109,2024-07-01 14:38:37,3,distance,cathedral,numerosity_judgement,3,49,3,countries_reversed,"['_Syria_reversed', '_Sudan_reversed', '_Togo_reversed']","['m', 'm', 'f']","['p318', 'p229', 'p248']","[1, 9, 3]","[86.2038576498559, 92.00610777531934, 89.14911522239515]",3.0,True,6.333333333333333,4.163331998932266,2.4998278617858887,0.9655998184088072
0,,sub_109,2024-07-01 14:38:43,3,distance,cathedral,numerosity_judgement,3,50,6,countries_reversed,"['_Mali_reversed', '_Japan_reversed', '_Peru_reversed', '_Tonga_reversed', '_Cuba_reversed', '_Sudan_reversed']","['f', 'm', 'f', 'f', 'f', 'm']","['p248', 'p318', 'p268', 'p284', 'p245', 'p256']","[4, 3, 9, 5, 7, 2]","[89.31368318402099, 89.14911522239515, 92.00610777531934, 90.34149293193902, 91.73820004985969, 87.57049330475357]",4.0,False,7.0,2.6076809620810595,3.752753496170044,0.8048121666099194
0,,sub_109,2024-07-01 14:38:46,3,distance,cathedral,numerosity_judgement,3,51,4,countries_reversed,"['_Togo_reversed', '_Japan_reversed', '_Congo_reversed', '_Sudan_reversed']","['f', 'f', 'm', 'f']","['p248', 'p284', 'p256', 'p268']","[2, 9, 4, 8]","[87.57049330475357, 92.00610777531934, 89.31368318402099, 92.0152836843556]",3.0,False,7.75,3.304037933599835,2.176065444946289,0.9492339121552604
0,,sub_109,2024-07-01 14:38:49,3,distance,cathedral,numerosity_judgement,3,52,3,countries_reversed,"['_Peru_reversed', '_Oman_reversed', '_Sudan_reversed']","['f', 'm', 'f']","['p284', 'p307', 'p248']","[2, 0, 4]","[87.57049330475357, 84.40078082039426, 89.31368318402099]",2.0,False,4.0,2.0,1.617142915725708,0.9192827147883328
0,,sub_109,2024-07-01 14:38:52,3,distance,cathedral,numerosity_judgement,3,53,2,countries_reversed,"['_Oman_reversed', '_Yemen_reversed']","['m', 'f']","['p256', 'p245']","[3, 5]","[89.14911522239515, 90.34149293193902]",2.0,True,6.0,1.4142135623730951,2.187347650527954,0.5576552037226195
0,,sub_109,2024-07-01 14:38:55,3,distance,cathedral,numerosity_judgement,3,54,5,countries_reversed,"['_Britain_reversed', '_Togo_reversed', '_Oman_reversed', '_Cuba_reversed', '_Syria_reversed']","['m', 'm', 'm', 'f', 'f']","['p256', 'p229', 'p307', 'p268', 'p248']","[0, 1, 9, 6, 2]","[84.40078082039426, 86.2038576498559, 92.00610777531934, 91.58892582949886, 87.57049330475357]",3.0,False,5.6,3.7815340802378072,1.6743619441986084,0.6839859266825559
0,,sub_109,2024-07-01 14:38:58,3,distance,cathedral,numerosity_judgement,3,55,2,countries_reversed,"['_Peru_reversed', '_Oman_reversed']","['m', 'm']","['p307', 'p256']","[1, 5]","[86.2038576498559, 90.34149293193902]",2.0,True,5.0,2.8284271247461903,1.8096952438354492,0.5986721144024515
0,,sub_109,2024-07-01 14:39:02,3,distance,cathedral,numerosity_judgement,3,56,5,countries_reversed,"['_Tonga_reversed', '_Oman_reversed', '_Togo_reversed', '_Congo_reversed', '_Peru_reversed']","['m', 'm', 'm', 'f', 'm']","['p307', 'p318', 'p229', 'p284', 'p256']","[3, 6, 10, 2, 7]","[89.14911522239515, 91.58892582949886, 93.00003341222717, 87.57049330475357, 91.73820004985969]",3.0,False,7.6,3.2093613071762426,2.7498104572296143,0.8682669390534559
0,,sub_109,2024-07-01 14:39:07,3,distance,cathedral,numerosity_judgement,3,57,6,countries_reversed,"['_Oman_reversed', '_Yemen_reversed', '_Tonga_reversed', '_Britain_reversed', '_Mali_reversed', '_Belgium_reversed']","['f', 'm', 'f', 'm', 'm', 'f']","['p284', 'p307', 'p248', 'p256', 'p229', 'p245']","[2, 9, 4, 10, 5, 6]","[87.57049330475357, 92.00610777531934, 89.31368318402099, 93.00003341222717, 90.34149293193902, 91.58892582949886]",4.0,False,8.0,3.03315017762062,3.188171148300171,0.8652139371240495
0,,sub_109,2024-07-01 14:39:11,3,distance,cathedral,numerosity_judgement,3,58,4,countries_reversed,"['_Peru_reversed', '_Congo_reversed', '_Sudan_reversed', '_Oman_reversed']","['m', 'f', 'm', 'f']","['p318', 'p284', 'p229', 'p248']","[3, 0, 6, 7]","[89.14911522239515, 84.40078082039426, 91.58892582949886, 91.73820004985969]",3.0,False,6.0,3.1622776601683795,2.4858648777008057,0.93464986948133
0,,sub_109,2024-07-01 14:39:15,3,distance,cathedral,numerosity_judgement,3,59,3,countries_reversed,"['_Oman_reversed', '_Peru_reversed', '_Congo_reversed']","['m', 'f', 'f']","['p307', 'p268', 'p284']","[5, 6, 3]","[90.34149293193902, 91.58892582949886, 89.14911522239515]",3.0,True,6.666666666666667,1.5275252316519463,3.422569513320923,0.6465781409601634
0,,sub_109,2024-07-01 14:39:19,3,distance,cathedral,numerosity_judgement,3,60,6,countries_reversed,"['_Tonga_reversed', '_Japan_reversed', '_Sudan_reversed', '_Britain_reversed', '_Peru_reversed', '_Togo_reversed']","['f', 'm', 'm', 'f', 'm', 'f']","['p248', 'p229', 'p256', 'p284', 'p307', 'p268']","[1, 10, 0, 2, 9, 6]","[86.2038576498559, 93.00003341222717, 84.40078082039426, 87.57049330475357, 92.00610777531934, 91.58892582949886]",4.0,False,6.666666666666667,4.273952113286562,2.2448015213012695,0.9314493247077515
0,,sub_109,2024-07-01 14:39:22,3,distance,cathedral,numerosity_judgement,3,61,5,countries_reversed,"['_Britain_reversed', '_Belgium_reversed', '_Yemen_reversed', '_Oman_reversed', '_Cuba_reversed']","['f', 'm', 'm', 'm', 'f']","['p248', 'p318', 'p229', 'p256', 'p268']","[8, 4, 7, 0, 3]","[92.0152836843556, 89.31368318402099, 91.73820004985969, 84.40078082039426, 89.14911522239515]",3.0,False,6.4,3.2093613071762426,1.874870538711548,0.6562705708773124
0,,sub_109,2024-07-01 14:39:25,3,distance,cathedral,numerosity_judgement,3,62,2,countries_reversed,"['_Togo_reversed', '_Yemen_reversed']","['m', 'f']","['p256', 'p268']","[0, 2]","[84.40078082039426, 87.57049330475357]",2.0,True,3.0,1.4142135623730951,1.9873859882354736,0.9382589944387696
0,,sub_109,2024-07-01 14:39:28,3,distance,cathedral,numerosity_judgement,3,63,4,countries_reversed,"['_Cuba_reversed', '_Peru_reversed', '_Congo_reversed', '_Oman_reversed']","['f', 'f', 'f', 'm']","['p248', 'p245', 'p268', 'p256']","[9, 3, 6, 10]","[92.00610777531934, 89.14911522239515, 91.58892582949886, 93.00003341222717]",4.0,True,9.0,3.1622776601683795,1.5603156089782717,0.6615594143684032
0,,sub_109,2024-07-01 14:39:31,3,distance,cathedral,numerosity_judgement,3,64,3,countries_reversed,"['_Yemen_reversed', '_Tonga_reversed', '_Mali_reversed']","['f', 'f', 'f']","['p248', 'p245', 'p284']","[9, 7, 0]","[92.00610777531934, 91.73820004985969, 84.40078082039426]",3.0,True,7.333333333333333,4.725815626252608,1.7498149871826172,0.8092157530359777
0,,sub_109,2024-07-01 14:39:35,3,distance,cathedral,numerosity_judgement,3,65,4,countries_reversed,"['_Tonga_reversed', '_Belgium_reversed', '_Cuba_reversed', '_Sudan_reversed']","['f', 'f', 'm', 'm']","['p248', 'p268', 'p318', 'p229']","[1, 5, 9, 10]","[86.2038576498559, 90.34149293193902, 92.00610777531934, 93.00003341222717]",3.0,False,8.25,4.112987559751022,2.500701427459717,0.877618885484054
0,,sub_109,2024-07-01 14:39:39,3,distance,cathedral,numerosity_judgement,3,66,6,countries_reversed,"['_Britain_reversed', '_Oman_reversed', '_Cuba_reversed', '_Yemen_reversed', '_Sudan_reversed', '_Tonga_reversed']","['m', 'f', 'f', 'm', 'm', 'f']","['p307', 'p268', 'p248', 'p229', 'p256', 'p245']","[1, 7, 9, 2, 3, 6]","[86.2038576498559, 91.73820004985969, 92.00610777531934, 87.57049330475357, 89.14911522239515, 91.58892582949886]",4.0,False,6.666666666666667,3.141125063837266,3.29667067527771,0.7810577686982182
0,,sub_109,2024-07-01 14:39:44,3,distance,cathedral,numerosity_judgement,3,67,5,countries_reversed,"['_Oman_reversed', '_Yemen_reversed', '_Japan_reversed', '_Congo_reversed', '_Tonga_reversed']","['m', 'm', 'f', 'f', 'm']","['p229', 'p256', 'p245', 'p284', 'p307']","[7, 9, 8, 4, 5]","[91.73820004985969, 92.00610777531934, 92.0152836843556, 89.31368318402099, 90.34149293193902]",3.0,False,8.6,2.073644135332772,3.5476224422454834,0.785518102372035
0,,sub_109,2024-07-01 14:39:47,3,distance,cathedral,numerosity_judgement,3,68,2,countries_reversed,"['_Togo_reversed', '_Sudan_reversed']","['f', 'f']","['p248', 'p268']","[1, 4]","[86.2038576498559, 89.31368318402099]",2.0,True,4.5,2.1213203435596424,1.7498798370361328,0.956962887299966
0,,sub_109,2024-07-01 14:39:54,3,distance,cathedral,numerosity_judgement,3,69,3,countries_reversed,"['_Britain_reversed', '_Oman_reversed', '_Congo_reversed']","['m', 'm', 'm']","['p229', 'p256', 'p307']","[10, 7, 8]","[93.00003341222717, 91.73820004985969, 92.0152836843556]",2.0,False,10.333333333333334,1.5275252316519468,5.044578790664673,0.6780955623652253
0,,sub_109,2024-07-01 14:39:57,3,distance,cathedral,numerosity_judgement,3,70,4,countries_reversed,"['_Britain_reversed', '_Cuba_reversed', '_Oman_reversed', '_Syria_reversed']","['m', 'm', 'f', 'f']","['p256', 'p307', 'p268', 'p245']","[8, 5, 10, 3]","[92.0152836843556, 90.34149293193902, 93.00003341222717, 89.14911522239515]",3.0,False,8.5,3.1091263510296048,1.6873831748962402,0.7520826239927364
0,,sub_109,2024-07-01 14:40:01,3,distance,cathedral,numerosity_judgement,3,71,6,countries_reversed,"['_Belgium_reversed', '_Peru_reversed', '_Togo_reversed', '_Yemen_reversed', '_Cuba_reversed', '_Japan_reversed']","['f', 'f', 'f', 'm', 'm', 'f']","['p245', 'p268', 'p284', 'p318', 'p256', 'p248']","[3, 8, 7, 9, 10, 0]","[89.14911522239515, 92.0152836843556, 91.73820004985969, 92.00610777531934, 93.00003341222717, 84.40078082039426]",4.0,False,8.166666666666666,3.8686776379877745,2.8591761589050293,0.7997503121098627
0,,sub_109,2024-07-01 14:40:05,3,distance,cathedral,numerosity_judgement,3,72,5,countries_reversed,"['_Cuba_reversed', '_Sudan_reversed', '_Mali_reversed', '_Oman_reversed', '_Japan_reversed']","['f', 'm', 'm', 'm', 'm']","['p284', 'p256', 'p229', 'p307', 'p318']","[0, 5, 2, 9, 6]","[84.40078082039426, 90.34149293193902, 87.57049330475357, 92.00610777531934, 91.58892582949886]",2.0,False,6.4,3.5071355833500366,3.1098153591156006,0.8346385200317784
0,,sub_109,2024-07-01 14:40:08,3,distance,cathedral,numerosity_judgement,3,73,3,countries_reversed,"['_Cuba_reversed', '_Britain_reversed', '_Peru_reversed']","['f', 'm', 'm']","['p248', 'p318', 'p307']","[7, 9, 5]","[91.73820004985969, 92.00610777531934, 90.34149293193902]",2.0,False,9.0,2.0,1.9989497661590576,0.8337305640676427
0,,sub_109,2024-07-01 14:40:13,3,distance,cathedral,numerosity_judgement,3,74,2,countries_reversed,"['_Japan_reversed', '_Yemen_reversed']","['m', 'f']","['p256', 'p245']","[1, 5]","[86.2038576498559, 90.34149293193902]",2.0,True,5.0,2.8284271247461903,3.249776840209961,0.7266258086482805
0,,sub_109,2024-07-01 14:41:10,3,distance,cathedral,numerosity_judgement,4,0,2,countries_reversed,"['_Belgium_reversed', '_Sudan_reversed']","['f', 'f']","['p248', 'p268']","[1, 10]","[86.2038576498559, 93.00003341222717]",2.0,True,7.5,6.363961030678928,2.236206293106079,0.9739076154806492
0,,sub_109,2024-07-01 14:41:14,3,distance,cathedral,numerosity_judgement,4,1,6,countries_reversed,"['_Japan_reversed', '_Oman_reversed', '_Sudan_reversed', '_Britain_reversed', '_Syria_reversed', '_Cuba_reversed']","['m', 'm', 'm', 'm', 'f', 'f']","['p307', 'p256', 'p229', 'p318', 'p245', 'p268']","[9, 2, 5, 6, 0, 1]","[92.00610777531934, 87.57049330475357, 90.34149293193902, 91.58892582949886, 84.40078082039426, 86.2038576498559]",3.0,False,5.833333333333333,3.430257521916783,2.796630859375,0.9330609465440928
0,,sub_109,2024-07-01 14:41:17,3,distance,cathedral,numerosity_judgement,4,2,4,countries_reversed,"['_Mali_reversed', '_Japan_reversed', '_Sudan_reversed', '_Peru_reversed']","['m', 'm', 'f', 'f']","['p256', 'p229', 'p268', 'p284']","[1, 6, 10, 0]","[86.2038576498559, 91.58892582949886, 93.00003341222717, 84.40078082039426]",3.0,False,6.25,4.645786621588784,1.5623924732208252,0.9528770854613552
0,,sub_109,2024-07-01 14:41:21,3,distance,cathedral,numerosity_judgement,4,3,5,countries_reversed,"['_Tonga_reversed', '_Syria_reversed', '_Sudan_reversed', '_Congo_reversed', '_Togo_reversed']","['f', 'm', 'm', 'f', 'm']","['p268', 'p318', 'p307', 'p248', 'p256']","[8, 6, 0, 3, 4]","[92.0152836843556, 91.58892582949886, 84.40078082039426, 89.14911522239515, 89.31368318402099]",3.0,False,6.2,3.03315017762062,2.109830141067505,0.9365111792078084
0,,sub_109,2024-07-01 14:41:25,3,distance,cathedral,numerosity_judgement,4,4,3,countries_reversed,"['_Britain_reversed', '_Japan_reversed', '_Sudan_reversed']","['f', 'f', 'm']","['p268', 'p248', 'p307']","[10, 7, 3]","[93.00003341222717, 91.73820004985969, 89.14911522239515]",2.0,False,8.666666666666666,3.511884584284246,3.171679735183716,0.8164907501986154
0,,sub_109,2024-07-01 14:41:28,3,distance,cathedral,numerosity_judgement,4,5,6,countries_reversed,"['_Peru_reversed', '_Congo_reversed', '_Belgium_reversed', '_Oman_reversed', '_Britain_reversed', '_Yemen_reversed']","['m', 'm', 'f', 'm', 'f', 'm']","['p256', 'p318', 'p268', 'p229', 'p248', 'p307']","[5, 3, 1, 6, 2, 8]","[90.34149293193902, 89.14911522239515, 86.2038576498559, 91.58892582949886, 87.57049330475357, 92.0152836843556]",3.0,False,6.166666666666667,2.6394443859772205,1.6248323917388916,0.8114629440472138
0,,sub_109,2024-07-01 14:41:31,3,distance,cathedral,numerosity_judgement,4,6,2,countries_reversed,"['_Belgium_reversed', '_Britain_reversed']","['f', 'm']","['p245', 'p318']","[7, 2]","[91.73820004985969, 87.57049330475357]",2.0,True,6.5,3.5355339059327378,1.3749241828918457,0.9073884916581546
0,,sub_109,2024-07-01 14:41:34,3,distance,cathedral,numerosity_judgement,4,7,3,countries_reversed,"['_Tonga_reversed', '_Japan_reversed', '_Yemen_reversed']","['m', 'f', 'm']","['p307', 'p268', 'p229']","[0, 5, 7]","[84.40078082039426, 90.34149293193902, 91.73820004985969]",2.0,False,6.0,3.605551275463989,1.4976379871368408,0.9176370446033368
0,,sub_109,2024-07-01 14:41:39,3,distance,cathedral,numerosity_judgement,4,8,4,countries_reversed,"['_Belgium_reversed', '_Cuba_reversed', '_Yemen_reversed', '_Britain_reversed']","['m', 'm', 'm', 'm']","['p256', 'p318', 'p229', 'p307']","[7, 8, 6, 4]","[91.73820004985969, 92.0152836843556, 91.58892582949886, 89.31368318402099]",2.0,False,8.25,1.707825127659933,3.806872129440307,0.8693564862104188
0,,sub_109,2024-07-01 14:41:42,3,distance,cathedral,numerosity_judgement,4,9,5,countries_reversed,"['_Japan_reversed', '_Congo_reversed', '_Syria_reversed', '_Yemen_reversed', '_Sudan_reversed']","['m', 'm', 'f', 'f', 'f']","['p256', 'p229', 'p284', 'p248', 'p245']","[7, 6, 8, 4, 3]","[91.73820004985969, 91.58892582949886, 92.0152836843556, 89.31368318402099, 89.14911522239515]",4.0,False,7.6,2.073644135332772,2.437338352203369,0.8699126092384519
0,,sub_109,2024-07-01 14:41:46,3,distance,cathedral,numerosity_judgement,4,10,6,countries_reversed,"['_Syria_reversed', '_Yemen_reversed', '_Oman_reversed', '_Peru_reversed', '_Sudan_reversed', '_Cuba_reversed']","['m', 'f', 'm', 'f', 'f', 'm']","['p256', 'p248', 'p307', 'p268', 'p284', 'p318']","[2, 3, 5, 6, 0, 10]","[87.57049330475357, 89.14911522239515, 90.34149293193902, 91.58892582949886, 84.40078082039426, 93.00003341222717]",4.0,False,6.333333333333333,3.5023801430836525,1.9241883754730225,0.6612870275791624
0,,sub_109,2024-07-01 14:41:49,3,distance,cathedral,numerosity_judgement,4,11,4,countries_reversed,"['_Cuba_reversed', '_Peru_reversed', '_Yemen_reversed', '_Sudan_reversed']","['m', 'm', 'f', 'm']","['p307', 'p318', 'p248', 'p229']","[6, 0, 3, 1]","[91.58892582949886, 84.40078082039426, 89.14911522239515, 86.2038576498559]",2.0,False,4.5,2.6457513110645907,1.9328184127807615,0.8351946430598116
0,,sub_109,2024-07-01 14:41:53,3,distance,cathedral,numerosity_judgement,4,12,3,countries_reversed,"['_Syria_reversed', '_Peru_reversed', '_Yemen_reversed']","['m', 'm', 'm']","['p307', 'p256', 'p318']","[1, 5, 8]","[86.2038576498559, 90.34149293193902, 92.0152836843556]",2.0,False,6.666666666666667,3.5118845842842465,2.3123414516448975,0.8557144478492793
0,,sub_109,2024-07-01 14:41:56,3,distance,cathedral,numerosity_judgement,4,13,5,countries_reversed,"['_Congo_reversed', '_Cuba_reversed', '_Peru_reversed', '_Japan_reversed', '_Britain_reversed']","['m', 'm', 'f', 'f', 'm']","['p307', 'p229', 'p268', 'p248', 'p256']","[6, 10, 8, 3, 2]","[91.58892582949886, 93.00003341222717, 92.0152836843556, 89.14911522239515, 87.57049330475357]",2.0,False,7.8,3.3466401061363023,2.5480711460113525,0.7490863693110884
0,,sub_109,2024-07-01 14:41:59,3,distance,cathedral,numerosity_judgement,4,14,2,countries_reversed,"['_Mali_reversed', '_Tonga_reversed']","['f', 'f']","['p248', 'p245']","[10, 6]","[93.00003341222717, 91.58892582949886]",2.0,True,10.0,2.8284271247461903,1.433056116104126,0.6948927477017365
0,,sub_109,2024-07-01 14:42:02,3,distance,cathedral,numerosity_judgement,4,15,6,countries_reversed,"['_Mali_reversed', '_Sudan_reversed', '_Britain_reversed', '_Peru_reversed', '_Togo_reversed', '_Oman_reversed']","['m', 'f', 'f', 'f', 'm', 'm']","['p307', 'p245', 'p268', 'p248', 'p229', 'p318']","[4, 5, 0, 9, 10, 6]","[89.31368318402099, 90.34149293193902, 84.40078082039426, 92.00610777531934, 93.00003341222717, 91.58892582949886]",3.0,False,7.666666666666667,3.614784456460256,1.6873836517333984,0.9025536261491318
0,,sub_109,2024-07-01 14:42:05,3,distance,cathedral,numerosity_judgement,4,16,2,countries_reversed,"['_Oman_reversed', '_Peru_reversed']","['m', 'f']","['p307', 'p268']","[4, 8]","[89.31368318402099, 92.0152836843556]",2.0,True,8.0,2.8284271247461903,2.0481081008911133,0.6680512995119736
0,,sub_109,2024-07-01 14:42:10,3,distance,cathedral,numerosity_judgement,4,17,5,countries_reversed,"['_Togo_reversed', '_Tonga_reversed', '_Oman_reversed', '_Mali_reversed', '_Yemen_reversed']","['f', 'm', 'm', 'm', 'f']","['p245', 'p256', 'p307', 'p318', 'p248']","[10, 3, 6, 9, 5]","[93.00003341222717, 89.14911522239515, 91.58892582949886, 92.00610777531934, 90.34149293193902]",3.0,False,8.6,2.8809720581775866,3.7341465950012207,0.6536828963795256
0,,sub_109,2024-07-01 14:42:14,3,distance,cathedral,numerosity_judgement,4,18,4,countries_reversed,"['_Peru_reversed', '_Tonga_reversed', '_Cuba_reversed', '_Britain_reversed']","['m', 'm', 'm', 'm']","['p256', 'p229', 'p307', 'p318']","[6, 3, 7, 9]","[91.58892582949886, 89.14911522239515, 91.73820004985969, 92.00610777531934]",2.0,False,8.25,2.5,2.678079128265381,0.6868913857677903
0,,sub_109,2024-07-01 14:42:18,3,distance,cathedral,numerosity_judgement,4,19,3,countries_reversed,"['_Oman_reversed', '_Britain_reversed', '_Congo_reversed']","['f', 'm', 'm']","['p245', 'p307', 'p318']","[6, 10, 3]","[91.58892582949886, 93.00003341222717, 89.14911522239515]",3.0,True,8.333333333333334,3.511884584284246,2.8749444484710693,0.7068664169787765
0,,sub_109,2024-07-01 14:42:23,3,distance,cathedral,numerosity_judgement,4,20,4,countries_reversed,"['_Britain_reversed', '_Peru_reversed', '_Oman_reversed', '_Syria_reversed']","['m', 'f', 'm', 'm']","['p318', 'p245', 'p229', 'p256']","[6, 9, 7, 5]","[91.58892582949886, 92.00610777531934, 91.73820004985969, 90.34149293193902]",2.0,False,8.75,1.707825127659933,3.18727970123291,0.6560549313358303
0,,sub_109,2024-07-01 14:42:26,3,distance,cathedral,numerosity_judgement,4,21,2,countries_reversed,"['_Cuba_reversed', '_Tonga_reversed']","['f', 'f']","['p284', 'p248']","[7, 6]","[91.73820004985969, 91.58892582949886]",2.0,True,8.5,0.7071067811865476,2.2532198429107666,0.8308591533310634
0,,sub_109,2024-07-01 14:42:30,3,distance,cathedral,numerosity_judgement,4,22,3,countries_reversed,"['_Cuba_reversed', '_Yemen_reversed', '_Peru_reversed']","['f', 'm', 'f']","['p245', 'p307', 'p248']","[7, 5, 1]","[91.73820004985969, 90.34149293193902, 86.2038576498559]",2.0,False,6.333333333333333,3.0550504633038935,2.5487325191497803,0.5953013278855975
0,,sub_109,2024-07-01 14:42:34,3,distance,cathedral,numerosity_judgement,4,23,6,countries_reversed,"['_Tonga_reversed', '_Sudan_reversed', '_Togo_reversed', '_Peru_reversed', '_Mali_reversed', '_Britain_reversed']","['m', 'm', 'f', 'f', 'f', 'm']","['p307', 'p318', 'p284', 'p268', 'p248', 'p256']","[8, 6, 0, 7, 5, 10]","[92.0152836843556, 91.58892582949886, 84.40078082039426, 91.73820004985969, 90.34149293193902, 93.00003341222717]",4.0,False,8.0,3.40587727318528,2.8096230030059814,0.8762002042900919
0,,sub_109,2024-07-01 14:42:39,3,distance,cathedral,numerosity_judgement,4,24,5,countries_reversed,"['_Belgium_reversed', '_Yemen_reversed', '_Tonga_reversed', '_Oman_reversed', '_Britain_reversed']","['m', 'f', 'f', 'f', 'm']","['p307', 'p268', 'p245', 'p284', 'p256']","[2, 3, 0, 9, 10]","[87.57049330475357, 89.14911522239515, 84.40078082039426, 92.00610777531934, 93.00003341222717]",3.0,False,6.8,4.43846820423443,3.122127056121826,0.7856996935648621
0,,sub_109,2024-07-01 14:42:41,3,distance,cathedral,numerosity_judgement,4,25,4,countries_reversed,"['_Japan_reversed', '_Britain_reversed', '_Belgium_reversed', '_Peru_reversed']","['f', 'm', 'm', 'm']","['p268', 'p256', 'p307', 'p318']","[3, 8, 9, 6]","[89.14911522239515, 92.0152836843556, 92.00610777531934, 91.58892582949886]",2.0,False,8.5,2.6457513110645907,1.4374005794525146,0.8203836113948474
0,,sub_109,2024-07-01 14:42:46,3,distance,cathedral,numerosity_judgement,4,26,3,countries_reversed,"['_Tonga_reversed', '_Belgium_reversed', '_Togo_reversed']","['m', 'f', 'f']","['p256', 'p268', 'p248']","[5, 4, 9]","[90.34149293193902, 89.31368318402099, 92.00610777531934]",2.0,False,8.0,2.6457513110645907,2.9214417934417725,0.7757008285098173
0,,sub_109,2024-07-01 14:42:48,3,distance,cathedral,numerosity_judgement,4,27,2,countries_reversed,"['_Togo_reversed', '_Cuba_reversed']","['f', 'f']","['p268', 'p245']","[5, 10]","[90.34149293193902, 93.00003341222717]",2.0,True,9.5,3.5355339059327378,1.437401294708252,0.7666212688684598
0,,sub_109,2024-07-01 14:42:52,3,distance,cathedral,numerosity_judgement,4,28,6,countries_reversed,"['_Peru_reversed', '_Cuba_reversed', '_Mali_reversed', '_Yemen_reversed', '_Japan_reversed', '_Oman_reversed']","['f', 'm', 'm', 'f', 'm', 'm']","['p245', 'p256', 'p307', 'p248', 'p318', 'p229']","[0, 8, 10, 4, 5, 7]","[84.40078082039426, 92.0152836843556, 93.00003341222717, 89.31368318402099, 90.34149293193902, 91.73820004985969]",3.0,False,7.666666666666667,3.5023801430836525,2.1873490810394287,0.7655884689592555
0,,sub_109,2024-07-01 14:42:56,3,distance,cathedral,numerosity_judgement,4,29,5,countries_reversed,"['_Cuba_reversed', '_Togo_reversed', '_Mali_reversed', '_Yemen_reversed', '_Congo_reversed']","['m', 'm', 'm', 'f', 'm']","['p318', 'p307', 'p229', 'p268', 'p256']","[5, 4, 3, 10, 7]","[90.34149293193902, 89.31368318402099, 89.14911522239515, 93.00003341222717, 91.73820004985969]",2.0,False,7.8,2.7748873851023212,3.3582794666290283,0.7009306548632391
0,,sub_109,2024-07-01 14:43:00,3,distance,cathedral,numerosity_judgement,4,30,4,countries_reversed,"['_Mali_reversed', '_Sudan_reversed', '_Togo_reversed', '_Oman_reversed']","['m', 'm', 'f', 'm']","['p307', 'p318', 'p248', 'p229']","[10, 7, 0, 1]","[93.00003341222717, 91.73820004985969, 84.40078082039426, 86.2038576498559]",2.0,False,6.5,4.795831523312719,2.1726768016815186,0.7977074111905572
0,,sub_109,2024-07-01 14:43:03,3,distance,cathedral,numerosity_judgement,4,31,3,countries_reversed,"['_Mali_reversed', '_Togo_reversed', '_Japan_reversed']","['f', 'm', 'f']","['p248', 'p256', 'p284']","[1, 9, 0]","[86.2038576498559, 92.00610777531934, 84.40078082039426]",3.0,True,5.333333333333333,4.932882862316247,1.6873829364776611,0.9539212348201112
0,,sub_109,2024-07-01 14:43:07,3,distance,cathedral,numerosity_judgement,4,32,6,countries_reversed,"['_Oman_reversed', '_Japan_reversed', '_Togo_reversed', '_Yemen_reversed', '_Peru_reversed', '_Congo_reversed']","['m', 'f', 'm', 'm', 'f', 'f']","['p256', 'p268', 'p307', 'p229', 'p284', 'p248']","[8, 7, 4, 9, 10, 6]","[92.0152836843556, 91.73820004985969, 89.31368318402099, 92.00610777531934, 93.00003341222717, 91.58892582949886]",3.0,False,9.333333333333334,2.160246899469287,3.001375913619995,0.8428441720576552
0,,sub_109,2024-07-01 14:43:10,3,distance,cathedral,numerosity_judgement,4,33,2,countries_reversed,"['_Oman_reversed', '_Cuba_reversed']","['m', 'm']","['p307', 'p318']","[9, 6]","[92.00610777531934, 91.58892582949886]",2.0,True,9.5,2.1213203435596424,1.610280990600586,0.7182953126773352
0,,sub_109,2024-07-01 14:43:14,3,distance,cathedral,numerosity_judgement,4,34,5,countries_reversed,"['_Syria_reversed', '_Congo_reversed', '_Mali_reversed', '_Japan_reversed', '_Sudan_reversed']","['f', 'f', 'm', 'm', 'm']","['p268', 'p284', 'p256', 'p229', 'p318']","[8, 4, 2, 0, 10]","[92.0152836843556, 89.31368318402099, 87.57049330475357, 84.40078082039426, 93.00003341222717]",3.0,False,6.8,4.147288270665544,2.373283863067627,0.9603450232663716
