,event_id,subject_id,timestamp,session_index,plane,setup,task,block,trial_index,stim_number,stim_type,stim_country_ids,stim_sexes,stim_talker_ids,speaker_ids,stim_level,resp_number,is_correct,speaker_distance_mean,speaker_distance_st_dev,reaction_time,spectral_coverage
0,,sub_112,2024-07-19 09:32:02,3,distance,cathedral,numerosity_judgement,1,0,6,countries_forward,"['_Tonga_', '_Peru_', '_Britain_', '_Oman_', '_Yemen_', '_Mali_']","['f', 'f', 'm', 'f', 'm', 'f']","['p245', 'p268', 'p318', 'p248', 'p307', 'p284']","[10, 8, 6, 9, 2, 7]","[93.00003341222717, 92.0152836843556, 91.58892582949886, 92.00610777531934, 87.57049330475357, 91.73820004985969]",2.0,False,9.0,2.8284271247461903,41.129576206207275,0.7124843945068664
0,,sub_112,2024-07-19 09:32:05,3,distance,cathedral,numerosity_judgement,1,1,3,countries_forward,"['_Yemen_', '_Congo_', '_Peru_']","['m', 'm', 'f']","['p256', 'p307', 'p268']","[10, 7, 4]","[93.00003341222717, 91.73820004985969, 89.31368318402099]",2.0,False,9.0,3.0,1.6876952648162842,0.6730791056633754
0,,sub_112,2024-07-19 09:32:10,3,distance,cathedral,numerosity_judgement,1,2,4,countries_forward,"['_Cuba_', '_Yemen_', '_Congo_', '_Oman_']","['m', 'f', 'f', 'f']","['p307', 'p268', 'p245', 'p248']","[7, 8, 4, 3]","[91.73820004985969, 92.0152836843556, 89.31368318402099, 89.14911522239515]",2.0,False,7.5,2.3804761428476167,3.062840223312378,0.629043241402792
0,,sub_112,2024-07-19 09:32:13,3,distance,cathedral,numerosity_judgement,1,3,2,countries_forward,"['_Cuba_', '_Congo_']","['f', 'f']","['p248', 'p284']","[8, 2]","[92.0152836843556, 87.57049330475357]",2.0,True,7.0,4.242640687119285,1.375154733657837,0.8217682442401544
0,,sub_112,2024-07-19 09:32:16,3,distance,cathedral,numerosity_judgement,1,4,5,countries_forward,"['_Cuba_', '_Japan_', '_Yemen_', '_Peru_', '_Togo_']","['f', 'm', 'f', 'm', 'm']","['p245', 'p318', 'p284', 'p229', 'p307']","[1, 2, 8, 6, 3]","[86.2038576498559, 87.57049330475357, 92.0152836843556, 91.58892582949886, 89.14911522239515]",2.0,False,6.0,2.9154759474226504,1.562673568725586,0.8583475201452729
0,,sub_112,2024-07-19 09:32:21,3,distance,cathedral,numerosity_judgement,1,5,6,countries_forward,"['_Syria_', '_Japan_', '_Britain_', '_Cuba_', '_Oman_', '_Togo_']","['m', 'f', 'f', 'm', 'f', 'f']","['p256', 'p284', 'p268', 'p318', 'p245', 'p248']","[2, 7, 8, 3, 4, 9]","[87.57049330475357, 91.73820004985969, 92.0152836843556, 89.14911522239515, 89.31368318402099, 92.00610777531934]",3.0,False,7.5,2.8809720581775866,2.5628106594085693,0.8655544206106004
0,,sub_112,2024-07-19 09:32:25,3,distance,cathedral,numerosity_judgement,1,6,5,countries_forward,"['_Peru_', '_Yemen_', '_Sudan_', '_Belgium_', '_Togo_']","['m', 'm', 'f', 'f', 'f']","['p229', 'p307', 'p248', 'p268', 'p245']","[0, 4, 9, 3, 10]","[84.40078082039426, 89.31368318402099, 92.00610777531934, 89.14911522239515, 93.00003341222717]",2.0,False,7.2,4.207136793592526,2.4377706050872803,0.9173079105663376
0,,sub_112,2024-07-19 09:32:28,3,distance,cathedral,numerosity_judgement,1,7,2,countries_forward,"['_Japan_', '_Belgium_']","['m', 'm']","['p318', 'p256']","[1, 10]","[86.2038576498559, 93.00003341222717]",2.0,True,7.5,6.363961030678928,1.9377155303955078,0.8900238338440586
0,,sub_112,2024-07-19 09:32:32,3,distance,cathedral,numerosity_judgement,1,8,4,countries_forward,"['_Yemen_', '_Japan_', '_Oman_', '_Cuba_']","['f', 'f', 'f', 'm']","['p268', 'p248', 'p284', 'p307']","[8, 6, 9, 5]","[92.0152836843556, 91.58892582949886, 92.00610777531934, 90.34149293193902]",2.0,False,9.0,1.8257418583505538,2.125235080718994,0.7208716377255703
0,,sub_112,2024-07-19 09:32:36,3,distance,cathedral,numerosity_judgement,1,9,3,countries_forward,"['_Sudan_', '_Congo_', '_Tonga_']","['m', 'f', 'm']","['p256', 'p284', 'p307']","[3, 1, 5]","[89.14911522239515, 86.2038576498559, 90.34149293193902]",2.0,False,5.0,2.0,2.437767267227173,0.8653728294177733
0,,sub_112,2024-07-19 09:32:41,3,distance,cathedral,numerosity_judgement,1,10,5,countries_forward,"['_Mali_', '_Yemen_', '_Peru_', '_Syria_', '_Oman_']","['m', 'f', 'f', 'm', 'f']","['p307', 'p248', 'p268', 'p256', 'p245']","[9, 5, 10, 2, 4]","[92.00610777531934, 90.34149293193902, 93.00003341222717, 87.57049330475357, 89.31368318402099]",3.0,False,8.0,3.391164991562634,2.250250816345215,0.6808648280558393
0,,sub_112,2024-07-19 09:32:44,3,distance,cathedral,numerosity_judgement,1,11,4,countries_forward,"['_Oman_', '_Yemen_', '_Syria_', '_Britain_']","['m', 'm', 'f', 'm']","['p256', 'p318', 'p248', 'p307']","[10, 9, 8, 3]","[93.00003341222717, 92.00610777531934, 92.0152836843556, 89.14911522239515]",2.0,False,9.5,3.1091263510296048,2.0627291202545166,0.7364771308591533
0,,sub_112,2024-07-19 09:32:49,3,distance,cathedral,numerosity_judgement,1,12,6,countries_forward,"['_Tonga_', '_Congo_', '_Cuba_', '_Togo_', '_Syria_', '_Oman_']","['f', 'm', 'f', 'm', 'f', 'm']","['p245', 'p229', 'p268', 'p307', 'p248', 'p256']","[7, 9, 5, 6, 0, 3]","[91.73820004985969, 92.00610777531934, 90.34149293193902, 91.58892582949886, 84.40078082039426, 89.14911522239515]",3.0,False,7.0,3.1622776601683795,2.2502498626708984,0.7532062194983543
0,,sub_112,2024-07-19 09:32:52,3,distance,cathedral,numerosity_judgement,1,13,3,countries_forward,"['_Congo_', '_Cuba_', '_Sudan_']","['f', 'f', 'm']","['p268', 'p284', 'p256']","[9, 5, 10]","[92.00610777531934, 90.34149293193902, 93.00003341222717]",2.0,False,10.0,2.6457513110645907,1.750195026397705,0.8389513108614233
0,,sub_112,2024-07-19 09:32:55,3,distance,cathedral,numerosity_judgement,1,14,2,countries_forward,"['_Oman_', '_Yemen_']","['m', 'f']","['p307', 'p245']","[6, 10]","[91.58892582949886, 93.00003341222717]",2.0,True,10.0,2.8284271247461903,1.687645673751831,0.5938372488934287
0,,sub_112,2024-07-19 09:32:59,3,distance,cathedral,numerosity_judgement,1,15,5,countries_forward,"['_Peru_', '_Yemen_', '_Britain_', '_Oman_', '_Mali_']","['f', 'f', 'f', 'f', 'm']","['p284', 'p248', 'p245', 'p268', 'p229']","[2, 10, 1, 4, 6]","[87.57049330475357, 93.00003341222717, 86.2038576498559, 89.31368318402099, 91.58892582949886]",3.0,False,6.6,3.5777087639996634,2.062729835510254,0.7091703552377709
0,,sub_112,2024-07-19 09:33:04,3,distance,cathedral,numerosity_judgement,1,16,4,countries_forward,"['_Britain_', '_Tonga_', '_Belgium_', '_Japan_']","['m', 'f', 'm', 'm']","['p229', 'p284', 'p318', 'p307']","[10, 4, 8, 1]","[93.00003341222717, 89.31368318402099, 92.0152836843556, 86.2038576498559]",2.0,False,7.75,4.031128874149275,2.6877999305725098,0.8915219611848826
0,,sub_112,2024-07-19 09:33:10,3,distance,cathedral,numerosity_judgement,1,17,6,countries_forward,"['_Japan_', '_Britain_', '_Yemen_', '_Belgium_', '_Congo_', '_Cuba_']","['f', 'm', 'f', 'm', 'f', 'm']","['p284', 'p229', 'p245', 'p318', 'p248', 'p307']","[1, 4, 10, 2, 8, 7]","[86.2038576498559, 89.31368318402099, 93.00003341222717, 87.57049330475357, 92.0152836843556, 91.73820004985969]",2.0,False,7.333333333333333,3.559026084010437,4.875542402267456,0.7951991828396323
0,,sub_112,2024-07-19 09:33:13,3,distance,cathedral,numerosity_judgement,1,18,2,countries_forward,"['_Mali_', '_Sudan_']","['f', 'f']","['p268', 'p245']","[9, 4]","[92.00610777531934, 89.31368318402099]",2.0,True,8.5,3.5355339059327378,1.1251249313354492,0.939893315174214
0,,sub_112,2024-07-19 09:33:16,3,distance,cathedral,numerosity_judgement,1,19,3,countries_forward,"['_Belgium_', '_Japan_', '_Britain_']","['m', 'f', 'f']","['p318', 'p245', 'p284']","[0, 2, 8]","[84.40078082039426, 87.57049330475357, 92.0152836843556]",2.0,False,5.333333333333333,4.163331998932266,1.625180721282959,0.936749517648394
0,,sub_112,2024-07-19 09:33:20,3,distance,cathedral,numerosity_judgement,1,20,6,countries_forward,"['_Tonga_', '_Yemen_', '_Congo_', '_Britain_', '_Mali_', '_Oman_']","['m', 'f', 'm', 'm', 'm', 'f']","['p256', 'p248', 'p229', 'p318', 'p307', 'p245']","[2, 6, 9, 4, 0, 10]","[87.57049330475357, 91.58892582949886, 92.00610777531934, 89.31368318402099, 84.40078082039426, 93.00003341222717]",3.0,False,7.166666666666667,3.9200340134578764,1.4376602172851562,0.7379639087504256
0,,sub_112,2024-07-19 09:33:24,3,distance,cathedral,numerosity_judgement,1,21,5,countries_forward,"['_Yemen_', '_Britain_', '_Togo_', '_Belgium_', '_Oman_']","['f', 'm', 'f', 'm', 'm']","['p268', 'p256', 'p248', 'p307', 'p229']","[9, 2, 0, 7, 6]","[92.00610777531934, 87.57049330475357, 84.40078082039426, 91.73820004985969, 91.58892582949886]",3.0,False,6.8,3.7013511046643495,2.125236749649048,0.7335943706730224
0,,sub_112,2024-07-19 09:33:26,3,distance,cathedral,numerosity_judgement,1,22,2,countries_forward,"['_Syria_', '_Belgium_']","['f', 'm']","['p245', 'p318']","[1, 2]","[86.2038576498559, 87.57049330475357]",2.0,True,3.5,0.7071067811865476,1.0626182556152344,0.9564521620701396
0,,sub_112,2024-07-19 09:33:31,3,distance,cathedral,numerosity_judgement,1,23,3,countries_forward,"['_Tonga_', '_Peru_', '_Yemen_']","['f', 'm', 'f']","['p245', 'p318', 'p268']","[5, 7, 6]","[90.34149293193902, 91.73820004985969, 91.58892582949886]",2.0,False,8.0,1.0,2.6252920627593994,0.6370332538871865
0,,sub_112,2024-07-19 09:33:37,3,distance,cathedral,numerosity_judgement,1,24,4,countries_forward,"['_Togo_', '_Congo_', '_Sudan_', '_Japan_']","['f', 'f', 'f', 'm']","['p245', 'p248', 'p268', 'p318']","[2, 1, 5, 3]","[87.57049330475357, 86.2038576498559, 90.34149293193902, 89.14911522239515]",3.0,False,4.75,1.707825127659933,4.000444650650024,0.9539325842696628
0,,sub_112,2024-07-19 09:33:40,3,distance,cathedral,numerosity_judgement,1,25,5,countries_forward,"['_Japan_', '_Cuba_', '_Oman_', '_Sudan_', '_Peru_']","['m', 'f', 'm', 'f', 'f']","['p307', 'p248', 'p318', 'p284', 'p268']","[10, 1, 0, 5, 8]","[93.00003341222717, 86.2038576498559, 84.40078082039426, 90.34149293193902, 92.0152836843556]",3.0,False,6.8,4.324349662087931,1.562673568725586,0.93398025195778
0,,sub_112,2024-07-19 09:33:43,3,distance,cathedral,numerosity_judgement,1,26,3,countries_forward,"['_Britain_', '_Congo_', '_Peru_']","['m', 'f', 'f']","['p307', 'p248', 'p245']","[8, 3, 5]","[92.0152836843556, 89.14911522239515, 90.34149293193902]",2.0,False,7.333333333333333,2.516611478423583,1.0001120567321777,0.7325956191124731
0,,sub_112,2024-07-19 09:33:46,3,distance,cathedral,numerosity_judgement,1,27,2,countries_forward,"['_Sudan_', '_Cuba_']","['m', 'm']","['p307', 'p256']","[1, 10]","[86.2038576498559, 93.00003341222717]",2.0,True,7.5,6.363961030678928,2.4377715587615967,0.7425263874702077
0,,sub_112,2024-07-19 09:33:50,3,distance,cathedral,numerosity_judgement,1,28,6,countries_forward,"['_Yemen_', '_Belgium_', '_Sudan_', '_Togo_', '_Oman_', '_Mali_']","['m', 'f', 'f', 'm', 'f', 'f']","['p318', 'p248', 'p268', 'p229', 'p284', 'p245']","[10, 8, 9, 5, 7, 0]","[93.00003341222717, 92.0152836843556, 92.00610777531934, 90.34149293193902, 91.73820004985969, 84.40078082039426]",3.0,False,8.5,3.6193922141707713,1.3126468658447266,0.8925093632958802
0,,sub_112,2024-07-19 09:33:55,3,distance,cathedral,numerosity_judgement,1,29,4,countries_forward,"['_Tonga_', '_Congo_', '_Cuba_', '_Mali_']","['m', 'm', 'f', 'f']","['p229', 'p318', 'p248', 'p245']","[9, 2, 7, 10]","[92.00610777531934, 87.57049330475357, 91.73820004985969, 93.00003341222717]",3.0,False,9.0,3.559026084010437,3.687910556793213,0.8765633866757462
0,,sub_112,2024-07-19 09:34:02,3,distance,cathedral,numerosity_judgement,1,30,6,countries_forward,"['_Cuba_', '_Sudan_', '_Yemen_', '_Peru_', '_Japan_', '_Tonga_']","['m', 'm', 'f', 'm', 'f', 'f']","['p229', 'p307', 'p248', 'p256', 'p284', 'p245']","[5, 2, 7, 3, 1, 8]","[90.34149293193902, 87.57049330475357, 91.73820004985969, 89.14911522239515, 86.2038576498559, 92.0152836843556]",2.0,False,6.333333333333333,2.804757862395017,4.500546216964722,0.7844058563159687
0,,sub_112,2024-07-19 09:34:05,3,distance,cathedral,numerosity_judgement,1,31,4,countries_forward,"['_Yemen_', '_Britain_', '_Peru_', '_Congo_']","['f', 'm', 'm', 'f']","['p245', 'p256', 'p307', 'p268']","[4, 9, 5, 3]","[89.31368318402099, 92.00610777531934, 90.34149293193902, 89.14911522239515]",2.0,False,7.25,2.6299556396765835,1.7501566410064697,0.8273975712177959
0,,sub_112,2024-07-19 09:34:09,3,distance,cathedral,numerosity_judgement,1,32,3,countries_forward,"['_Syria_', '_Belgium_', '_Peru_']","['m', 'f', 'm']","['p256', 'p268', 'p318']","[8, 2, 7]","[92.0152836843556, 87.57049330475357, 91.73820004985969]",2.0,False,7.666666666666667,3.2145502536643185,1.8752713203430176,0.8956758597208035
0,,sub_112,2024-07-19 09:34:11,3,distance,cathedral,numerosity_judgement,1,33,2,countries_forward,"['_Yemen_', '_Peru_']","['m', 'm']","['p256', 'p307']","[5, 8]","[90.34149293193902, 92.0152836843556]",2.0,True,8.5,2.1213203435596424,1.1251256465911865,0.6394279877425945
0,,sub_112,2024-07-19 09:34:17,3,distance,cathedral,numerosity_judgement,1,34,5,countries_forward,"['_Sudan_', '_Tonga_', '_Oman_', '_Belgium_', '_Mali_']","['f', 'f', 'm', 'm', 'm']","['p245', 'p268', 'p307', 'p318', 'p256']","[10, 7, 2, 3, 9]","[93.00003341222717, 91.73820004985969, 87.57049330475357, 89.14911522239515, 92.00610777531934]",3.0,False,8.2,3.5637059362410923,3.312868356704712,0.8978776529338327
0,,sub_112,2024-07-19 09:34:20,3,distance,cathedral,numerosity_judgement,1,35,6,countries_forward,"['_Oman_', '_Congo_', '_Cuba_', '_Tonga_', '_Yemen_', '_Sudan_']","['m', 'f', 'f', 'f', 'f', 'm']","['p256', 'p268', 'p245', 'p248', 'p284', 'p307']","[10, 5, 7, 6, 0, 9]","[93.00003341222717, 90.34149293193902, 91.73820004985969, 91.58892582949886, 84.40078082039426, 92.00610777531934]",3.0,False,8.166666666666666,3.5449494589721118,1.8752086162567139,0.7291680853478606
0,,sub_112,2024-07-19 09:34:24,3,distance,cathedral,numerosity_judgement,1,36,5,countries_forward,"['_Congo_', '_Tonga_', '_Mali_', '_Togo_', '_Peru_']","['m', 'm', 'm', 'm', 'f']","['p256', 'p229', 'p307', 'p318', 'p268']","[8, 2, 10, 6, 5]","[92.0152836843556, 87.57049330475357, 93.00003341222717, 91.58892582949886, 90.34149293193902]",2.0,False,8.2,3.03315017762062,1.4376609325408936,0.7523777096810804
0,,sub_112,2024-07-19 09:34:27,3,distance,cathedral,numerosity_judgement,1,37,3,countries_forward,"['_Congo_', '_Oman_', '_Yemen_']","['f', 'm', 'f']","['p268', 'p307', 'p245']","[3, 4, 6]","[89.14911522239515, 89.31368318402099, 91.58892582949886]",2.0,False,6.333333333333333,1.5275252316519465,2.000267744064331,0.6248439450686641
0,,sub_112,2024-07-19 09:34:34,3,distance,cathedral,numerosity_judgement,1,38,4,countries_forward,"['_Cuba_', '_Congo_', '_Tonga_', '_Peru_']","['m', 'm', 'f', 'f']","['p229', 'p318', 'p248', 'p245']","[9, 8, 5, 2]","[92.00610777531934, 92.0152836843556, 90.34149293193902, 87.57049330475357]",3.0,False,8.0,3.1622776601683795,5.313091516494751,0.8125070934059698
0,,sub_112,2024-07-19 09:34:37,3,distance,cathedral,numerosity_judgement,1,39,2,countries_forward,"['_Tonga_', '_Mali_']","['m', 'm']","['p229', 'p318']","[3, 8]","[89.14911522239515, 92.0152836843556]",2.0,True,7.5,3.5355339059327378,1.1876709461212158,0.7864941550334809
0,,sub_112,2024-07-19 09:34:41,3,distance,cathedral,numerosity_judgement,1,40,6,countries_forward,"['_Cuba_', '_Belgium_', '_Oman_', '_Peru_', '_Japan_', '_Congo_']","['f', 'f', 'f', 'm', 'm', 'm']","['p268', 'p284', 'p245', 'p229', 'p318', 'p256']","[6, 3, 1, 4, 5, 7]","[91.58892582949886, 89.14911522239515, 86.2038576498559, 89.31368318402099, 90.34149293193902, 91.73820004985969]",3.0,False,6.333333333333333,2.160246899469287,2.0002236366271973,0.8106911814776984
0,,sub_112,2024-07-19 09:34:45,3,distance,cathedral,numerosity_judgement,1,41,5,countries_forward,"['_Yemen_', '_Cuba_', '_Tonga_', '_Togo_', '_Peru_']","['m', 'm', 'm', 'f', 'f']","['p307', 'p318', 'p256', 'p248', 'p245']","[9, 2, 3, 7, 8]","[92.00610777531934, 87.57049330475357, 89.14911522239515, 91.73820004985969, 92.0152836843556]",3.0,False,7.8,3.1144823004794877,2.1252360343933105,0.7664396776756327
0,,sub_112,2024-07-19 09:34:51,3,distance,cathedral,numerosity_judgement,1,42,3,countries_forward,"['_Mali_', '_Yemen_', '_Oman_']","['f', 'm', 'f']","['p268', 'p256', 'p245']","[2, 4, 10]","[87.57049330475357, 89.31368318402099, 93.00003341222717]",3.0,True,7.333333333333333,4.163331998932266,4.187965393066406,0.6986607649528997
0,,sub_112,2024-07-19 09:34:54,3,distance,cathedral,numerosity_judgement,1,43,4,countries_forward,"['_Yemen_', '_Syria_', '_Cuba_', '_Japan_']","['f', 'f', 'f', 'f']","['p245', 'p284', 'p268', 'p248']","[2, 3, 6, 9]","[87.57049330475357, 89.14911522239515, 91.58892582949886, 92.00610777531934]",2.0,False,7.0,3.1622776601683795,1.7501943111419678,0.8393031437975258
0,,sub_112,2024-07-19 09:34:57,3,distance,cathedral,numerosity_judgement,1,44,2,countries_forward,"['_Tonga_', '_Oman_']","['f', 'm']","['p245', 'p229']","[3, 6]","[89.14911522239515, 91.58892582949886]",2.0,True,6.5,2.1213203435596424,1.3126463890075684,0.626682555896039
0,,sub_112,2024-07-19 09:35:00,3,distance,cathedral,numerosity_judgement,1,45,4,countries_forward,"['_Britain_', '_Cuba_', '_Sudan_', '_Togo_']","['f', 'm', 'm', 'm']","['p284', 'p307', 'p256', 'p229']","[2, 8, 5, 7]","[87.57049330475357, 92.0152836843556, 90.34149293193902, 91.73820004985969]",2.0,False,7.5,2.6457513110645907,1.3751530647277832,0.7658381568493928
0,,sub_112,2024-07-19 09:35:04,3,distance,cathedral,numerosity_judgement,1,46,5,countries_forward,"['_Oman_', '_Syria_', '_Congo_', '_Yemen_', '_Peru_']","['f', 'f', 'm', 'm', 'm']","['p248', 'p245', 'p307', 'p256', 'p318']","[5, 4, 10, 7, 3]","[90.34149293193902, 89.31368318402099, 93.00003341222717, 91.73820004985969, 89.14911522239515]",3.0,False,7.8,2.7748873851023212,1.7501945495605469,0.7883100669617523
0,,sub_112,2024-07-19 09:35:07,3,distance,cathedral,numerosity_judgement,1,47,2,countries_forward,"['_Mali_', '_Peru_']","['f', 'f']","['p268', 'p284']","[8, 5]","[92.0152836843556, 90.34149293193902]",2.0,True,8.5,2.1213203435596424,1.0001115798950195,0.9147542844172056
0,,sub_112,2024-07-19 09:35:11,3,distance,cathedral,numerosity_judgement,1,48,6,countries_forward,"['_Sudan_', '_Britain_', '_Syria_', '_Peru_', '_Mali_', '_Tonga_']","['m', 'f', 'f', 'm', 'm', 'f']","['p307', 'p284', 'p248', 'p229', 'p318', 'p268']","[8, 2, 5, 7, 10, 6]","[92.0152836843556, 87.57049330475357, 90.34149293193902, 91.73820004985969, 93.00003341222717, 91.58892582949886]",3.0,False,8.333333333333334,2.7325202042558927,2.1252357959747314,0.8557938939961411
0,,sub_112,2024-07-19 09:35:15,3,distance,cathedral,numerosity_judgement,1,49,3,countries_forward,"['_Oman_', '_Peru_', '_Britain_']","['f', 'm', 'f']","['p248', 'p229', 'p268']","[3, 10, 9]","[89.14911522239515, 93.00003341222717, 92.00610777531934]",2.0,False,9.333333333333334,3.7859388972001824,2.4377713203430176,0.8226194529565316
0,,sub_112,2024-07-19 09:35:18,3,distance,cathedral,numerosity_judgement,1,50,2,countries_forward,"['_Yemen_', '_Oman_']","['f', 'f']","['p268', 'p248']","[2, 6]","[87.57049330475357, 91.58892582949886]",2.0,True,6.0,2.8284271247461903,1.3126213550567627,0.7090341618431506
0,,sub_112,2024-07-19 09:35:22,3,distance,cathedral,numerosity_judgement,1,51,3,countries_forward,"['_Togo_', '_Yemen_', '_Britain_']","['m', 'f', 'm']","['p256', 'p268', 'p318']","[5, 6, 0]","[90.34149293193902, 91.58892582949886, 84.40078082039426]",2.0,False,5.666666666666667,3.2145502536643185,3.125321865081787,0.7841107706276246
0,,sub_112,2024-07-19 09:35:26,3,distance,cathedral,numerosity_judgement,1,52,4,countries_forward,"['_Yemen_', '_Peru_', '_Congo_', '_Oman_']","['f', 'm', 'm', 'm']","['p245', 'p318', 'p307', 'p256']","[4, 8, 3, 10]","[89.31368318402099, 92.0152836843556, 89.14911522239515, 93.00003341222717]",2.0,False,8.25,3.304037933599835,1.6877129077911377,0.6971399387129724
0,,sub_112,2024-07-19 09:35:30,3,distance,cathedral,numerosity_judgement,1,53,5,countries_forward,"['_Cuba_', '_Sudan_', '_Mali_', '_Japan_', '_Togo_']","['f', 'm', 'f', 'm', 'm']","['p248', 'p256', 'p245', 'p318', 'p307']","[8, 6, 9, 3, 7]","[92.0152836843556, 91.58892582949886, 92.00610777531934, 89.14911522239515, 91.73820004985969]",3.0,False,8.6,2.3021728866442674,2.5002779960632324,0.8387243218703893
0,,sub_112,2024-07-19 09:35:34,3,distance,cathedral,numerosity_judgement,1,54,6,countries_forward,"['_Japan_', '_Tonga_', '_Mali_', '_Yemen_', '_Sudan_', '_Syria_']","['f', 'm', 'm', 'm', 'm', 'f']","['p268', 'p256', 'p318', 'p229', 'p307', 'p284']","[10, 3, 6, 1, 8, 7]","[93.00003341222717, 89.14911522239515, 91.58892582949886, 86.2038576498559, 92.0152836843556, 91.73820004985969]",3.0,False,7.833333333333333,3.3115957885386114,1.687687635421753,0.9126773351492452
0,,sub_112,2024-07-19 09:35:36,3,distance,cathedral,numerosity_judgement,1,55,2,countries_forward,"['_Mali_', '_Congo_']","['f', 'm']","['p245', 'p256']","[6, 8]","[91.58892582949886, 92.0152836843556]",2.0,True,9.0,1.4142135623730951,1.0626184940338135,0.754488707297696
0,,sub_112,2024-07-19 09:35:39,3,distance,cathedral,numerosity_judgement,1,56,3,countries_forward,"['_Mali_', '_Britain_', '_Yemen_']","['f', 'm', 'm']","['p284', 'p256', 'p318']","[4, 5, 7]","[89.31368318402099, 90.34149293193902, 91.73820004985969]",2.0,False,7.333333333333333,1.5275252316519465,1.250138759613037,0.774361593462717
0,,sub_112,2024-07-19 09:35:43,3,distance,cathedral,numerosity_judgement,1,57,6,countries_forward,"['_Britain_', '_Japan_', '_Congo_', '_Cuba_', '_Togo_', '_Sudan_']","['m', 'f', 'm', 'f', 'f', 'm']","['p229', 'p268', 'p256', 'p248', 'p284', 'p307']","[4, 0, 8, 1, 3, 6]","[89.31368318402099, 84.40078082039426, 92.0152836843556, 86.2038576498559, 89.14911522239515, 91.58892582949886]",3.0,False,5.666666666666667,3.011090610836324,2.187743663787842,0.8336397684712291
0,,sub_112,2024-07-19 09:35:48,3,distance,cathedral,numerosity_judgement,1,58,5,countries_forward,"['_Sudan_', '_Cuba_', '_Belgium_', '_Japan_', '_Peru_']","['f', 'm', 'f', 'f', 'f']","['p248', 'p307', 'p245', 'p268', 'p284']","[8, 3, 5, 7, 9]","[92.0152836843556, 89.14911522239515, 90.34149293193902, 91.73820004985969, 92.00610777531934]",3.0,False,8.4,2.4083189157584592,2.750305414199829,0.8838270343888321
0,,sub_112,2024-07-19 09:35:52,3,distance,cathedral,numerosity_judgement,1,59,4,countries_forward,"['_Mali_', '_Congo_', '_Syria_', '_Yemen_']","['m', 'f', 'f', 'm']","['p307', 'p284', 'p245', 'p229']","[2, 10, 1, 8]","[87.57049330475357, 93.00003341222717, 86.2038576498559, 92.0152836843556]",3.0,False,7.25,4.425306015783918,2.0002264976501465,0.9340143003064352
0,,sub_112,2024-07-19 09:35:55,3,distance,cathedral,numerosity_judgement,1,60,2,countries_forward,"['_Syria_', '_Britain_']","['m', 'f']","['p256', 'p268']","[7, 10]","[91.73820004985969, 93.00003341222717]",2.0,True,10.5,2.1213203435596424,1.4376599788665771,0.8467029849052321
0,,sub_112,2024-07-19 09:35:58,3,distance,cathedral,numerosity_judgement,1,61,3,countries_forward,"['_Oman_', '_Sudan_', '_Cuba_']","['f', 'm', 'm']","['p245', 'p229', 'p307']","[0, 8, 4]","[84.40078082039426, 92.0152836843556, 89.31368318402099]",2.0,False,6.0,4.0,1.3126466274261475,0.9228464419475656
0,,sub_112,2024-07-19 09:36:02,3,distance,cathedral,numerosity_judgement,1,62,5,countries_forward,"['_Oman_', '_Yemen_', '_Belgium_', '_Cuba_', '_Peru_']","['f', 'm', 'f', 'm', 'f']","['p245', 'p229', 'p248', 'p307', 'p284']","[5, 10, 6, 8, 3]","[90.34149293193902, 93.00003341222717, 91.58892582949886, 92.0152836843556, 89.14911522239515]",3.0,False,8.4,2.701851217221259,2.3127570152282715,0.8041085007377142
0,,sub_112,2024-07-19 09:36:06,3,distance,cathedral,numerosity_judgement,1,63,4,countries_forward,"['_Mali_', '_Tonga_', '_Sudan_', '_Syria_']","['m', 'f', 'f', 'm']","['p307', 'p284', 'p248', 'p256']","[0, 2, 8, 5]","[84.40078082039426, 87.57049330475357, 92.0152836843556, 90.34149293193902]",3.0,False,5.75,3.5,2.000229835510254,0.907524685052775
0,,sub_112,2024-07-19 09:36:10,3,distance,cathedral,numerosity_judgement,1,64,6,countries_forward,"['_Peru_', '_Japan_', '_Sudan_', '_Belgium_', '_Syria_', '_Togo_']","['m', 'm', 'f', 'm', 'f', 'f']","['p229', 'p256', 'p284', 'p318', 'p248', 'p268']","[3, 2, 1, 7, 4, 5]","[89.14911522239515, 87.57049330475357, 86.2038576498559, 91.73820004985969, 89.31368318402099, 90.34149293193902]",3.0,False,5.666666666666667,2.160246899469287,2.125211715698242,0.9433094994892748
0,,sub_112,2024-07-19 09:36:12,3,distance,cathedral,numerosity_judgement,1,65,2,countries_forward,"['_Britain_', '_Yemen_']","['f', 'f']","['p248', 'p268']","[5, 7]","[90.34149293193902, 91.73820004985969]",2.0,True,8.0,1.4142135623730951,1.1876330375671387,0.6717739189649302
0,,sub_112,2024-07-19 09:36:17,3,distance,cathedral,numerosity_judgement,1,66,3,countries_forward,"['_Britain_', '_Tonga_', '_Mali_']","['m', 'f', 'f']","['p229', 'p245', 'p248']","[3, 5, 6]","[89.14911522239515, 90.34149293193902, 91.58892582949886]",3.0,True,6.666666666666667,1.5275252316519465,3.0628418922424316,0.7410282601293837
0,,sub_112,2024-07-19 09:36:23,3,distance,cathedral,numerosity_judgement,1,67,4,countries_forward,"['_Oman_', '_Mali_', '_Yemen_', '_Britain_']","['f', 'f', 'm', 'f']","['p248', 'p268', 'p256', 'p245']","[3, 6, 9, 7]","[89.14911522239515, 91.58892582949886, 92.00610777531934, 91.73820004985969]",2.0,False,8.25,2.5,3.7504162788391113,0.6700034048348655
0,,sub_112,2024-07-19 09:36:26,3,distance,cathedral,numerosity_judgement,1,68,5,countries_forward,"['_Congo_', '_Tonga_', '_Japan_', '_Belgium_', '_Mali_']","['f', 'f', 'm', 'f', 'm']","['p245', 'p268', 'p318', 'p284', 'p256']","[5, 1, 4, 10, 0]","[90.34149293193902, 86.2038576498559, 89.31368318402099, 93.00003341222717, 84.40078082039426]",2.0,False,6.0,3.9370039370059056,2.0627291202545166,0.965497673362842
0,,sub_112,2024-07-19 09:36:30,3,distance,cathedral,numerosity_judgement,1,69,6,countries_forward,"['_Tonga_', '_Congo_', '_Peru_', '_Syria_', '_Sudan_', '_Yemen_']","['f', 'm', 'f', 'm', 'f', 'm']","['p248', 'p307', 'p284', 'p229', 'p268', 'p318']","[2, 1, 8, 10, 9, 0]","[87.57049330475357, 86.2038576498559, 92.0152836843556, 93.00003341222717, 92.00610777531934, 84.40078082039426]",3.0,False,7.0,4.47213595499958,1.437659740447998,0.9551810237203496
0,,sub_112,2024-07-19 09:36:34,3,distance,cathedral,numerosity_judgement,1,70,3,countries_forward,"['_Britain_', '_Sudan_', '_Syria_']","['f', 'm', 'f']","['p248', 'p229', 'p284']","[1, 8, 5]","[86.2038576498559, 92.0152836843556, 90.34149293193902]",2.0,False,6.666666666666667,3.5118845842842465,2.6878271102905273,0.9688003631823856
0,,sub_112,2024-07-19 09:36:39,3,distance,cathedral,numerosity_judgement,1,71,4,countries_forward,"['_Congo_', '_Japan_', '_Tonga_', '_Yemen_']","['f', 'm', 'm', 'm']","['p268', 'p307', 'p229', 'p256']","[9, 2, 8, 10]","[92.00610777531934, 87.57049330475357, 92.0152836843556, 93.00003341222717]",2.0,False,9.25,3.593976442141304,2.625293016433716,0.7831687663148337
0,,sub_112,2024-07-19 09:36:43,3,distance,cathedral,numerosity_judgement,1,72,5,countries_forward,"['_Oman_', '_Mali_', '_Yemen_', '_Sudan_', '_Japan_']","['f', 'm', 'f', 'm', 'm']","['p245', 'p229', 'p268', 'p307', 'p318']","[1, 4, 8, 9, 0]","[86.2038576498559, 89.31368318402099, 92.0152836843556, 92.00610777531934, 84.40078082039426]",2.0,False,6.4,4.03732584763727,2.3752636909484863,0.826682555896039
0,,sub_112,2024-07-19 09:36:46,3,distance,cathedral,numerosity_judgement,1,73,2,countries_forward,"['_Oman_', '_Yemen_']","['m', 'm']","['p229', 'p256']","[3, 6]","[89.14911522239515, 91.58892582949886]",2.0,True,6.5,2.1213203435596424,1.437659740447998,0.5410623084780388
0,,sub_112,2024-07-19 09:36:49,3,distance,cathedral,numerosity_judgement,1,74,6,countries_forward,"['_Peru_', '_Togo_', '_Mali_', '_Britain_', '_Japan_', '_Syria_']","['m', 'm', 'f', 'f', 'm', 'm']","['p256', 'p318', 'p268', 'p284', 'p307', 'p229']","[8, 2, 6, 7, 10, 3]","[92.0152836843556, 87.57049330475357, 91.58892582949886, 91.73820004985969, 93.00003341222717, 89.14911522239515]",3.0,False,8.0,3.03315017762062,1.187657356262207,0.916093519464306
0,,sub_112,2024-07-19 09:39:26,3,distance,cathedral,numerosity_judgement,2,0,4,countries_forward,"['_Tonga_', '_Sudan_', '_Mali_', '_Syria_']","['f', 'm', 'm', 'f']","['p268', 'p318', 'p229', 'p284']","[0, 10, 4, 3]","[84.40078082039426, 93.00003341222717, 89.31368318402099, 89.14911522239515]",2.0,False,6.25,4.193248541803041,1.81270170211792,0.959437067302236
0,,sub_112,2024-07-19 09:39:29,3,distance,cathedral,numerosity_judgement,2,1,2,countries_forward,"['_Oman_', '_Britain_']","['f', 'm']","['p284', 'p307']","[2, 6]","[87.57049330475357, 91.58892582949886]",2.0,True,6.0,2.8284271247461903,1.3751530647277832,0.728929746907275
0,,sub_112,2024-07-19 09:39:34,3,distance,cathedral,numerosity_judgement,2,2,3,countries_forward,"['_Belgium_', '_Yemen_', '_Britain_']","['f', 'm', 'f']","['p284', 'p256', 'p248']","[9, 3, 6]","[92.00610777531934, 89.14911522239515, 91.58892582949886]",2.0,False,8.0,3.0,3.375375270843506,0.8723186925434117
0,,sub_112,2024-07-19 09:39:37,3,distance,cathedral,numerosity_judgement,2,3,6,countries_forward,"['_Syria_', '_Cuba_', '_Tonga_', '_Oman_', '_Japan_', '_Belgium_']","['m', 'm', 'm', 'f', 'f', 'f']","['p307', 'p318', 'p229', 'p248', 'p284', 'p268']","[5, 10, 2, 9, 8, 7]","[90.34149293193902, 93.00003341222717, 87.57049330475357, 92.00610777531934, 92.0152836843556, 91.73820004985969]",3.0,False,8.833333333333334,2.9268868558020253,1.8752081394195557,0.8985699693564863
0,,sub_112,2024-07-19 09:39:41,3,distance,cathedral,numerosity_judgement,2,4,5,countries_forward,"['_Cuba_', '_Yemen_', '_Oman_', '_Congo_', '_Sudan_']","['m', 'f', 'm', 'f', 'f']","['p307', 'p248', 'p229', 'p284', 'p268']","[8, 2, 3, 4, 9]","[92.0152836843556, 87.57049330475357, 89.14911522239515, 89.31368318402099, 92.00610777531934]",3.0,False,7.2,3.1144823004794877,1.687713623046875,0.8853819089774146
0,,sub_112,2024-07-19 09:39:45,3,distance,cathedral,numerosity_judgement,2,5,6,countries_forward,"['_Belgium_', '_Tonga_', '_Oman_', '_Cuba_', '_Yemen_', '_Sudan_']","['m', 'f', 'f', 'm', 'f', 'm']","['p318', 'p245', 'p284', 'p307', 'p268', 'p256']","[2, 5, 8, 9, 4, 7]","[87.57049330475357, 90.34149293193902, 92.0152836843556, 92.00610777531934, 89.31368318402099, 91.73820004985969]",3.0,False,7.833333333333333,2.6394443859772205,2.062729597091675,0.8224605606628078
0,,sub_112,2024-07-19 09:39:49,3,distance,cathedral,numerosity_judgement,2,6,5,countries_forward,"['_Tonga_', '_Mali_', '_Peru_', '_Syria_', '_Togo_']","['m', 'm', 'm', 'f', 'f']","['p307', 'p318', 'p256', 'p284', 'p248']","[1, 5, 4, 10, 3]","[86.2038576498559, 90.34149293193902, 89.31368318402099, 93.00003341222717, 89.14911522239515]",3.0,False,6.6,3.361547262794322,1.625180959701538,0.9637612075814324
0,,sub_112,2024-07-19 09:39:52,3,distance,cathedral,numerosity_judgement,2,7,2,countries_forward,"['_Japan_', '_Tonga_']","['f', 'm']","['p268', 'p307']","[10, 1]","[93.00003341222717, 86.2038576498559]",2.0,True,7.5,6.363961030678928,1.4376592636108398,0.8708659630007944
0,,sub_112,2024-07-19 09:39:55,3,distance,cathedral,numerosity_judgement,2,8,3,countries_forward,"['_Oman_', '_Britain_', '_Yemen_']","['m', 'f', 'm']","['p229', 'p245', 'p307']","[8, 7, 10]","[92.0152836843556, 91.73820004985969, 93.00003341222717]",2.0,False,10.333333333333334,1.5275252316519468,2.000230550765991,0.6943593235728067
0,,sub_112,2024-07-19 09:39:59,3,distance,cathedral,numerosity_judgement,2,9,4,countries_forward,"['_Congo_', '_Oman_', '_Peru_', '_Yemen_']","['m', 'm', 'f', 'f']","['p307', 'p229', 'p284', 'p248']","[3, 10, 2, 6]","[89.14911522239515, 93.00003341222717, 87.57049330475357, 91.58892582949886]",2.0,False,7.25,3.593976442141304,1.9376847743988037,0.672829417773238
0,,sub_112,2024-07-19 09:40:05,3,distance,cathedral,numerosity_judgement,2,10,6,countries_forward,"['_Oman_', '_Peru_', '_Congo_', '_Togo_', '_Tonga_', '_Cuba_']","['f', 'f', 'm', 'm', 'f', 'f']","['p245', 'p268', 'p307', 'p229', 'p284', 'p248']","[10, 4, 9, 3, 8, 7]","[93.00003341222717, 89.31368318402099, 92.00610777531934, 89.14911522239515, 92.0152836843556, 91.73820004985969]",3.0,False,8.833333333333334,2.786873995477131,4.312978982925415,0.8343207354443309
0,,sub_112,2024-07-19 09:40:10,3,distance,cathedral,numerosity_judgement,2,11,4,countries_forward,"['_Congo_', '_Oman_', '_Yemen_', '_Tonga_']","['m', 'm', 'f', 'f']","['p318', 'p229', 'p248', 'p245']","[4, 1, 5, 3]","[89.31368318402099, 86.2038576498559, 90.34149293193902, 89.14911522239515]",2.0,False,5.25,1.707825127659933,2.75030779838562,0.6943593235728067
0,,sub_112,2024-07-19 09:40:13,3,distance,cathedral,numerosity_judgement,2,12,2,countries_forward,"['_Cuba_', '_Yemen_']","['m', 'f']","['p307', 'p284']","[7, 9]","[91.73820004985969, 92.00610777531934]",2.0,True,10.0,1.4142135623730951,2.3127572536468506,0.6479968221541256
0,,sub_112,2024-07-19 09:40:17,3,distance,cathedral,numerosity_judgement,2,13,5,countries_forward,"['_Tonga_', '_Congo_', '_Cuba_', '_Oman_', '_Peru_']","['m', 'f', 'f', 'm', 'm']","['p318', 'p245', 'p248', 'p229', 'p307']","[2, 8, 5, 3, 9]","[87.57049330475357, 92.0152836843556, 90.34149293193902, 89.14911522239515, 92.00610777531934]",3.0,False,7.4,3.0495901363953815,1.812706470489502,0.7303030303030303
0,,sub_112,2024-07-19 09:40:22,3,distance,cathedral,numerosity_judgement,2,14,3,countries_forward,"['_Cuba_', '_Togo_', '_Japan_']","['m', 'm', 'f']","['p256', 'p307', 'p268']","[10, 2, 5]","[93.00003341222717, 87.57049330475357, 90.34149293193902]",2.0,False,7.666666666666667,4.041451884327381,2.8752763271331787,0.7527522415162865
0,,sub_112,2024-07-19 09:40:27,3,distance,cathedral,numerosity_judgement,2,15,6,countries_forward,"['_Yemen_', '_Tonga_', '_Mali_', '_Cuba_', '_Togo_', '_Congo_']","['m', 'f', 'f', 'm', 'm', 'f']","['p318', 'p268', 'p248', 'p307', 'p256', 'p245']","[5, 3, 10, 7, 2, 4]","[90.34149293193902, 89.14911522239515, 93.00003341222717, 91.73820004985969, 87.57049330475357, 89.31368318402099]",2.0,False,7.166666666666667,2.9268868558020253,3.3751983642578125,0.6946544092611509
0,,sub_112,2024-07-19 09:40:30,3,distance,cathedral,numerosity_judgement,2,16,3,countries_forward,"['_Oman_', '_Mali_', '_Togo_']","['m', 'm', 'f']","['p307', 'p229', 'p268']","[6, 5, 2]","[91.58892582949886, 90.34149293193902, 87.57049330475357]",2.0,False,6.333333333333333,2.0816659994661326,1.2500741481781006,0.7751787538304392
0,,sub_112,2024-07-19 09:40:33,3,distance,cathedral,numerosity_judgement,2,17,4,countries_forward,"['_Syria_', '_Cuba_', '_Belgium_', '_Tonga_']","['f', 'm', 'f', 'm']","['p245', 'p318', 'p248', 'p256']","[9, 7, 1, 8]","[92.00610777531934, 91.73820004985969, 86.2038576498559, 92.0152836843556]",3.0,False,8.25,3.593976442141304,1.3125782012939453,0.8991941890818296
0,,sub_112,2024-07-19 09:40:36,3,distance,cathedral,numerosity_judgement,2,18,2,countries_forward,"['_Britain_', '_Yemen_']","['f', 'm']","['p245', 'p256']","[9, 7]","[92.00610777531934, 91.73820004985969]",2.0,True,10.0,1.4142135623730951,1.875112533569336,0.6767336284190216
0,,sub_112,2024-07-19 09:40:41,3,distance,cathedral,numerosity_judgement,2,19,5,countries_forward,"['_Britain_', '_Oman_', '_Congo_', '_Yemen_', '_Japan_']","['f', 'm', 'm', 'f', 'm']","['p245', 'p256', 'p229', 'p268', 'p318']","[6, 7, 0, 3, 9]","[91.58892582949886, 91.73820004985969, 84.40078082039426, 89.14911522239515, 92.00610777531934]",3.0,False,7.0,3.5355339059327378,2.625223398208618,0.8208716377255703
0,,sub_112,2024-07-19 09:40:47,3,distance,cathedral,numerosity_judgement,2,20,6,countries_forward,"['_Belgium_', '_Peru_', '_Yemen_', '_Congo_', '_Sudan_', '_Syria_']","['f', 'f', 'm', 'f', 'm', 'm']","['p248', 'p245', 'p318', 'p268', 'p307', 'p229']","[7, 10, 2, 5, 3, 4]","[91.73820004985969, 93.00003341222717, 87.57049330475357, 90.34149293193902, 89.14911522239515, 89.31368318402099]",3.0,False,7.166666666666667,2.9268868558020253,4.187749624252319,0.8866643967767563
0,,sub_112,2024-07-19 09:40:52,3,distance,cathedral,numerosity_judgement,2,21,3,countries_forward,"['_Japan_', '_Yemen_', '_Belgium_']","['f', 'f', 'm']","['p248', 'p284', 'p307']","[7, 1, 6]","[91.73820004985969, 86.2038576498559, 91.58892582949886]",2.0,False,6.666666666666667,3.2145502536643185,3.437704086303711,0.8465327431619566
0,,sub_112,2024-07-19 09:40:55,3,distance,cathedral,numerosity_judgement,2,22,2,countries_forward,"['_Tonga_', '_Congo_']","['m', 'f']","['p318', 'p268']","[7, 1]","[91.73820004985969, 86.2038576498559]",2.0,True,6.0,4.242640687119285,1.5001301765441895,0.787799341731926
0,,sub_112,2024-07-19 09:41:00,3,distance,cathedral,numerosity_judgement,2,23,4,countries_forward,"['_Congo_', '_Yemen_', '_Belgium_', '_Peru_']","['m', 'm', 'f', 'm']","['p229', 'p256', 'p245', 'p318']","[7, 3, 0, 10]","[91.73820004985969, 89.14911522239515, 84.40078082039426, 93.00003341222717]",3.0,False,7.0,4.396968652757639,3.312696933746338,0.8116104868913858
0,,sub_112,2024-07-19 09:41:04,3,distance,cathedral,numerosity_judgement,2,24,5,countries_forward,"['_Britain_', '_Peru_', '_Togo_', '_Tonga_', '_Belgium_']","['f', 'm', 'f', 'f', 'm']","['p245', 'p229', 'p284', 'p248', 'p318']","[4, 0, 7, 10, 9]","[89.31368318402099, 84.40078082039426, 91.73820004985969, 93.00003341222717, 92.00610777531934]",4.0,False,8.0,4.06201920231798,1.8126072883605957,0.9027465667915108
0,,sub_112,2024-07-19 09:41:08,3,distance,cathedral,numerosity_judgement,2,25,6,countries_forward,"['_Oman_', '_Mali_', '_Britain_', '_Japan_', '_Yemen_', '_Syria_']","['f', 'm', 'f', 'm', 'm', 'f']","['p245', 'p229', 'p284', 'p256', 'p318', 'p268']","[0, 5, 10, 1, 8, 9]","[84.40078082039426, 90.34149293193902, 93.00003341222717, 86.2038576498559, 92.0152836843556, 92.00610777531934]",4.0,False,7.5,4.230839160261236,2.7501633167266846,0.9256838043354896
0,,sub_112,2024-07-19 09:41:13,3,distance,cathedral,numerosity_judgement,2,26,5,countries_forward,"['_Belgium_', '_Japan_', '_Togo_', '_Mali_', '_Sudan_']","['m', 'f', 'f', 'm', 'f']","['p318', 'p248', 'p284', 'p256', 'p245']","[10, 6, 9, 5, 7]","[93.00003341222717, 91.58892582949886, 92.00610777531934, 90.34149293193902, 91.73820004985969]",3.0,False,9.4,2.073644135332772,2.9376981258392334,0.8510838724321871
0,,sub_112,2024-07-19 09:41:16,3,distance,cathedral,numerosity_judgement,2,27,3,countries_forward,"['_Belgium_', '_Oman_', '_Tonga_']","['m', 'm', 'm']","['p307', 'p229', 'p256']","[0, 7, 4]","[84.40078082039426, 91.73820004985969, 89.31368318402099]",2.0,False,5.666666666666667,3.5118845842842465,1.2500109672546387,0.8139257745999319
0,,sub_112,2024-07-19 09:41:19,3,distance,cathedral,numerosity_judgement,2,28,2,countries_forward,"['_Belgium_', '_Syria_']","['f', 'f']","['p245', 'p268']","[8, 2]","[92.0152836843556, 87.57049330475357]",2.0,True,7.0,4.242640687119285,1.625096082687378,0.9594824651004428
0,,sub_112,2024-07-19 09:41:23,3,distance,cathedral,numerosity_judgement,2,29,4,countries_forward,"['_Oman_', '_Yemen_', '_Mali_', '_Congo_']","['m', 'f', 'm', 'm']","['p229', 'p248', 'p318', 'p256']","[9, 6, 4, 3]","[92.00610777531934, 91.58892582949886, 89.31368318402099, 89.14911522239515]",3.0,False,7.5,2.6457513110645907,2.125126600265503,0.7207240948813982
0,,sub_112,2024-07-19 09:41:26,3,distance,cathedral,numerosity_judgement,2,30,2,countries_forward,"['_Yemen_', '_Oman_']","['f', 'm']","['p248', 'p307']","[7, 9]","[91.73820004985969, 92.00610777531934]",2.0,True,10.0,1.4142135623730951,1.0625629425048828,0.5863920099875156
0,,sub_112,2024-07-19 09:41:29,3,distance,cathedral,numerosity_judgement,2,31,3,countries_forward,"['_Mali_', '_Syria_', '_Peru_']","['f', 'f', 'm']","['p245', 'p268', 'p307']","[1, 2, 7]","[86.2038576498559, 87.57049330475357, 91.73820004985969]",2.0,False,5.333333333333333,3.2145502536643185,1.8125414848327637,0.9293156281920328
0,,sub_112,2024-07-19 09:41:34,3,distance,cathedral,numerosity_judgement,2,32,5,countries_forward,"['_Oman_', '_Cuba_', '_Mali_', '_Britain_', '_Tonga_']","['m', 'f', 'm', 'f', 'f']","['p307', 'p245', 'p256', 'p284', 'p248']","[6, 4, 9, 1, 7]","[91.58892582949886, 89.31368318402099, 92.00610777531934, 86.2038576498559, 91.73820004985969]",3.0,False,7.4,3.0495901363953815,2.8751718997955322,0.7594484167517875
0,,sub_112,2024-07-19 09:41:38,3,distance,cathedral,numerosity_judgement,2,33,4,countries_forward,"['_Yemen_', '_Oman_', '_Peru_', '_Togo_']","['m', 'm', 'f', 'm']","['p229', 'p307', 'p268', 'p256']","[9, 5, 3, 10]","[92.00610777531934, 90.34149293193902, 89.14911522239515, 93.00003341222717]",2.0,False,8.75,3.304037933599835,2.0626237392425537,0.6414935875610033
0,,sub_112,2024-07-19 09:41:44,3,distance,cathedral,numerosity_judgement,2,34,6,countries_forward,"['_Cuba_', '_Sudan_', '_Yemen_', '_Oman_', '_Tonga_', '_Belgium_']","['f', 'm', 'f', 'f', 'm', 'f']","['p284', 'p256', 'p268', 'p245', 'p318', 'p248']","[5, 2, 1, 6, 4, 8]","[90.34149293193902, 87.57049330475357, 86.2038576498559, 91.58892582949886, 89.31368318402099, 92.0152836843556]",3.0,False,6.333333333333333,2.581988897471611,4.750283479690552,0.86474860969243
0,,sub_112,2024-07-19 09:41:49,3,distance,cathedral,numerosity_judgement,2,35,4,countries_forward,"['_Togo_', '_Oman_', '_Congo_', '_Sudan_']","['f', 'f', 'm', 'm']","['p268', 'p245', 'p307', 'p318']","[6, 2, 7, 0]","[91.58892582949886, 87.57049330475357, 91.73820004985969, 84.40078082039426]",3.0,False,5.75,3.304037933599835,2.750187397003174,0.8744523890591306
0,,sub_112,2024-07-19 09:41:55,3,distance,cathedral,numerosity_judgement,2,36,6,countries_forward,"['_Tonga_', '_Peru_', '_Mali_', '_Japan_', '_Sudan_', '_Oman_']","['m', 'm', 'm', 'm', 'f', 'f']","['p318', 'p229', 'p307', 'p256', 'p248', 'p284']","[2, 5, 10, 7, 9, 8]","[87.57049330475357, 90.34149293193902, 93.00003341222717, 91.73820004985969, 92.00610777531934, 92.0152836843556]",4.0,False,8.833333333333334,2.9268868558020253,3.6877188682556152,0.8468164794007491
0,,sub_112,2024-07-19 09:41:58,3,distance,cathedral,numerosity_judgement,2,37,3,countries_forward,"['_Sudan_', '_Congo_', '_Yemen_']","['m', 'm', 'f']","['p256', 'p307', 'p284']","[2, 5, 8]","[87.57049330475357, 90.34149293193902, 92.0152836843556]",2.0,False,7.0,3.0,2.0001184940338135,0.8063443422993984
0,,sub_112,2024-07-19 09:42:01,3,distance,cathedral,numerosity_judgement,2,38,2,countries_forward,"['_Oman_', '_Togo_']","['m', 'm']","['p307', 'p229']","[5, 4]","[90.34149293193902, 89.31368318402099]",2.0,True,6.5,0.7071067811865476,1.3750560283660889,0.7085461355124276
0,,sub_112,2024-07-19 09:42:04,3,distance,cathedral,numerosity_judgement,2,39,5,countries_forward,"['_Sudan_', '_Japan_', '_Syria_', '_Congo_', '_Togo_']","['f', 'm', 'f', 'm', 'm']","['p248', 'p256', 'p268', 'p307', 'p229']","[10, 1, 5, 6, 7]","[93.00003341222717, 86.2038576498559, 90.34149293193902, 91.58892582949886, 91.73820004985969]",3.0,False,7.8,3.271085446759225,1.6250970363616943,0.8718647145613437
0,,sub_112,2024-07-19 09:42:08,3,distance,cathedral,numerosity_judgement,2,40,2,countries_forward,"['_Oman_', '_Belgium_']","['m', 'f']","['p318', 'p284']","[0, 10]","[84.40078082039426, 93.00003341222717]",2.0,True,7.0,7.0710678118654755,2.2501332759857178,0.9477130859153332
0,,sub_112,2024-07-19 09:42:12,3,distance,cathedral,numerosity_judgement,2,41,5,countries_forward,"['_Peru_', '_Congo_', '_Sudan_', '_Tonga_', '_Belgium_']","['f', 'm', 'm', 'f', 'f']","['p245', 'p307', 'p229', 'p268', 'p284']","[5, 8, 0, 9, 2]","[90.34149293193902, 92.0152836843556, 84.40078082039426, 92.00610777531934, 87.57049330475357]",3.0,False,6.8,3.8340579025361627,2.125126600265503,0.9248779934173192
0,,sub_112,2024-07-19 09:42:16,3,distance,cathedral,numerosity_judgement,2,42,3,countries_forward,"['_Congo_', '_Britain_', '_Mali_']","['m', 'f', 'f']","['p318', 'p284', 'p268']","[1, 5, 6]","[86.2038576498559, 90.34149293193902, 91.58892582949886]",3.0,True,6.0,2.6457513110645907,2.1876301765441895,0.93585291113381
0,,sub_112,2024-07-19 09:42:20,3,distance,cathedral,numerosity_judgement,2,43,4,countries_forward,"['_Cuba_', '_Togo_', '_Congo_', '_Yemen_']","['f', 'f', 'm', 'm']","['p284', 'p248', 'p229', 'p256']","[6, 7, 5, 9]","[91.58892582949886, 91.73820004985969, 90.34149293193902, 92.00610777531934]",3.0,False,8.75,1.707825127659933,2.437645196914673,0.8179434797412326
0,,sub_112,2024-07-19 09:42:24,3,distance,cathedral,numerosity_judgement,2,44,6,countries_forward,"['_Belgium_', '_Britain_', '_Peru_', '_Cuba_', '_Togo_', '_Sudan_']","['m', 'f', 'f', 'm', 'm', 'f']","['p229', 'p284', 'p268', 'p307', 'p318', 'p248']","[3, 1, 8, 7, 5, 2]","[89.14911522239515, 86.2038576498559, 92.0152836843556, 91.73820004985969, 90.34149293193902, 87.57049330475357]",3.0,False,6.333333333333333,2.804757862395017,1.937614917755127,0.7646805129951197
0,,sub_112,2024-07-19 09:42:27,3,distance,cathedral,numerosity_judgement,2,45,3,countries_forward,"['_Congo_', '_Oman_', '_Yemen_']","['f', 'm', 'f']","['p268', 'p307', 'p245']","[3, 4, 6]","[89.14911522239515, 89.31368318402099, 91.58892582949886]",2.0,False,6.333333333333333,1.5275252316519465,1.1875965595245361,0.6248439450686641
0,,sub_112,2024-07-19 09:42:30,3,distance,cathedral,numerosity_judgement,2,46,2,countries_forward,"['_Oman_', '_Yemen_']","['m', 'm']","['p229', 'p256']","[3, 6]","[89.14911522239515, 91.58892582949886]",2.0,True,6.5,2.1213203435596424,1.8751111030578613,0.5410623084780388
0,,sub_112,2024-07-19 09:42:34,3,distance,cathedral,numerosity_judgement,2,47,4,countries_forward,"['_Togo_', '_Britain_', '_Sudan_', '_Congo_']","['m', 'f', 'f', 'f']","['p229', 'p284', 'p245', 'p268']","[1, 4, 9, 0]","[86.2038576498559, 89.31368318402099, 92.00610777531934, 84.40078082039426]",3.0,False,5.5,4.041451884327381,1.6250975131988525,0.9507887867438428
0,,sub_112,2024-07-19 09:42:38,3,distance,cathedral,numerosity_judgement,2,48,5,countries_forward,"['_Japan_', '_Togo_', '_Oman_', '_Congo_', '_Sudan_']","['f', 'f', 'm', 'm', 'f']","['p284', 'p245', 'p307', 'p318', 'p248']","[3, 9, 2, 1, 0]","[89.14911522239515, 92.00610777531934, 87.57049330475357, 86.2038576498559, 84.40078082039426]",3.0,False,5.0,3.5355339059327378,2.812666416168213,0.9346044716831232
0,,sub_112,2024-07-19 09:42:43,3,distance,cathedral,numerosity_judgement,2,49,6,countries_forward,"['_Oman_', '_Belgium_', '_Cuba_', '_Japan_', '_Mali_', '_Peru_']","['m', 'm', 'f', 'm', 'm', 'f']","['p256', 'p229', 'p245', 'p307', 'p318', 'p284']","[3, 6, 5, 1, 7, 0]","[89.14911522239515, 91.58892582949886, 90.34149293193902, 86.2038576498559, 91.73820004985969, 84.40078082039426]",3.0,False,5.666666666666667,2.804757862395017,2.7501630783081055,0.7943933719214618
0,,sub_112,2024-07-19 09:42:48,3,distance,cathedral,numerosity_judgement,2,50,4,countries_forward,"['_Cuba_', '_Togo_', '_Tonga_', '_Yemen_']","['m', 'f', 'm', 'f']","['p229', 'p268', 'p307', 'p284']","[6, 0, 5, 7]","[91.58892582949886, 84.40078082039426, 90.34149293193902, 91.73820004985969]",3.0,False,6.5,3.1091263510296048,2.750138998031616,0.7399160140733174
0,,sub_112,2024-07-19 09:42:53,3,distance,cathedral,numerosity_judgement,2,51,6,countries_forward,"['_Mali_', '_Japan_', '_Yemen_', '_Tonga_', '_Togo_', '_Sudan_']","['f', 'm', 'm', 'm', 'f', 'f']","['p284', 'p318', 'p229', 'p307', 'p245', 'p268']","[9, 2, 8, 0, 4, 6]","[92.00610777531934, 87.57049330475357, 92.0152836843556, 84.40078082039426, 89.31368318402099, 91.58892582949886]",2.0,False,6.833333333333333,3.488074922742725,2.9376749992370605,0.965645216207014
0,,sub_112,2024-07-19 09:42:56,3,distance,cathedral,numerosity_judgement,2,52,3,countries_forward,"['_Oman_', '_Tonga_', '_Peru_']","['m', 'f', 'm']","['p318', 'p268', 'p229']","[0, 8, 5]","[84.40078082039426, 92.0152836843556, 90.34149293193902]",3.0,True,6.333333333333333,4.041451884327381,1.937614917755127,0.8959368970604926
0,,sub_112,2024-07-19 09:42:59,3,distance,cathedral,numerosity_judgement,2,53,2,countries_forward,"['_Mali_', '_Peru_']","['m', 'f']","['p229', 'p248']","[6, 2]","[91.58892582949886, 87.57049330475357]",2.0,True,6.0,2.8284271247461903,0.8750519752502441,0.8279309953467257
0,,sub_112,2024-07-19 09:43:02,3,distance,cathedral,numerosity_judgement,2,54,5,countries_forward,"['_Mali_', '_Britain_', '_Togo_', '_Congo_', '_Peru_']","['m', 'f', 'f', 'm', 'f']","['p307', 'p245', 'p284', 'p229', 'p248']","[5, 1, 7, 4, 0]","[90.34149293193902, 86.2038576498559, 91.73820004985969, 89.31368318402099, 84.40078082039426]",3.0,False,5.4,2.8809720581775866,1.5000889301300049,0.8054931335830212
0,,sub_112,2024-07-19 09:43:07,3,distance,cathedral,numerosity_judgement,2,55,2,countries_forward,"['_Syria_', '_Tonga_']","['f', 'm']","['p245', 'p229']","[10, 4]","[93.00003341222717, 89.31368318402099]",3.0,False,9.0,4.242640687119285,3.562711238861084,0.9104641924866644
0,,sub_112,2024-07-19 09:43:11,3,distance,cathedral,numerosity_judgement,2,56,6,countries_forward,"['_Belgium_', '_Oman_', '_Cuba_', '_Peru_', '_Yemen_', '_Togo_']","['m', 'f', 'm', 'm', 'f', 'f']","['p256', 'p268', 'p307', 'p318', 'p245', 'p284']","[3, 8, 10, 0, 6, 9]","[89.14911522239515, 92.0152836843556, 93.00003341222717, 84.40078082039426, 91.58892582949886, 92.00610777531934]",3.0,False,8.0,3.847076812334269,2.000117778778076,0.7806378390648053
0,,sub_112,2024-07-19 09:43:17,3,distance,cathedral,numerosity_judgement,2,57,4,countries_forward,"['_Britain_', '_Yemen_', '_Cuba_', '_Tonga_']","['m', 'f', 'f', 'm']","['p307', 'p284', 'p268', 'p256']","[3, 7, 5, 10]","[89.14911522239515, 91.73820004985969, 90.34149293193902, 93.00003341222717]",2.0,False,8.25,2.9860788111948193,4.687779903411865,0.7633299284984678
0,,sub_112,2024-07-19 09:43:23,3,distance,cathedral,numerosity_judgement,2,58,5,countries_forward,"['_Peru_', '_Oman_', '_Tonga_', '_Japan_', '_Britain_']","['f', 'm', 'm', 'm', 'f']","['p268', 'p307', 'p256', 'p318', 'p284']","[3, 5, 2, 1, 0]","[89.14911522239515, 90.34149293193902, 87.57049330475357, 86.2038576498559, 84.40078082039426]",3.0,False,4.2,1.9235384061671346,3.312671184539795,0.7800476676881172
0,,sub_112,2024-07-19 09:43:26,3,distance,cathedral,numerosity_judgement,2,59,3,countries_forward,"['_Britain_', '_Sudan_', '_Belgium_']","['m', 'm', 'm']","['p318', 'p229', 'p256']","[0, 9, 4]","[84.40078082039426, 92.00610777531934, 89.31368318402099]",2.0,False,6.333333333333333,4.509249752822894,1.625096321105957,0.9560776302349336
0,,sub_112,2024-07-19 09:43:29,3,distance,cathedral,numerosity_judgement,2,60,2,countries_forward,"['_Togo_', '_Belgium_']","['f', 'm']","['p284', 'p307']","[7, 4]","[91.73820004985969, 89.31368318402099]",2.0,True,7.5,2.1213203435596424,1.625096321105957,0.8544546589490409
0,,sub_112,2024-07-19 09:43:32,3,distance,cathedral,numerosity_judgement,2,61,3,countries_forward,"['_Yemen_', '_Peru_', '_Tonga_']","['f', 'm', 'm']","['p268', 'p318', 'p307']","[8, 3, 5]","[92.0152836843556, 89.14911522239515, 90.34149293193902]",2.0,False,7.333333333333333,2.516611478423583,1.9376153945922852,0.649211213256157
0,,sub_112,2024-07-19 09:43:36,3,distance,cathedral,numerosity_judgement,2,62,4,countries_forward,"['_Mali_', '_Togo_', '_Yemen_', '_Peru_']","['f', 'f', 'm', 'm']","['p245', 'p248', 'p229', 'p318']","[10, 3, 5, 6]","[93.00003341222717, 89.14911522239515, 90.34149293193902, 91.58892582949886]",3.0,False,8.0,2.943920288775949,1.6250951290130615,0.7721484508001362
0,,sub_112,2024-07-19 09:43:41,3,distance,cathedral,numerosity_judgement,2,63,6,countries_forward,"['_Yemen_', '_Belgium_', '_Oman_', '_Cuba_', '_Mali_', '_Peru_']","['m', 'm', 'm', 'f', 'f', 'f']","['p318', 'p307', 'p256', 'p245', 'p248', 'p268']","[8, 0, 1, 3, 6, 4]","[92.0152836843556, 84.40078082039426, 86.2038576498559, 89.14911522239515, 91.58892582949886, 89.31368318402099]",4.0,False,5.666666666666667,3.011090610836324,3.5002079010009766,0.7344796277380548
0,,sub_112,2024-07-19 09:43:46,3,distance,cathedral,numerosity_judgement,2,64,5,countries_forward,"['_Oman_', '_Mali_', '_Belgium_', '_Yemen_', '_Togo_']","['m', 'm', 'f', 'f', 'm']","['p229', 'p256', 'p245', 'p268', 'p307']","[5, 0, 1, 9, 10]","[90.34149293193902, 84.40078082039426, 86.2038576498559, 92.00610777531934, 93.00003341222717]",3.0,False,7.0,4.527692569068709,2.5001490116119385,0.7533878106911814
0,,sub_112,2024-07-19 09:43:50,3,distance,cathedral,numerosity_judgement,2,65,6,countries_forward,"['_Yemen_', '_Oman_', '_Syria_', '_Japan_', '_Sudan_', '_Tonga_']","['m', 'f', 'm', 'f', 'f', 'm']","['p318', 'p245', 'p229', 'p284', 'p268', 'p307']","[1, 6, 2, 10, 9, 4]","[86.2038576498559, 91.58892582949886, 87.57049330475357, 93.00003341222717, 92.00610777531934, 89.31368318402099]",3.0,False,7.333333333333333,3.669695718539436,2.1876306533813477,0.9429009193054136
0,,sub_112,2024-07-19 09:43:53,3,distance,cathedral,numerosity_judgement,2,66,3,countries_forward,"['_Oman_', '_Cuba_', '_Congo_']","['m', 'm', 'm']","['p256', 'p318', 'p229']","[5, 0, 6]","[90.34149293193902, 84.40078082039426, 91.58892582949886]",2.0,False,5.666666666666667,3.2145502536643185,1.937617540359497,0.6797752808988764
0,,sub_112,2024-07-19 09:43:56,3,distance,cathedral,numerosity_judgement,2,67,2,countries_forward,"['_Yemen_', '_Cuba_']","['f', 'm']","['p248', 'p307']","[3, 5]","[89.14911522239515, 90.34149293193902]",2.0,True,6.0,1.4142135623730951,1.6250977516174316,0.6060606060606061
0,,sub_112,2024-07-19 09:44:00,3,distance,cathedral,numerosity_judgement,2,68,5,countries_forward,"['_Oman_', '_Peru_', '_Congo_', '_Britain_', '_Togo_']","['m', 'm', 'f', 'm', 'f']","['p229', 'p256', 'p248', 'p318', 'p268']","[6, 2, 10, 4, 9]","[91.58892582949886, 87.57049330475357, 93.00003341222717, 89.31368318402099, 92.00610777531934]",3.0,False,8.2,3.3466401061363023,1.4375851154327393,0.7160821700147543
0,,sub_112,2024-07-19 09:44:06,3,distance,cathedral,numerosity_judgement,2,69,4,countries_forward,"['_Congo_', '_Syria_', '_Japan_', '_Sudan_']","['m', 'f', 'f', 'm']","['p229', 'p268', 'p245', 'p256']","[1, 4, 10, 0]","[86.2038576498559, 89.31368318402099, 93.00003341222717, 84.40078082039426]",3.0,False,5.75,4.5,4.300702810287476,0.9295312677335148
0,,sub_112,2024-07-19 09:44:09,3,distance,cathedral,numerosity_judgement,2,70,2,countries_forward,"['_Oman_', '_Cuba_']","['f', 'm']","['p248', 'p318']","[10, 4]","[93.00003341222717, 89.31368318402099]",2.0,True,9.0,4.242640687119285,2.0001189708709717,0.7746907274997162
0,,sub_112,2024-07-19 09:44:13,3,distance,cathedral,numerosity_judgement,2,71,3,countries_forward,"['_Congo_', '_Yemen_', '_Mali_']","['m', 'm', 'f']","['p256', 'p318', 'p248']","[8, 10, 9]","[92.0152836843556, 93.00003341222717, 92.00610777531934]",2.0,False,11.0,1.0,1.8751108646392822,0.7318579048916127
0,,sub_112,2024-07-19 09:44:18,3,distance,cathedral,numerosity_judgement,2,72,6,countries_forward,"['_Peru_', '_Congo_', '_Oman_', '_Mali_', '_Tonga_', '_Cuba_']","['m', 'm', 'f', 'f', 'f', 'm']","['p318', 'p229', 'p268', 'p245', 'p248', 'p307']","[5, 10, 9, 6, 4, 2]","[90.34149293193902, 93.00003341222717, 92.00610777531934, 91.58892582949886, 89.31368318402099, 87.57049330475357]",3.0,False,8.0,3.03315017762062,2.9376745223999023,0.7256838043354897
0,,sub_112,2024-07-19 09:44:23,3,distance,cathedral,numerosity_judgement,2,73,4,countries_forward,"['_Oman_', '_Togo_', '_Mali_', '_Tonga_']","['m', 'f', 'm', 'f']","['p318', 'p284', 'p256', 'p245']","[9, 4, 3, 1]","[92.00610777531934, 89.31368318402099, 89.14911522239515, 86.2038576498559]",3.0,False,6.25,3.4034296427770228,3.937734842300415,0.841765974350244
0,,sub_112,2024-07-19 09:44:27,3,distance,cathedral,numerosity_judgement,2,74,5,countries_forward,"['_Yemen_', '_Cuba_', '_Tonga_', '_Oman_', '_Peru_']","['f', 'm', 'f', 'f', 'm']","['p284', 'p229', 'p248', 'p245', 'p307']","[7, 3, 5, 6, 2]","[91.73820004985969, 89.14911522239515, 90.34149293193902, 91.58892582949886, 87.57049330475357]",2.0,False,6.6,2.073644135332772,1.562568187713623,0.6934740665077743
0,,sub_112,2024-07-19 09:45:35,3,distance,cathedral,numerosity_judgement,3,0,2,countries_reversed,"['_Yemen_reversed', '_Oman_reversed']","['m', 'f']","['p256', 'p245']","[3, 7]","[89.14911522239515, 91.73820004985969]",2.0,True,7.0,2.8284271247461903,2.500148296356201,0.5731245034615822
0,,sub_112,2024-07-19 09:45:38,3,distance,cathedral,numerosity_judgement,3,1,6,countries_reversed,"['_Yemen_reversed', '_Syria_reversed', '_Oman_reversed', '_Japan_reversed', '_Tonga_reversed', '_Cuba_reversed']","['m', 'f', 'm', 'm', 'f', 'm']","['p256', 'p245', 'p318', 'p307', 'p248', 'p229']","[6, 9, 8, 7, 2, 5]","[91.58892582949886, 92.00610777531934, 92.0152836843556, 91.73820004985969, 87.57049330475357, 90.34149293193902]",3.0,False,8.166666666666666,2.48327740429189,1.875082015991211,0.8549994325275224
0,,sub_112,2024-07-19 09:45:42,3,distance,cathedral,numerosity_judgement,3,2,5,countries_reversed,"['_Sudan_reversed', '_Britain_reversed', '_Peru_reversed', '_Tonga_reversed', '_Congo_reversed']","['f', 'm', 'f', 'm', 'f']","['p268', 'p229', 'p248', 'p307', 'p245']","[2, 6, 4, 0, 5]","[87.57049330475357, 91.58892582949886, 89.31368318402099, 84.40078082039426, 90.34149293193902]",3.0,False,5.4,2.4083189157584592,2.937741279602051,0.9534105095902848
0,,sub_112,2024-07-19 09:45:46,3,distance,cathedral,numerosity_judgement,3,3,4,countries_reversed,"['_Japan_reversed', '_Syria_reversed', '_Sudan_reversed', '_Yemen_reversed']","['m', 'm', 'm', 'f']","['p307', 'p318', 'p256', 'p245']","[3, 7, 4, 6]","[89.14911522239515, 91.73820004985969, 89.31368318402099, 91.58892582949886]",3.0,False,7.0,1.8257418583505538,2.81266713142395,0.7579162410623085
0,,sub_112,2024-07-19 09:45:51,3,distance,cathedral,numerosity_judgement,3,4,3,countries_reversed,"['_Cuba_reversed', '_Britain_reversed', '_Japan_reversed']","['f', 'f', 'm']","['p284', 'p248', 'p318']","[4, 5, 1]","[89.31368318402099, 90.34149293193902, 86.2038576498559]",3.0,True,5.333333333333333,2.0816659994661326,3.8127264976501465,0.9239473385540802
0,,sub_112,2024-07-19 09:45:55,3,distance,cathedral,numerosity_judgement,3,5,5,countries_reversed,"['_Britain_reversed', '_Yemen_reversed', '_Japan_reversed', '_Belgium_reversed', '_Sudan_reversed']","['m', 'f', 'f', 'f', 'm']","['p307', 'p268', 'p284', 'p245', 'p256']","[0, 10, 4, 9, 1]","[84.40078082039426, 93.00003341222717, 89.31368318402099, 92.00610777531934, 86.2038576498559]",3.0,False,6.8,4.54972526643093,2.4376165866851807,0.8583929179434797
0,,sub_112,2024-07-19 09:45:59,3,distance,cathedral,numerosity_judgement,3,6,6,countries_reversed,"['_Congo_reversed', '_Japan_reversed', '_Syria_reversed', '_Cuba_reversed', '_Belgium_reversed', '_Yemen_reversed']","['f', 'm', 'm', 'f', 'm', 'm']","['p248', 'p256', 'p318', 'p284', 'p229', 'p307']","[10, 3, 6, 4, 5, 8]","[93.00003341222717, 89.14911522239515, 91.58892582949886, 89.31368318402099, 90.34149293193902, 92.0152836843556]",4.0,False,8.0,2.6076809620810595,2.9376492500305176,0.702621722846442
0,,sub_112,2024-07-19 09:46:02,3,distance,cathedral,numerosity_judgement,3,7,3,countries_reversed,"['_Congo_reversed', '_Sudan_reversed', '_Yemen_reversed']","['f', 'm', 'f']","['p284', 'p256', 'p248']","[4, 10, 5]","[89.31368318402099, 93.00003341222717, 90.34149293193902]",3.0,True,8.333333333333334,3.214550253664318,1.7501046657562256,0.734207240948814
0,,sub_112,2024-07-19 09:46:05,3,distance,cathedral,numerosity_judgement,3,8,2,countries_reversed,"['_Cuba_reversed', '_Yemen_reversed']","['m', 'f']","['p256', 'p245']","[10, 8]","[93.00003341222717, 92.0152836843556]",2.0,True,11.0,1.4142135623730951,1.5626184940338135,0.6343320848938826
0,,sub_112,2024-07-19 09:46:08,3,distance,cathedral,numerosity_judgement,3,9,4,countries_reversed,"['_Yemen_reversed', '_Belgium_reversed', '_Cuba_reversed', '_Oman_reversed']","['m', 'f', 'f', 'f']","['p307', 'p284', 'p245', 'p248']","[7, 2, 5, 0]","[91.73820004985969, 87.57049330475357, 90.34149293193902, 84.40078082039426]",2.0,False,5.5,3.1091263510296048,1.5625934600830078,0.6890250822835092
0,,sub_112,2024-07-19 09:46:11,3,distance,cathedral,numerosity_judgement,3,10,6,countries_reversed,"['_Syria_reversed', '_Britain_reversed', '_Congo_reversed', '_Mali_reversed', '_Sudan_reversed', '_Oman_reversed']","['m', 'f', 'f', 'f', 'f', 'm']","['p229', 'p284', 'p245', 'p268', 'p248', 'p318']","[10, 3, 8, 2, 7, 9]","[93.00003341222717, 89.14911522239515, 92.0152836843556, 87.57049330475357, 91.73820004985969, 92.00610777531934]",3.0,False,8.5,3.271085446759225,1.3125758171081543,0.8302122347066168
0,,sub_112,2024-07-19 09:46:15,3,distance,cathedral,numerosity_judgement,3,11,4,countries_reversed,"['_Peru_reversed', '_Britain_reversed', '_Yemen_reversed', '_Congo_reversed']","['m', 'f', 'f', 'm']","['p307', 'p245', 'p268', 'p256']","[6, 0, 4, 3]","[91.58892582949886, 84.40078082039426, 89.31368318402099, 89.14911522239515]",3.0,False,5.25,2.5,2.75018048286438,0.6504256043581886
0,,sub_112,2024-07-19 09:46:20,3,distance,cathedral,numerosity_judgement,3,12,5,countries_reversed,"['_Sudan_reversed', '_Cuba_reversed', '_Congo_reversed', '_Peru_reversed', '_Syria_reversed']","['f', 'f', 'm', 'm', 'f']","['p248', 'p284', 'p318', 'p307', 'p245']","[7, 9, 5, 8, 3]","[91.73820004985969, 92.00610777531934, 90.34149293193902, 92.0152836843556, 89.14911522239515]",2.0,False,8.4,2.4083189157584592,3.5002083778381348,0.8348201112246056
0,,sub_112,2024-07-19 09:46:22,3,distance,cathedral,numerosity_judgement,3,13,3,countries_reversed,"['_Oman_reversed', '_Yemen_reversed', '_Cuba_reversed']","['f', 'm', 'f']","['p284', 'p307', 'p268']","[9, 7, 3]","[92.00610777531934, 91.73820004985969, 89.14911522239515]",2.0,False,8.333333333333334,3.055050463303893,1.500089168548584,0.5765633866757462
0,,sub_112,2024-07-19 09:46:25,3,distance,cathedral,numerosity_judgement,3,14,2,countries_reversed,"['_Congo_reversed', '_Belgium_reversed']","['f', 'm']","['p268', 'p307']","[7, 8]","[91.73820004985969, 92.0152836843556]",2.0,True,9.5,0.7071067811865476,1.1875691413879395,0.8540460787651799
0,,sub_112,2024-07-19 09:46:27,3,distance,cathedral,numerosity_judgement,3,15,4,countries_reversed,"['_Oman_reversed', '_Yemen_reversed', '_Britain_reversed', '_Mali_reversed']","['m', 'm', 'm', 'm']","['p229', 'p318', 'p307', 'p256']","[5, 7, 9, 6]","[90.34149293193902, 91.73820004985969, 92.00610777531934, 91.58892582949886]",2.0,False,8.75,1.707825127659933,1.3750808238983154,0.6135966405629327
0,,sub_112,2024-07-19 09:46:30,3,distance,cathedral,numerosity_judgement,3,16,3,countries_reversed,"['_Japan_reversed', '_Syria_reversed', '_Belgium_reversed']","['m', 'm', 'm']","['p256', 'p318', 'p307']","[3, 8, 5]","[89.14911522239515, 92.0152836843556, 90.34149293193902]",3.0,True,7.333333333333333,2.516611478423583,1.7501037120819092,0.8886618998978549
0,,sub_112,2024-07-19 09:46:34,3,distance,cathedral,numerosity_judgement,3,17,6,countries_reversed,"['_Oman_reversed', '_Togo_reversed', '_Britain_reversed', '_Sudan_reversed', '_Peru_reversed', '_Mali_reversed']","['m', 'm', 'f', 'f', 'f', 'm']","['p307', 'p318', 'p248', 'p284', 'p245', 'p229']","[2, 8, 9, 0, 4, 7]","[87.57049330475357, 92.0152836843556, 92.00610777531934, 84.40078082039426, 89.31368318402099, 91.73820004985969]",3.0,False,7.0,3.5777087639996634,2.1876518726348877,0.901350584496652
0,,sub_112,2024-07-19 09:46:39,3,distance,cathedral,numerosity_judgement,3,18,5,countries_reversed,"['_Belgium_reversed', '_Mali_reversed', '_Syria_reversed', '_Sudan_reversed', '_Japan_reversed']","['m', 'f', 'f', 'm', 'f']","['p256', 'p248', 'p284', 'p229', 'p245']","[8, 3, 10, 0, 4]","[92.0152836843556, 89.14911522239515, 93.00003341222717, 84.40078082039426, 89.31368318402099]",4.0,False,7.0,4.0,3.3752005100250244,0.9397344228804902
0,,sub_112,2024-07-19 09:46:41,3,distance,cathedral,numerosity_judgement,3,19,2,countries_reversed,"['_Belgium_reversed', '_Syria_reversed']","['f', 'f']","['p268', 'p248']","[1, 6]","[86.2038576498559, 91.58892582949886]",2.0,True,5.5,3.5355339059327378,1.5000889301300049,0.9371013505844966
0,,sub_112,2024-07-19 09:46:45,3,distance,cathedral,numerosity_judgement,3,20,3,countries_reversed,"['_Yemen_reversed', '_Mali_reversed', '_Tonga_reversed']","['f', 'm', 'm']","['p284', 'p229', 'p256']","[6, 10, 8]","[91.58892582949886, 93.00003341222717, 92.0152836843556]",3.0,True,10.0,2.0,2.500148057937622,0.863659062535467
0,,sub_112,2024-07-19 09:46:48,3,distance,cathedral,numerosity_judgement,3,21,2,countries_reversed,"['_Yemen_reversed', '_Cuba_reversed']","['m', 'f']","['p307', 'p268']","[6, 1]","[91.58892582949886, 86.2038576498559]",2.0,True,5.5,3.5355339059327378,1.250074863433838,0.769424582907729
0,,sub_112,2024-07-19 09:46:50,3,distance,cathedral,numerosity_judgement,3,22,5,countries_reversed,"['_Oman_reversed', '_Mali_reversed', '_Britain_reversed', '_Belgium_reversed', '_Japan_reversed']","['m', 'f', 'f', 'm', 'f']","['p229', 'p248', 'p245', 'p318', 'p268']","[7, 0, 1, 10, 5]","[91.73820004985969, 84.40078082039426, 86.2038576498559, 93.00003341222717, 90.34149293193902]",3.0,False,6.6,4.159326868617084,1.5625925064086914,0.8965838156849393
0,,sub_112,2024-07-19 09:46:54,3,distance,cathedral,numerosity_judgement,3,23,4,countries_reversed,"['_Yemen_reversed', '_Tonga_reversed', '_Congo_reversed', '_Peru_reversed']","['f', 'm', 'f', 'm']","['p248', 'p256', 'p268', 'p318']","[7, 4, 5, 2]","[91.73820004985969, 89.31368318402099, 90.34149293193902, 87.57049330475357]",3.0,False,6.5,2.0816659994661326,2.062622547149658,0.721859039836568
0,,sub_112,2024-07-19 09:46:59,3,distance,cathedral,numerosity_judgement,3,24,6,countries_reversed,"['_Belgium_reversed', '_Yemen_reversed', '_Britain_reversed', '_Tonga_reversed', '_Syria_reversed', '_Sudan_reversed']","['m', 'f', 'm', 'f', 'f', 'm']","['p307', 'p248', 'p229', 'p284', 'p245', 'p256']","[7, 5, 3, 8, 2, 9]","[91.73820004985969, 90.34149293193902, 89.14911522239515, 92.0152836843556, 87.57049330475357, 92.00610777531934]",4.0,False,7.666666666666667,2.804757862395017,3.937734842300415,0.7601407331744411
0,,sub_112,2024-07-19 09:47:02,3,distance,cathedral,numerosity_judgement,3,25,5,countries_reversed,"['_Britain_reversed', '_Tonga_reversed', '_Peru_reversed', '_Cuba_reversed', '_Oman_reversed']","['f', 'm', 'm', 'f', 'f']","['p245', 'p256', 'p318', 'p284', 'p248']","[3, 4, 9, 8, 5]","[89.14911522239515, 89.31368318402099, 92.00610777531934, 92.0152836843556, 90.34149293193902]",3.0,False,7.8,2.588435821108957,1.8751115798950195,0.7134150493701056
0,,sub_112,2024-07-19 09:47:05,3,distance,cathedral,numerosity_judgement,3,26,3,countries_reversed,"['_Togo_reversed', '_Congo_reversed', '_Belgium_reversed']","['f', 'm', 'm']","['p284', 'p229', 'p256']","[2, 9, 1]","[87.57049330475357, 92.00610777531934, 86.2038576498559]",2.0,False,6.0,4.358898943540674,1.4375572204589844,0.9561797752808988
0,,sub_112,2024-07-19 09:47:08,3,distance,cathedral,numerosity_judgement,3,27,4,countries_reversed,"['_Mali_reversed', '_Yemen_reversed', '_Peru_reversed', '_Cuba_reversed']","['f', 'm', 'm', 'f']","['p268', 'p307', 'p229', 'p245']","[8, 9, 10, 6]","[92.0152836843556, 92.00610777531934, 93.00003341222717, 91.58892582949886]",3.0,False,10.25,1.707825127659933,2.250133514404297,0.8085915333106344
0,,sub_112,2024-07-19 09:47:13,3,distance,cathedral,numerosity_judgement,3,28,6,countries_reversed,"['_Sudan_reversed', '_Belgium_reversed', '_Congo_reversed', '_Oman_reversed', '_Tonga_reversed', '_Japan_reversed']","['m', 'm', 'f', 'm', 'f', 'f']","['p229', 'p307', 'p284', 'p256', 'p245', 'p248']","[6, 5, 7, 10, 1, 4]","[91.58892582949886, 90.34149293193902, 91.73820004985969, 93.00003341222717, 86.2038576498559, 89.31368318402099]",4.0,False,7.5,3.0166206257996713,3.187690258026123,0.8701849960276926
0,,sub_112,2024-07-19 09:47:16,3,distance,cathedral,numerosity_judgement,3,29,2,countries_reversed,"['_Congo_reversed', '_Togo_reversed']","['m', 'f']","['p256', 'p284']","[8, 10]","[92.0152836843556, 93.00003341222717]",2.0,True,11.0,1.4142135623730951,1.5000903606414795,0.7468278288503007
0,,sub_112,2024-07-19 09:47:19,3,distance,cathedral,numerosity_judgement,3,30,6,countries_reversed,"['_Syria_reversed', '_Peru_reversed', '_Tonga_reversed', '_Togo_reversed', '_Sudan_reversed', '_Japan_reversed']","['f', 'm', 'f', 'm', 'f', 'm']","['p268', 'p229', 'p248', 'p256', 'p284', 'p318']","[1, 3, 7, 9, 10, 2]","[86.2038576498559, 89.14911522239515, 91.73820004985969, 92.00610777531934, 93.00003341222717, 87.57049330475357]",3.0,False,7.333333333333333,3.8297084310253524,1.625096321105957,0.9600839859266824
0,,sub_112,2024-07-19 09:47:21,3,distance,cathedral,numerosity_judgement,3,31,3,countries_reversed,"['_Cuba_reversed', '_Syria_reversed', '_Japan_reversed']","['m', 'f', 'f']","['p318', 'p245', 'p248']","[9, 3, 8]","[92.00610777531934, 89.14911522239515, 92.0152836843556]",3.0,True,8.666666666666666,3.214550253664318,1.1250669956207275,0.8072749971626376
0,,sub_112,2024-07-19 09:47:24,3,distance,cathedral,numerosity_judgement,3,32,4,countries_reversed,"['_Peru_reversed', '_Yemen_reversed', '_Togo_reversed', '_Cuba_reversed']","['m', 'f', 'm', 'f']","['p229', 'p248', 'p318', 'p245']","[2, 10, 0, 5]","[87.57049330475357, 93.00003341222717, 84.40078082039426, 90.34149293193902]",2.0,False,6.25,4.349329450233296,1.6876003742218018,0.6749290659403019
0,,sub_112,2024-07-19 09:47:28,3,distance,cathedral,numerosity_judgement,3,33,5,countries_reversed,"['_Yemen_reversed', '_Peru_reversed', '_Britain_reversed', '_Japan_reversed', '_Belgium_reversed']","['m', 'f', 'm', 'm', 'm']","['p229', 'p268', 'p307', 'p256', 'p318']","[3, 0, 8, 1, 4]","[89.14911522239515, 84.40078082039426, 92.0152836843556, 86.2038576498559, 89.31368318402099]",3.0,False,5.2,3.1144823004794877,2.37514066696167,0.7819089774145954
0,,sub_112,2024-07-19 09:47:30,3,distance,cathedral,numerosity_judgement,3,34,2,countries_reversed,"['_Oman_reversed', '_Japan_reversed']","['f', 'm']","['p245', 'p307']","[6, 4]","[91.58892582949886, 89.31368318402099]",2.0,True,7.0,1.4142135623730951,1.625096082687378,0.6450119169220293
0,,sub_112,2024-07-19 09:47:35,3,distance,cathedral,numerosity_judgement,3,35,3,countries_reversed,"['_Yemen_reversed', '_Peru_reversed', '_Sudan_reversed']","['f', 'm', 'm']","['p245', 'p256', 'p318']","[6, 1, 4]","[91.58892582949886, 86.2038576498559, 89.31368318402099]",3.0,True,5.666666666666667,2.516611478423583,3.187689781188965,0.8371807967313585
0,,sub_112,2024-07-19 09:47:38,3,distance,cathedral,numerosity_judgement,3,36,4,countries_reversed,"['_Japan_reversed', '_Tonga_reversed', '_Sudan_reversed', '_Mali_reversed']","['f', 'm', 'f', 'm']","['p248', 'p307', 'p268', 'p318']","[2, 0, 3, 9]","[87.57049330475357, 84.40078082039426, 89.14911522239515, 92.00610777531934]",3.0,False,5.5,3.872983346207417,1.9376685619354248,0.9367041198501872
0,,sub_112,2024-07-19 09:47:42,3,distance,cathedral,numerosity_judgement,3,37,2,countries_reversed,"['_Oman_reversed', '_Japan_reversed']","['m', 'f']","['p229', 'p268']","[7, 8]","[91.73820004985969, 92.0152836843556]",3.0,False,9.5,0.7071067811865476,3.000178337097168,0.8139371240494836
0,,sub_112,2024-07-19 09:47:47,3,distance,cathedral,numerosity_judgement,3,38,5,countries_reversed,"['_Congo_reversed', '_Tonga_reversed', '_Togo_reversed', '_Cuba_reversed', '_Belgium_reversed']","['m', 'm', 'm', 'm', 'f']","['p229', 'p256', 'p318', 'p307', 'p268']","[2, 4, 6, 7, 8]","[87.57049330475357, 89.31368318402099, 91.58892582949886, 91.73820004985969, 92.0152836843556]",3.0,False,7.4,2.4083189157584592,3.000178575515747,0.8113154012030417
0,,sub_112,2024-07-19 09:47:51,3,distance,cathedral,numerosity_judgement,3,39,6,countries_reversed,"['_Yemen_reversed', '_Tonga_reversed', '_Oman_reversed', '_Cuba_reversed', '_Congo_reversed', '_Togo_reversed']","['m', 'f', 'f', 'f', 'm', 'm']","['p256', 'p245', 'p248', 'p284', 'p229', 'p318']","[3, 10, 6, 5, 4, 9]","[89.14911522239515, 93.00003341222717, 91.58892582949886, 90.34149293193902, 89.31368318402099, 92.00610777531934]",3.0,False,8.166666666666666,2.786873995477131,3.1251819133758545,0.6990012484394507
0,,sub_112,2024-07-19 09:47:54,3,distance,cathedral,numerosity_judgement,3,40,3,countries_reversed,"['_Congo_reversed', '_Oman_reversed', '_Peru_reversed']","['m', 'm', 'f']","['p307', 'p256', 'p248']","[6, 5, 4]","[91.58892582949886, 90.34149293193902, 89.31368318402099]",2.0,False,7.0,1.0,1.4375855922698975,0.6642151855635001
0,,sub_112,2024-07-19 09:47:59,3,distance,cathedral,numerosity_judgement,3,41,4,countries_reversed,"['_Congo_reversed', '_Peru_reversed', '_Sudan_reversed', '_Syria_reversed']","['m', 'm', 'f', 'm']","['p307', 'p229', 'p248', 'p256']","[7, 9, 0, 3]","[91.73820004985969, 92.00610777531934, 84.40078082039426, 89.14911522239515]",2.0,False,6.75,4.031128874149275,3.875185489654541,0.8883781636590625
0,,sub_112,2024-07-19 09:48:02,3,distance,cathedral,numerosity_judgement,3,42,2,countries_reversed,"['_Congo_reversed', '_Mali_reversed']","['f', 'm']","['p245', 'p229']","[9, 2]","[92.00610777531934, 87.57049330475357]",2.0,True,7.5,4.949747468305833,1.4376106262207031,0.9198047894677108
0,,sub_112,2024-07-19 09:48:05,3,distance,cathedral,numerosity_judgement,3,43,5,countries_reversed,"['_Belgium_reversed', '_Cuba_reversed', '_Congo_reversed', '_Oman_reversed', '_Britain_reversed']","['f', 'm', 'f', 'f', 'm']","['p268', 'p307', 'p248', 'p245', 'p229']","[9, 7, 4, 6, 10]","[92.00610777531934, 91.73820004985969, 89.31368318402099, 91.58892582949886, 93.00003341222717]",3.0,False,9.2,2.3874672772626644,1.9376153945922852,0.6419362160935195
0,,sub_112,2024-07-19 09:48:09,3,distance,cathedral,numerosity_judgement,3,44,6,countries_reversed,"['_Syria_reversed', '_Yemen_reversed', '_Oman_reversed', '_Peru_reversed', '_Sudan_reversed', '_Cuba_reversed']","['m', 'f', 'm', 'f', 'f', 'm']","['p256', 'p248', 'p307', 'p268', 'p284', 'p318']","[2, 3, 5, 6, 0, 10]","[87.57049330475357, 89.14911522239515, 90.34149293193902, 91.58892582949886, 84.40078082039426, 93.00003341222717]",3.0,False,6.333333333333333,3.5023801430836525,2.9376749992370605,0.6612870275791624
0,,sub_112,2024-07-19 09:48:12,3,distance,cathedral,numerosity_judgement,3,45,4,countries_reversed,"['_Sudan_reversed', '_Oman_reversed', '_Syria_reversed', '_Peru_reversed']","['m', 'm', 'f', 'f']","['p229', 'p256', 'p268', 'p284']","[4, 7, 2, 0]","[89.31368318402099, 91.73820004985969, 87.57049330475357, 84.40078082039426]",2.0,False,5.25,2.9860788111948193,1.250070333480835,0.866768811712632
0,,sub_112,2024-07-19 09:48:14,3,distance,cathedral,numerosity_judgement,3,46,2,countries_reversed,"['_Cuba_reversed', '_Yemen_reversed']","['f', 'm']","['p248', 'p307']","[4, 10]","[89.31368318402099, 93.00003341222717]",2.0,True,9.0,4.242640687119285,1.5625932216644287,0.6893655657700601
0,,sub_112,2024-07-19 09:48:18,3,distance,cathedral,numerosity_judgement,3,47,6,countries_reversed,"['_Mali_reversed', '_Syria_reversed', '_Peru_reversed', '_Japan_reversed', '_Congo_reversed', '_Belgium_reversed']","['f', 'm', 'f', 'f', 'm', 'f']","['p284', 'p318', 'p248', 'p245', 'p229', 'p268']","[10, 8, 2, 1, 0, 7]","[93.00003341222717, 92.0152836843556, 87.57049330475357, 86.2038576498559, 84.40078082039426, 91.73820004985969]",4.0,False,6.666666666666667,4.179314138308661,2.2501347064971924,0.9473272046305754
0,,sub_112,2024-07-19 09:48:21,3,distance,cathedral,numerosity_judgement,3,48,5,countries_reversed,"['_Peru_reversed', '_Syria_reversed', '_Britain_reversed', '_Cuba_reversed', '_Tonga_reversed']","['f', 'm', 'm', 'f', 'm']","['p284', 'p256', 'p229', 'p268', 'p307']","[9, 7, 1, 8, 5]","[92.00610777531934, 91.73820004985969, 86.2038576498559, 92.0152836843556, 90.34149293193902]",3.0,False,8.0,3.1622776601683795,1.8126075267791748,0.7378844626035638
0,,sub_112,2024-07-19 09:48:24,3,distance,cathedral,numerosity_judgement,3,49,3,countries_reversed,"['_Cuba_reversed', '_Britain_reversed', '_Yemen_reversed']","['f', 'm', 'f']","['p245', 'p318', 'p268']","[7, 0, 9]","[91.73820004985969, 84.40078082039426, 92.00610777531934]",2.0,False,7.333333333333333,4.725815626252608,1.812608003616333,0.6158778799228237
0,,sub_112,2024-07-19 09:48:29,3,distance,cathedral,numerosity_judgement,3,50,6,countries_reversed,"['_Togo_reversed', '_Mali_reversed', '_Yemen_reversed', '_Japan_reversed', '_Belgium_reversed', '_Britain_reversed']","['m', 'm', 'm', 'f', 'f', 'f']","['p307', 'p318', 'p229', 'p248', 'p284', 'p245']","[1, 3, 7, 9, 6, 0]","[86.2038576498559, 89.14911522239515, 91.73820004985969, 92.00610777531934, 91.58892582949886, 84.40078082039426]",3.0,False,6.333333333333333,3.559026084010437,3.5627126693725586,0.9236182045170808
0,,sub_112,2024-07-19 09:48:33,3,distance,cathedral,numerosity_judgement,3,51,5,countries_reversed,"['_Syria_reversed', '_Sudan_reversed', '_Yemen_reversed', '_Togo_reversed', '_Peru_reversed']","['m', 'm', 'f', 'm', 'f']","['p307', 'p318', 'p248', 'p229', 'p268']","[5, 10, 0, 6, 9]","[90.34149293193902, 93.00003341222717, 84.40078082039426, 91.58892582949886, 92.00610777531934]",3.0,False,8.0,3.9370039370059056,2.875170946121216,0.918340710475542
0,,sub_112,2024-07-19 09:48:36,3,distance,cathedral,numerosity_judgement,3,52,3,countries_reversed,"['_Yemen_reversed', '_Britain_reversed', '_Cuba_reversed']","['m', 'm', 'f']","['p318', 'p229', 'p284']","[5, 6, 7]","[90.34149293193902, 91.58892582949886, 91.73820004985969]",2.0,False,8.0,1.0,1.4375174045562744,0.7852797639314493
0,,sub_112,2024-07-19 09:48:39,3,distance,cathedral,numerosity_judgement,3,53,2,countries_reversed,"['_Yemen_reversed', '_Oman_reversed']","['f', 'm']","['p268', 'p307']","[6, 5]","[91.58892582949886, 90.34149293193902]",2.0,True,7.5,0.7071067811865476,1.5626192092895508,0.5917716490750199
0,,sub_112,2024-07-19 09:48:42,3,distance,cathedral,numerosity_judgement,3,54,4,countries_reversed,"['_Togo_reversed', '_Yemen_reversed', '_Mali_reversed', '_Tonga_reversed']","['m', 'f', 'm', 'm']","['p307', 'p268', 'p318', 'p229']","[5, 6, 3, 4]","[90.34149293193902, 91.58892582949886, 89.14911522239515, 89.31368318402099]",2.0,False,6.5,1.2909944487358056,1.500089168548584,0.7404494382022472
0,,sub_112,2024-07-19 09:48:44,3,distance,cathedral,numerosity_judgement,3,55,3,countries_reversed,"['_Tonga_reversed', '_Yemen_reversed', '_Japan_reversed']","['f', 'm', 'm']","['p245', 'p307', 'p256']","[7, 8, 5]","[91.73820004985969, 92.0152836843556, 90.34149293193902]",3.0,True,8.666666666666666,1.5275252316519468,1.4375853538513184,0.6445919872886166
0,,sub_112,2024-07-19 09:48:47,3,distance,cathedral,numerosity_judgement,3,56,2,countries_reversed,"['_Cuba_reversed', '_Yemen_reversed']","['m', 'f']","['p307', 'p268']","[9, 8]","[92.00610777531934, 92.0152836843556]",2.0,True,10.5,0.7071067811865476,1.250074863433838,0.7140506185450005
0,,sub_112,2024-07-19 09:48:50,3,distance,cathedral,numerosity_judgement,3,57,6,countries_reversed,"['_Cuba_reversed', '_Belgium_reversed', '_Tonga_reversed', '_Sudan_reversed', '_Togo_reversed', '_Mali_reversed']","['f', 'm', 'm', 'm', 'f', 'f']","['p248', 'p256', 'p318', 'p307', 'p268', 'p245']","[2, 1, 0, 6, 4, 5]","[87.57049330475357, 86.2038576498559, 84.40078082039426, 91.58892582949886, 89.31368318402099, 90.34149293193902]",3.0,False,5.0,2.3664319132398464,2.1876304149627686,0.7658722051980479
0,,sub_112,2024-07-19 09:48:54,3,distance,cathedral,numerosity_judgement,3,58,4,countries_reversed,"['_Syria_reversed', '_Tonga_reversed', '_Sudan_reversed', '_Congo_reversed']","['m', 'f', 'm', 'f']","['p318', 'p245', 'p256', 'p248']","[1, 8, 10, 4]","[86.2038576498559, 92.0152836843556, 93.00003341222717, 89.31368318402099]",3.0,False,7.75,4.031128874149275,2.1875648498535156,0.7971966859607309
0,,sub_112,2024-07-19 09:48:57,3,distance,cathedral,numerosity_judgement,3,59,5,countries_reversed,"['_Belgium_reversed', '_Britain_reversed', '_Japan_reversed', '_Syria_reversed', '_Sudan_reversed']","['f', 'm', 'f', 'm', 'm']","['p268', 'p318', 'p284', 'p307', 'p256']","[9, 4, 0, 8, 10]","[92.00610777531934, 89.31368318402099, 84.40078082039426, 92.0152836843556, 93.00003341222717]",3.0,False,8.2,4.147288270665544,2.3126447200775146,0.8675632731812507
0,,sub_112,2024-07-19 09:49:01,3,distance,cathedral,numerosity_judgement,3,60,6,countries_reversed,"['_Yemen_reversed', '_Togo_reversed', '_Britain_reversed', '_Sudan_reversed', '_Oman_reversed', '_Congo_reversed']","['f', 'm', 'm', 'm', 'm', 'f']","['p245', 'p318', 'p229', 'p256', 'p307', 'p248']","[7, 4, 3, 8, 10, 0]","[91.73820004985969, 89.31368318402099, 89.14911522239515, 92.0152836843556, 93.00003341222717, 84.40078082039426]",3.0,False,7.333333333333333,3.669695718539436,2.375140428543091,0.7257519010328
0,,sub_112,2024-07-19 09:49:05,3,distance,cathedral,numerosity_judgement,3,61,4,countries_reversed,"['_Peru_reversed', '_Sudan_reversed', '_Belgium_reversed', '_Britain_reversed']","['m', 'm', 'm', 'm']","['p307', 'p256', 'p229', 'p318']","[4, 0, 8, 9]","[89.31368318402099, 84.40078082039426, 92.0152836843556, 92.00610777531934]",2.0,False,7.25,4.112987559751022,2.4376449584960938,0.9534218590398366
0,,sub_112,2024-07-19 09:49:07,3,distance,cathedral,numerosity_judgement,3,62,2,countries_reversed,"['_Togo_reversed', '_Sudan_reversed']","['f', 'm']","['p284', 'p229']","[1, 0]","[86.2038576498559, 84.40078082039426]",2.0,True,2.5,0.7071067811865476,1.0625710487365723,0.9767903756667802
0,,sub_112,2024-07-19 09:49:10,3,distance,cathedral,numerosity_judgement,3,63,3,countries_reversed,"['_Syria_reversed', '_Tonga_reversed', '_Peru_reversed']","['m', 'm', 'f']","['p229', 'p307', 'p248']","[2, 5, 8]","[87.57049330475357, 90.34149293193902, 92.0152836843556]",3.0,True,7.0,3.0,1.7501044273376465,0.9106798320281466
0,,sub_112,2024-07-19 09:49:14,3,distance,cathedral,numerosity_judgement,3,64,5,countries_reversed,"['_Britain_reversed', '_Peru_reversed', '_Cuba_reversed', '_Syria_reversed', '_Oman_reversed']","['m', 'f', 'f', 'f', 'm']","['p229', 'p245', 'p248', 'p284', 'p256']","[6, 8, 10, 1, 3]","[91.58892582949886, 92.0152836843556, 93.00003341222717, 86.2038576498559, 89.14911522239515]",4.0,False,7.6,3.646916505762094,2.625155448913574,0.6829077289751447
0,,sub_112,2024-07-19 09:49:18,3,distance,cathedral,numerosity_judgement,3,65,2,countries_reversed,"['_Togo_reversed', '_Syria_reversed']","['f', 'm']","['p284', 'p256']","[4, 10]","[89.31368318402099, 93.00003341222717]",3.0,False,9.0,4.242640687119285,2.5001487731933594,0.7863579616388605
0,,sub_112,2024-07-19 09:49:20,3,distance,cathedral,numerosity_judgement,3,66,4,countries_reversed,"['_Togo_reversed', '_Belgium_reversed', '_Britain_reversed', '_Tonga_reversed']","['f', 'f', 'm', 'f']","['p268', 'p284', 'p256', 'p245']","[8, 1, 9, 0]","[92.0152836843556, 86.2038576498559, 92.00610777531934, 84.40078082039426]",3.0,False,6.5,4.654746681256314,1.6250967979431152,0.9091590057882192
0,,sub_112,2024-07-19 09:49:24,3,distance,cathedral,numerosity_judgement,3,67,5,countries_reversed,"['_Yemen_reversed', '_Peru_reversed', '_Mali_reversed', '_Togo_reversed', '_Belgium_reversed']","['f', 'm', 'm', 'f', 'f']","['p248', 'p229', 'p307', 'p284', 'p245']","[8, 10, 6, 3, 7]","[92.0152836843556, 93.00003341222717, 91.58892582949886, 89.14911522239515, 91.73820004985969]",3.0,False,8.8,2.588435821108957,1.8751108646392822,0.7719214618091023
0,,sub_112,2024-07-19 09:49:28,3,distance,cathedral,numerosity_judgement,3,68,3,countries_reversed,"['_Britain_reversed', '_Cuba_reversed', '_Oman_reversed']","['f', 'm', 'm']","['p248', 'p256', 'p307']","[7, 8, 4]","[91.73820004985969, 92.0152836843556, 89.31368318402099]",3.0,True,8.333333333333334,2.0816659994661326,2.7501628398895264,0.6941777323799796
0,,sub_112,2024-07-19 09:49:32,3,distance,cathedral,numerosity_judgement,3,69,6,countries_reversed,"['_Oman_reversed', '_Tonga_reversed', '_Belgium_reversed', '_Cuba_reversed', '_Sudan_reversed', '_Yemen_reversed']","['m', 'f', 'm', 'm', 'm', 'f']","['p229', 'p248', 'p256', 'p307', 'p318', 'p284']","[6, 10, 4, 3, 0, 1]","[91.58892582949886, 93.00003341222717, 89.31368318402099, 89.14911522239515, 84.40078082039426, 86.2038576498559]",4.0,False,6.0,3.63318042491699,2.625155210494995,0.8206559981840881
0,,sub_112,2024-07-19 09:49:34,3,distance,cathedral,numerosity_judgement,3,70,2,countries_reversed,"['_Togo_reversed', '_Mali_reversed']","['f', 'f']","['p268', 'p245']","[5, 3]","[90.34149293193902, 89.14911522239515]",2.0,True,6.0,1.4142135623730951,1.0625629425048828,0.876347747134264
0,,sub_112,2024-07-19 09:49:38,3,distance,cathedral,numerosity_judgement,3,71,5,countries_reversed,"['_Peru_reversed', '_Syria_reversed', '_Cuba_reversed', '_Yemen_reversed', '_Togo_reversed']","['f', 'm', 'f', 'f', 'm']","['p284', 'p256', 'p245', 'p248', 'p229']","[3, 5, 6, 7, 8]","[89.14911522239515, 90.34149293193902, 91.58892582949886, 91.73820004985969, 92.0152836843556]",3.0,False,7.8,1.9235384061671346,2.6876590251922607,0.7078651685393258
0,,sub_112,2024-07-19 09:49:42,3,distance,cathedral,numerosity_judgement,3,72,3,countries_reversed,"['_Yemen_reversed', '_Tonga_reversed', '_Britain_reversed']","['m', 'f', 'f']","['p318', 'p248', 'p245']","[9, 5, 10]","[92.00610777531934, 90.34149293193902, 93.00003341222717]",2.0,False,10.0,2.6457513110645907,3.1876893043518066,0.75846101464079
0,,sub_112,2024-07-19 09:49:45,3,distance,cathedral,numerosity_judgement,3,73,6,countries_reversed,"['_Syria_reversed', '_Togo_reversed', '_Japan_reversed', '_Cuba_reversed', '_Yemen_reversed', '_Britain_reversed']","['f', 'm', 'm', 'f', 'm', 'f']","['p248', 'p307', 'p318', 'p268', 'p229', 'p245']","[4, 3, 10, 6, 0, 1]","[89.31368318402099, 89.14911522239515, 93.00003341222717, 91.58892582949886, 84.40078082039426, 86.2038576498559]",3.0,False,6.0,3.63318042491699,1.6876003742218018,0.7966178640335944
0,,sub_112,2024-07-19 09:49:49,3,distance,cathedral,numerosity_judgement,3,74,4,countries_reversed,"['_Oman_reversed', '_Togo_reversed', '_Belgium_reversed', '_Japan_reversed']","['f', 'f', 'm', 'f']","['p268', 'p284', 'p229', 'p248']","[10, 8, 6, 9]","[93.00003341222717, 92.0152836843556, 91.58892582949886, 92.00610777531934]",4.0,True,10.25,1.707825127659933,2.3751423358917236,0.8463625014186812
0,,sub_112,2024-07-19 09:50:31,3,distance,cathedral,numerosity_judgement,4,0,6,countries_reversed,"['_Oman_reversed', '_Britain_reversed', '_Japan_reversed', '_Syria_reversed', '_Belgium_reversed', '_Mali_reversed']","['m', 'f', 'm', 'f', 'f', 'm']","['p318', 'p268', 'p307', 'p248', 'p284', 'p256']","[10, 2, 5, 4, 1, 7]","[93.00003341222717, 87.57049330475357, 90.34149293193902, 89.31368318402099, 86.2038576498559, 91.73820004985969]",3.0,False,6.833333333333333,3.3115957885386114,1.937614917755127,0.792475314947225
0,,sub_112,2024-07-19 09:50:33,3,distance,cathedral,numerosity_judgement,4,1,2,countries_reversed,"['_Cuba_reversed', '_Peru_reversed']","['m', 'm']","['p256', 'p307']","[10, 6]","[93.00003341222717, 91.58892582949886]",2.0,True,10.0,2.8284271247461903,1.125068187713623,0.6097378277153558
0,,sub_112,2024-07-19 09:50:37,3,distance,cathedral,numerosity_judgement,4,2,3,countries_reversed,"['_Britain_reversed', '_Belgium_reversed', '_Mali_reversed']","['f', 'm', 'f']","['p284', 'p307', 'p268']","[6, 2, 4]","[91.58892582949886, 87.57049330475357, 89.31368318402099]",3.0,True,6.0,2.0,2.1251895427703857,0.9225173079105664
0,,sub_112,2024-07-19 09:50:41,3,distance,cathedral,numerosity_judgement,4,3,4,countries_reversed,"['_Yemen_reversed', '_Belgium_reversed', '_Cuba_reversed', '_Syria_reversed']","['f', 'm', 'f', 'f']","['p245', 'p318', 'p284', 'p248']","[0, 10, 3, 9]","[84.40078082039426, 93.00003341222717, 89.14911522239515, 92.00610777531934]",4.0,True,7.5,4.795831523312719,2.750164270401001,0.912802179094314
0,,sub_112,2024-07-19 09:50:46,3,distance,cathedral,numerosity_judgement,4,4,5,countries_reversed,"['_Oman_reversed', '_Sudan_reversed', '_Mali_reversed', '_Yemen_reversed', '_Belgium_reversed']","['f', 'm', 'f', 'm', 'f']","['p245', 'p307', 'p248', 'p318', 'p268']","[7, 3, 10, 4, 9]","[91.73820004985969, 89.14911522239515, 93.00003341222717, 89.31368318402099, 92.00610777531934]",3.0,False,8.6,3.0495901363953815,3.6252167224884033,0.8280558392917944
0,,sub_112,2024-07-19 09:50:49,3,distance,cathedral,numerosity_judgement,4,5,6,countries_reversed,"['_Oman_reversed', '_Japan_reversed', '_Yemen_reversed', '_Mali_reversed', '_Peru_reversed', '_Congo_reversed']","['m', 'm', 'm', 'f', 'f', 'f']","['p229', 'p256', 'p307', 'p245', 'p268', 'p248']","[0, 9, 10, 5, 3, 7]","[84.40078082039426, 92.00610777531934, 93.00003341222717, 90.34149293193902, 89.14911522239515, 91.73820004985969]",3.0,False,7.666666666666667,3.777124126457412,2.0626416206359863,0.7642038361139485
0,,sub_112,2024-07-19 09:50:52,3,distance,cathedral,numerosity_judgement,4,6,3,countries_reversed,"['_Syria_reversed', '_Cuba_reversed', '_Yemen_reversed']","['m', 'm', 'f']","['p318', 'p307', 'p248']","[6, 8, 5]","[91.58892582949886, 92.0152836843556, 90.34149293193902]",2.0,False,8.333333333333334,1.5275252316519468,1.5625922679901123,0.6818976279650437
0,,sub_112,2024-07-19 09:50:56,3,distance,cathedral,numerosity_judgement,4,7,5,countries_reversed,"['_Peru_reversed', '_Congo_reversed', '_Tonga_reversed', '_Belgium_reversed', '_Britain_reversed']","['m', 'f', 'f', 'f', 'm']","['p256', 'p248', 'p245', 'p284', 'p318']","[3, 9, 2, 0, 5]","[89.14911522239515, 92.00610777531934, 87.57049330475357, 84.40078082039426, 90.34149293193902]",3.0,False,5.8,3.420526275297414,2.6876587867736816,0.8822267620020429
0,,sub_112,2024-07-19 09:50:59,3,distance,cathedral,numerosity_judgement,4,8,4,countries_reversed,"['_Japan_reversed', '_Cuba_reversed', '_Congo_reversed', '_Oman_reversed']","['m', 'm', 'm', 'f']","['p318', 'p307', 'p256', 'p245']","[9, 7, 10, 3]","[92.00610777531934, 91.73820004985969, 93.00003341222717, 89.14911522239515]",3.0,False,9.25,3.095695936834452,2.375141143798828,0.6886505504483033
0,,sub_112,2024-07-19 09:51:02,3,distance,cathedral,numerosity_judgement,4,9,2,countries_reversed,"['_Cuba_reversed', '_Britain_reversed']","['f', 'f']","['p245', 'p284']","[7, 3]","[91.73820004985969, 89.14911522239515]",2.0,True,7.0,2.8284271247461903,1.3125793933868408,0.6937237543979117
0,,sub_112,2024-07-19 09:51:05,3,distance,cathedral,numerosity_judgement,4,10,4,countries_reversed,"['_Peru_reversed', '_Britain_reversed', '_Oman_reversed', '_Yemen_reversed']","['m', 'f', 'm', 'm']","['p307', 'p245', 'p318', 'p256']","[7, 3, 4, 10]","[91.73820004985969, 89.14911522239515, 89.31368318402099, 93.00003341222717]",2.0,False,8.0,3.1622776601683795,1.8751111030578613,0.6803087050278062
0,,sub_112,2024-07-19 09:51:08,3,distance,cathedral,numerosity_judgement,4,11,2,countries_reversed,"['_Japan_reversed', '_Sudan_reversed']","['m', 'f']","['p318', 'p268']","[9, 10]","[92.00610777531934, 93.00003341222717]",2.0,True,11.5,0.7071067811865476,1.500089168548584,0.9604471683123368
0,,sub_112,2024-07-19 09:51:10,3,distance,cathedral,numerosity_judgement,4,12,3,countries_reversed,"['_Oman_reversed', '_Peru_reversed', '_Congo_reversed']","['m', 'f', 'f']","['p307', 'p268', 'p284']","[5, 6, 3]","[90.34149293193902, 91.58892582949886, 89.14911522239515]",2.0,False,6.666666666666667,1.5275252316519465,1.1250672340393066,0.6465781409601634
0,,sub_112,2024-07-19 09:51:14,3,distance,cathedral,numerosity_judgement,4,13,6,countries_reversed,"['_Belgium_reversed', '_Peru_reversed', '_Syria_reversed', '_Congo_reversed', '_Oman_reversed', '_Sudan_reversed']","['m', 'f', 'f', 'm', 'f', 'f']","['p318', 'p248', 'p268', 'p229', 'p245', 'p284']","[7, 2, 5, 10, 9, 1]","[91.73820004985969, 87.57049330475357, 90.34149293193902, 93.00003341222717, 92.00610777531934, 86.2038576498559]",3.0,False,7.666666666666667,3.669695718539436,2.6876604557037354,0.9520485756440812
0,,sub_112,2024-07-19 09:51:18,3,distance,cathedral,numerosity_judgement,4,14,5,countries_reversed,"['_Syria_reversed', '_Belgium_reversed', '_Britain_reversed', '_Japan_reversed', '_Sudan_reversed']","['m', 'f', 'm', 'f', 'm']","['p256', 'p248', 'p307', 'p268', 'p229']","[4, 0, 2, 3, 6]","[89.31368318402099, 84.40078082039426, 87.57049330475357, 89.14911522239515, 91.58892582949886]",3.0,False,5.0,2.23606797749979,2.250133514404297,0.9540233798660764
0,,sub_112,2024-07-19 09:51:21,3,distance,cathedral,numerosity_judgement,4,15,4,countries_reversed,"['_Britain_reversed', '_Peru_reversed', '_Oman_reversed', '_Syria_reversed']","['m', 'f', 'm', 'm']","['p318', 'p245', 'p229', 'p256']","[6, 9, 7, 5]","[91.58892582949886, 92.00610777531934, 91.73820004985969, 90.34149293193902]",3.0,False,8.75,1.707825127659933,2.0626230239868164,0.6560549313358303
0,,sub_112,2024-07-19 09:51:26,3,distance,cathedral,numerosity_judgement,4,16,6,countries_reversed,"['_Peru_reversed', '_Congo_reversed', '_Mali_reversed', '_Cuba_reversed', '_Belgium_reversed', '_Syria_reversed']","['f', 'm', 'm', 'm', 'm', 'f']","['p248', 'p229', 'p318', 'p307', 'p256', 'p268']","[3, 8, 0, 10, 2, 6]","[89.14911522239515, 92.0152836843556, 84.40078082039426, 93.00003341222717, 87.57049330475357, 91.58892582949886]",3.0,False,6.833333333333333,3.8166302763912916,3.625213623046875,0.8849506298944502
0,,sub_112,2024-07-19 09:51:31,3,distance,cathedral,numerosity_judgement,4,17,5,countries_reversed,"['_Sudan_reversed', '_Syria_reversed', '_Tonga_reversed', '_Togo_reversed', '_Oman_reversed']","['m', 'm', 'm', 'm', 'f']","['p318', 'p256', 'p307', 'p229', 'p248']","[8, 2, 4, 3, 5]","[92.0152836843556, 87.57049330475357, 89.31368318402099, 89.14911522239515, 90.34149293193902]",3.0,False,6.4,2.3021728866442674,3.1251845359802246,0.7933492225627057
0,,sub_112,2024-07-19 09:51:33,3,distance,cathedral,numerosity_judgement,4,18,3,countries_reversed,"['_Tonga_reversed', '_Togo_reversed', '_Syria_reversed']","['m', 'm', 'f']","['p256', 'p307', 'p268']","[5, 3, 4]","[90.34149293193902, 89.14911522239515, 89.31368318402099]",2.0,False,6.0,1.0,1.500089406967163,0.8030189535807514
0,,sub_112,2024-07-19 09:51:36,3,distance,cathedral,numerosity_judgement,4,19,2,countries_reversed,"['_Sudan_reversed', '_Togo_reversed']","['f', 'm']","['p284', 'p307']","[2, 9]","[87.57049330475357, 92.00610777531934]",2.0,True,7.5,4.949747468305833,1.3750190734863281,0.9043127908296448
0,,sub_112,2024-07-19 09:51:40,3,distance,cathedral,numerosity_judgement,4,20,5,countries_reversed,"['_Belgium_reversed', '_Cuba_reversed', '_Congo_reversed', '_Oman_reversed', '_Britain_reversed']","['f', 'm', 'f', 'f', 'm']","['p268', 'p307', 'p248', 'p245', 'p229']","[9, 7, 4, 6, 10]","[92.00610777531934, 91.73820004985969, 89.31368318402099, 91.58892582949886, 93.00003341222717]",4.0,False,9.2,2.3874672772626644,2.562652111053467,0.6419362160935195
0,,sub_112,2024-07-19 09:51:42,3,distance,cathedral,numerosity_judgement,4,21,4,countries_reversed,"['_Syria_reversed', '_Yemen_reversed', '_Peru_reversed', '_Congo_reversed']","['f', 'm', 'f', 'm']","['p268', 'p318', 'p245', 'p256']","[0, 7, 3, 9]","[84.40078082039426, 91.73820004985969, 89.14911522239515, 92.00610777531934]",3.0,False,6.75,4.031128874149275,1.4375858306884766,0.7906480535694019
0,,sub_112,2024-07-19 09:51:45,3,distance,cathedral,numerosity_judgement,4,22,3,countries_reversed,"['_Cuba_reversed', '_Mali_reversed', '_Yemen_reversed']","['m', 'f', 'f']","['p318', 'p248', 'p268']","[0, 1, 2]","[84.40078082039426, 86.2038576498559, 87.57049330475357]",2.0,False,3.0,1.0,1.8125801086425781,0.9511860174781523
0,,sub_112,2024-07-19 09:51:49,3,distance,cathedral,numerosity_judgement,4,23,6,countries_reversed,"['_Syria_reversed', '_Yemen_reversed', '_Oman_reversed', '_Peru_reversed', '_Sudan_reversed', '_Cuba_reversed']","['m', 'f', 'm', 'f', 'f', 'm']","['p256', 'p248', 'p307', 'p268', 'p284', 'p318']","[2, 3, 5, 6, 0, 10]","[87.57049330475357, 89.14911522239515, 90.34149293193902, 91.58892582949886, 84.40078082039426, 93.00003341222717]",3.0,False,6.333333333333333,3.5023801430836525,2.2501325607299805,0.6612870275791624
0,,sub_112,2024-07-19 09:51:52,3,distance,cathedral,numerosity_judgement,4,24,2,countries_reversed,"['_Togo_reversed', '_Cuba_reversed']","['f', 'f']","['p268', 'p248']","[5, 9]","[90.34149293193902, 92.00610777531934]",2.0,True,9.0,2.8284271247461903,1.75010347366333,0.8628872999659517
0,,sub_112,2024-07-19 09:51:55,3,distance,cathedral,numerosity_judgement,4,25,4,countries_reversed,"['_Yemen_reversed', '_Peru_reversed', '_Tonga_reversed', '_Britain_reversed']","['m', 'f', 'f', 'm']","['p256', 'p268', 'p248', 'p307']","[10, 4, 8, 3]","[93.00003341222717, 89.31368318402099, 92.0152836843556, 89.14911522239515]",3.0,False,8.25,3.304037933599835,2.0000643730163574,0.7611167858358869
0,,sub_112,2024-07-19 09:52:01,3,distance,cathedral,numerosity_judgement,4,26,6,countries_reversed,"['_Syria_reversed', '_Tonga_reversed', '_Mali_reversed', '_Britain_reversed', '_Congo_reversed', '_Togo_reversed']","['m', 'f', 'm', 'f', 'f', 'f']","['p307', 'p284', 'p256', 'p248', 'p245', 'p268']","[10, 1, 2, 3, 8, 9]","[93.00003341222717, 86.2038576498559, 87.57049330475357, 89.14911522239515, 92.0152836843556, 92.00610777531934]",3.0,False,7.5,3.9370039370059056,4.125243425369263,0.9273862217682444
0,,sub_112,2024-07-19 09:52:03,3,distance,cathedral,numerosity_judgement,4,27,2,countries_reversed,"['_Oman_reversed', '_Yemen_reversed']","['m', 'f']","['p256', 'p245']","[3, 5]","[89.14911522239515, 90.34149293193902]",2.0,True,6.0,1.4142135623730951,1.3750824928283691,0.5576552037226195
0,,sub_112,2024-07-19 09:52:08,3,distance,cathedral,numerosity_judgement,4,28,5,countries_reversed,"['_Yemen_reversed', '_Syria_reversed', '_Congo_reversed', '_Japan_reversed', '_Britain_reversed']","['m', 'm', 'f', 'f', 'm']","['p256', 'p307', 'p248', 'p284', 'p318']","[1, 2, 9, 3, 8]","[86.2038576498559, 87.57049330475357, 92.00610777531934, 89.14911522239515, 92.0152836843556]",3.0,False,6.6,3.6469165057620936,3.312666177749634,0.9419816138917264
0,,sub_112,2024-07-19 09:52:11,3,distance,cathedral,numerosity_judgement,4,29,3,countries_reversed,"['_Oman_reversed', '_Sudan_reversed', '_Britain_reversed']","['f', 'f', 'm']","['p284', 'p248', 'p256']","[5, 7, 10]","[90.34149293193902, 91.73820004985969, 93.00003341222717]",2.0,False,9.333333333333334,2.516611478423583,1.5000934600830078,0.7136079900124844
0,,sub_112,2024-07-19 09:52:16,3,distance,cathedral,numerosity_judgement,4,30,6,countries_reversed,"['_Tonga_reversed', '_Yemen_reversed', '_Sudan_reversed', '_Togo_reversed', '_Mali_reversed', '_Oman_reversed']","['m', 'f', 'm', 'f', 'f', 'm']","['p256', 'p284', 'p318', 'p268', 'p245', 'p307']","[2, 8, 9, 10, 3, 6]","[87.57049330475357, 92.0152836843556, 92.00610777531934, 93.00003341222717, 89.14911522239515, 91.58892582949886]",3.0,False,8.333333333333334,3.265986323710904,3.8752307891845703,0.7172284644194756
0,,sub_112,2024-07-19 09:52:19,3,distance,cathedral,numerosity_judgement,4,31,4,countries_reversed,"['_Yemen_reversed', '_Sudan_reversed', '_Oman_reversed', '_Syria_reversed']","['f', 'm', 'f', 'f']","['p268', 'p256', 'p284', 'p245']","[4, 1, 3, 7]","[89.31368318402099, 86.2038576498559, 89.14911522239515, 91.73820004985969]",3.0,False,5.75,2.5,1.562593698501587,0.8591987288616502
0,,sub_112,2024-07-19 09:52:24,3,distance,cathedral,numerosity_judgement,4,32,5,countries_reversed,"['_Peru_reversed', '_Oman_reversed', '_Togo_reversed', '_Japan_reversed', '_Yemen_reversed']","['f', 'm', 'm', 'm', 'f']","['p245', 'p318', 'p307', 'p256', 'p268']","[4, 6, 8, 7, 9]","[89.31368318402099, 91.58892582949886, 92.0152836843556, 91.73820004985969, 92.00610777531934]",3.0,False,8.8,1.9235384061671346,3.5002083778381348,0.7166496424923391
0,,sub_112,2024-07-19 09:52:27,3,distance,cathedral,numerosity_judgement,4,33,3,countries_reversed,"['_Tonga_reversed', '_Peru_reversed', '_Mali_reversed']","['m', 'f', 'f']","['p229', 'p245', 'p248']","[2, 6, 9]","[87.57049330475357, 91.58892582949886, 92.00610777531934]",2.0,False,7.666666666666667,3.5118845842842465,2.0626235008239746,0.8280558392917944
0,,sub_112,2024-07-19 09:52:29,3,distance,cathedral,numerosity_judgement,4,34,2,countries_reversed,"['_Peru_reversed', '_Yemen_reversed']","['f', 'm']","['p284', 'p256']","[2, 10]","[87.57049330475357, 93.00003341222717]",2.0,True,8.0,5.656854249492381,1.3750824928283691,0.7132902054250368
