event_id,timestamp,subject_id,session_index,plane,setup,task,block,trial_index,headpose_offset_azi,headpose_offset_ele,target_number,target_filename,target_talker,target_sex,target_speaker_id,step_number:,distance_masker,distance_target,target_speaker_proc,target_speaker_chan,target_speaker_azi,target_speaker_ele,target_speaker_dist,target_stim_level,masker_filename,masker_speaker_id,masker_speaker_proc,masker_speaker_chan,masker_speaker_azi,masker_speaker_ele,masker_speaker_dist,masker_stim_level,normalisation_method,normalisation_level_masker,normalisation_level_target,played_number,resp_number,is_correct,reaction_time
,2024-07-09 14:28:00,sub_110,3,distance,cathedral,spatial_unmasking,1,0,0,0,_four_,talker-p248_sex-f_text-_four_.wav,p248,f,5,1,4.0,7.0,RX81,6,0.0,0.0,7.0,92.34149293193902,babble-reversed_n13_p318-nine-p256-five-p307-eight-p268-three-p248-one-p245-four.wav,2,RX81,3,0.0,0.0,4.0,87.57049330475357,mgb_normalisation,87.57049330475357,90.34149293193902,4,4.0,True,1.5623908042907717
,2024-07-09 14:28:04,sub_110,3,distance,cathedral,spatial_unmasking,1,1,0,0,_three_,talker-p248_sex-f_text-_three_.wav,p248,f,5,2,4.0,7.0,RX81,6,0.0,0.0,7.0,88.34149293193902,babble-reversed_n13_p229-three-p307-one-p318-two-p245-eight-p268-five-p284-four.wav,2,RX81,3,0.0,0.0,4.0,87.57049330475357,mgb_normalisation,87.57049330475357,90.34149293193902,3,3.0,True,1.12492036819458
,2024-07-09 14:28:07,sub_110,3,distance,cathedral,spatial_unmasking,1,2,0,0,_five_,talker-p248_sex-f_text-_five_.wav,p248,f,5,3,4.0,7.0,RX81,6,0.0,0.0,7.0,84.341492931939,babble-reversed_n13_p229-nine-p318-one-p307-two-p248-eight-p245-five-p284-four.wav,2,RX81,3,0.0,0.0,4.0,87.57049330475357,mgb_normalisation,87.57049330475357,90.34149293193902,5,5.0,True,0.8749370574951172
,2024-07-09 14:28:10,sub_110,3,distance,cathedral,spatial_unmasking,1,3,0,0,_nine_,talker-p248_sex-f_text-_nine_.wav,p248,f,5,4,4.0,7.0,RX81,6,0.0,0.0,7.0,80.341492931939,babble-reversed_n13_p229-one-p318-eight-p256-three-p268-nine-p248-five-p284-four.wav,2,RX81,3,0.0,0.0,4.0,87.57049330475357,mgb_normalisation,87.57049330475357,90.34149293193902,9,9.0,True,0.999929904937744
,2024-07-09 14:28:14,sub_110,3,distance,cathedral,spatial_unmasking,1,4,0,0,_one_,talker-p248_sex-f_text-_one_.wav,p248,f,5,5,4.0,7.0,RX81,6,0.0,0.0,7.0,76.34149293193902,babble-reversed_n13_p229-nine-p256-four-p318-three-p268-eight-p248-two-p284-five.wav,2,RX81,3,0.0,0.0,4.0,87.57049330475357,mgb_normalisation,87.57049330475357,90.34149293193902,1,2.0,False,1.249912977218628
,2024-07-09 14:28:18,sub_110,3,distance,cathedral,spatial_unmasking,1,5,0,0,_eight_,talker-p248_sex-f_text-_eight_.wav,p248,f,5,6,4.0,7.0,RX81,6,0.0,0.0,7.0,78.34149293193902,babble-reversed_n13_p318-nine-p307-eight-p229-two-p284-one-p248-three-p245-five.wav,2,RX81,3,0.0,0.0,4.0,87.57049330475357,mgb_normalisation,87.57049330475357,90.34149293193902,8,4.0,False,1.499894380569458
,2024-07-09 14:28:21,sub_110,3,distance,cathedral,spatial_unmasking,1,6,0,0,_five_,talker-p248_sex-f_text-_five_.wav,p248,f,5,7,4.0,7.0,RX81,6,0.0,0.0,7.0,80.341492931939,babble-reversed_n13_p318-four-p256-five-p229-three-p284-one-p245-eight-p248-nine.wav,2,RX81,3,0.0,0.0,4.0,87.57049330475357,mgb_normalisation,87.57049330475357,90.34149293193902,5,5.0,True,0.9374358654022216
,2024-07-09 14:28:24,sub_110,3,distance,cathedral,spatial_unmasking,1,7,0,0,_six_,talker-p248_sex-f_text-_six_.wav,p248,f,5,8,4.0,7.0,RX81,6,0.0,0.0,7.0,80.34149293193903,babble-reversed_n13_p256-four-p229-two-p318-five-p268-one-p248-eight-p245-three.wav,2,RX81,3,0.0,0.0,4.0,87.57049330475355,mgb_normalisation,87.57049330475357,90.34149293193902,6,6.0,True,0.6874513626098633
,2024-07-09 14:28:28,sub_110,3,distance,cathedral,spatial_unmasking,1,8,0,0,_three_,talker-p248_sex-f_text-_three_.wav,p248,f,5,9,4.0,7.0,RX81,6,0.0,0.0,7.0,78.34149293193902,babble-reversed_n13_p256-five-p307-nine-p318-three-p284-eight-p268-one-p248-two.wav,2,RX81,3,0.0,0.0,4.0,87.57049330475357,mgb_normalisation,87.57049330475357,90.34149293193902,3,8.0,False,1.499925136566162
,2024-07-09 14:28:32,sub_110,3,distance,cathedral,spatial_unmasking,1,9,0,0,_six_,talker-p248_sex-f_text-_six_.wav,p248,f,5,10,4.0,7.0,RX81,6,0.0,0.0,7.0,79.34149293193902,babble-reversed_n13_p256-eight-p229-three-p307-nine-p245-five-p248-four-p268-two.wav,2,RX81,3,0.0,0.0,4.0,87.57049330475355,mgb_normalisation,87.57049330475357,90.34149293193902,6,6.0,True,1.1249208450317385
,2024-07-09 14:28:35,sub_110,3,distance,cathedral,spatial_unmasking,1,10,0,0,_nine_,talker-p248_sex-f_text-_nine_.wav,p248,f,5,11,4.0,7.0,RX81,6,0.0,0.0,7.0,79.341492931939,babble-reversed_n13_p256-four-p229-eight-p307-five-p248-three-p245-one-p284-two.wav,2,RX81,3,0.0,0.0,4.0,87.57049330475355,mgb_normalisation,87.57049330475357,90.34149293193902,9,9.0,True,0.812443733215332
,2024-07-09 14:28:39,sub_110,3,distance,cathedral,spatial_unmasking,1,11,0,0,_four_,talker-p248_sex-f_text-_four_.wav,p248,f,5,12,4.0,7.0,RX81,6,0.0,0.0,7.0,78.34149293193902,babble-reversed_n13_p256-five-p229-one-p318-three-p248-nine-p284-eight-p268-two.wav,2,RX81,3,0.0,0.0,4.0,87.57049330475357,mgb_normalisation,87.57049330475357,90.34149293193902,4,3.0,False,1.874848365783692
,2024-07-09 14:28:42,sub_110,3,distance,cathedral,spatial_unmasking,1,12,0,0,_nine_,talker-p248_sex-f_text-_nine_.wav,p248,f,5,13,4.0,7.0,RX81,6,0.0,0.0,7.0,79.341492931939,babble-reversed_n13_p256-four-p229-two-p318-five-p268-one-p248-eight-p245-three.wav,2,RX81,3,0.0,0.0,4.0,87.57049330475355,mgb_normalisation,87.57049330475357,90.34149293193902,9,9.0,True,0.999929904937744
,2024-07-09 14:28:46,sub_110,3,distance,cathedral,spatial_unmasking,1,13,0,0,_five_,talker-p248_sex-f_text-_five_.wav,p248,f,5,14,4.0,7.0,RX81,6,0.0,0.0,7.0,79.341492931939,babble-reversed_n13_p229-three-p307-one-p318-two-p245-eight-p268-five-p284-four.wav,2,RX81,3,0.0,0.0,4.0,87.57049330475357,mgb_normalisation,87.57049330475357,90.34149293193902,5,5.0,True,0.8749594688415527
,2024-07-09 14:28:49,sub_110,3,distance,cathedral,spatial_unmasking,1,14,0,0,_eight_,talker-p248_sex-f_text-_eight_.wav,p248,f,5,15,4.0,7.0,RX81,6,0.0,0.0,7.0,78.34149293193902,babble-reversed_n13_p229-five-p256-three-p318-nine-p248-two-p284-four-p268-one.wav,2,RX81,3,0.0,0.0,4.0,87.57049330475357,mgb_normalisation,87.57049330475357,90.34149293193902,8,2.0,False,1.2499125003814695
,2024-07-09 14:28:53,sub_110,3,distance,cathedral,spatial_unmasking,1,15,0,0,_two_,talker-p248_sex-f_text-_two_.wav,p248,f,5,16,4.0,7.0,RX81,6,0.0,0.0,7.0,79.34149293193902,babble-reversed_n13_p318-five-p229-four-p256-eight-p284-one-p245-three-p248-two.wav,2,RX81,3,0.0,0.0,4.0,87.57049330475357,mgb_normalisation,87.57049330475357,90.34149293193902,2,2.0,True,1.1249146461486816
,2024-07-09 14:28:57,sub_110,3,distance,cathedral,spatial_unmasking,1,16,0,0,_two_,talker-p248_sex-f_text-_two_.wav,p248,f,5,17,4.0,7.0,RX81,6,0.0,0.0,7.0,79.34149293193902,babble-reversed_n13_p229-three-p307-one-p318-two-p245-eight-p268-five-p284-four.wav,2,RX81,3,0.0,0.0,4.0,87.57049330475357,mgb_normalisation,87.57049330475357,90.34149293193902,2,2.0,True,1.374903440475464
,2024-07-09 14:29:01,sub_110,3,distance,cathedral,spatial_unmasking,1,17,0,0,_eight_,talker-p248_sex-f_text-_eight_.wav,p248,f,5,18,4.0,7.0,RX81,6,0.0,0.0,7.0,78.34149293193902,babble-reversed_n13_p318-one-p307-two-p256-eight-p284-three-p248-five-p245-four.wav,2,RX81,3,0.0,0.0,4.0,87.57049330475357,mgb_normalisation,87.57049330475357,90.34149293193902,8,4.0,False,1.6873819828033447
,2024-07-09 14:29:04,sub_110,3,distance,cathedral,spatial_unmasking,1,18,0,0,_six_,talker-p248_sex-f_text-_six_.wav,p248,f,5,19,4.0,7.0,RX81,6,0.0,0.0,7.0,79.34149293193902,babble-reversed_n13_p256-two-p307-five-p318-nine-p248-eight-p245-four-p284-one.wav,2,RX81,3,0.0,0.0,4.0,87.57049330475357,mgb_normalisation,87.57049330475357,90.34149293193902,6,6.0,True,0.8749420642852783
,2024-07-09 14:29:08,sub_110,3,distance,cathedral,spatial_unmasking,1,19,0,0,_three_,talker-p248_sex-f_text-_three_.wav,p248,f,5,20,4.0,7.0,RX81,6,0.0,0.0,7.0,79.341492931939,babble-reversed_n13_p307-two-p229-one-p256-five-p248-nine-p284-three-p268-eight.wav,2,RX81,3,0.0,0.0,4.0,87.57049330475357,mgb_normalisation,87.57049330475357,90.34149293193902,3,5.0,False,1.8748507499694824
,2024-07-09 14:29:12,sub_110,3,distance,cathedral,spatial_unmasking,1,20,0,0,_two_,talker-p248_sex-f_text-_two_.wav,p248,f,5,21,4.0,7.0,RX81,6,0.0,0.0,7.0,80.34149293193903,babble-reversed_n13_p318-five-p256-nine-p307-two-p245-eight-p248-one-p284-four.wav,2,RX81,3,0.0,0.0,4.0,87.57049330475357,mgb_normalisation,87.57049330475357,90.34149293193902,2,2.0,True,1.1249215602874756
,2024-07-09 14:29:15,sub_110,3,distance,cathedral,spatial_unmasking,1,21,0,0,_three_,talker-p248_sex-f_text-_three_.wav,p248,f,5,22,4.0,7.0,RX81,6,0.0,0.0,7.0,80.341492931939,babble-reversed_n13_p307-two-p256-four-p318-three-p284-eight-p248-five-p245-nine.wav,2,RX81,3,0.0,0.0,4.0,87.57049330475357,mgb_normalisation,87.57049330475357,90.34149293193902,3,8.0,False,1.3749029636383057
,2024-07-09 14:29:19,sub_110,3,distance,cathedral,spatial_unmasking,1,22,0,0,_five_,talker-p248_sex-f_text-_five_.wav,p248,f,5,23,4.0,7.0,RX81,6,0.0,0.0,7.0,81.341492931939,babble-reversed_n13_p256-eight-p318-five-p307-four-p245-three-p268-one-p284-nine.wav,2,RX81,3,0.0,0.0,4.0,87.57049330475355,mgb_normalisation,87.57049330475357,90.34149293193902,5,5.0,True,0.9999895095825196
,2024-07-09 14:29:22,sub_110,3,distance,cathedral,spatial_unmasking,1,23,0,0,_two_,talker-p248_sex-f_text-_two_.wav,p248,f,5,24,4.0,7.0,RX81,6,0.0,0.0,7.0,81.34149293193902,babble-reversed_n13_p307-nine-p318-two-p256-one-p245-three-p268-four-p248-eight.wav,2,RX81,3,0.0,0.0,4.0,87.57049330475355,mgb_normalisation,87.57049330475357,90.34149293193902,2,3.0,False,1.0624256134033203
,2024-07-09 14:29:26,sub_110,3,distance,cathedral,spatial_unmasking,1,24,0,0,_five_,talker-p248_sex-f_text-_five_.wav,p248,f,5,25,4.0,7.0,RX81,6,0.0,0.0,7.0,82.341492931939,babble-reversed_n13_p229-one-p318-nine-p256-four-p284-eight-p268-five-p245-two.wav,2,RX81,3,0.0,0.0,4.0,87.57049330475357,mgb_normalisation,87.57049330475357,90.34149293193902,5,5.0,True,0.8124425411224365
,2024-07-09 14:29:29,sub_110,3,distance,cathedral,spatial_unmasking,1,25,0,0,_one_,talker-p248_sex-f_text-_one_.wav,p248,f,5,26,4.0,7.0,RX81,6,0.0,0.0,7.0,82.34149293193902,babble-reversed_n13_p307-two-p229-one-p256-five-p248-nine-p284-three-p268-eight.wav,2,RX81,3,0.0,0.0,4.0,87.57049330475357,mgb_normalisation,87.57049330475357,90.34149293193902,1,1.0,True,1.124921798706055
,2024-07-09 14:29:33,sub_110,3,distance,cathedral,spatial_unmasking,1,26,0,0,_one_,talker-p248_sex-f_text-_one_.wav,p248,f,5,27,4.0,7.0,RX81,6,0.0,0.0,7.0,81.34149293193902,babble-reversed_n13_p229-five-p256-one-p318-three-p248-nine-p268-four-p284-eight.wav,2,RX81,3,0.0,0.0,4.0,87.57049330475355,mgb_normalisation,87.57049330475357,90.34149293193902,1,9.0,False,1.4998958110809326
,2024-07-09 14:29:38,sub_110,3,distance,cathedral,spatial_unmasking,1,27,0,0,_four_,talker-p248_sex-f_text-_four_.wav,p248,f,5,28,4.0,7.0,RX81,6,0.0,0.0,7.0,82.34149293193902,babble-reversed_n13_p318-three-p307-one-p256-five-p248-nine-p245-two-p284-eight.wav,2,RX81,3,0.0,0.0,4.0,87.57049330475357,mgb_normalisation,87.57049330475357,90.34149293193902,4,9.0,False,2.437328815460205
,2024-07-09 14:29:41,sub_110,3,distance,cathedral,spatial_unmasking,1,28,0,0,_five_,talker-p248_sex-f_text-_five_.wav,p248,f,5,29,4.0,7.0,RX81,6,0.0,0.0,7.0,83.34149293193902,babble-reversed_n13_p256-four-p229-eight-p307-five-p248-three-p245-one-p284-two.wav,2,RX81,3,0.0,0.0,4.0,87.57049330475355,mgb_normalisation,87.57049330475357,90.34149293193902,5,5.0,True,0.8749392032623291
,2024-07-09 14:29:45,sub_110,3,distance,cathedral,spatial_unmasking,1,29,0,0,_four_,talker-p248_sex-f_text-_four_.wav,p248,f,5,30,4.0,7.0,RX81,6,0.0,0.0,7.0,83.34149293193902,babble-reversed_n13_p318-three-p307-one-p256-five-p248-nine-p245-two-p284-eight.wav,2,RX81,3,0.0,0.0,4.0,87.57049330475357,mgb_normalisation,87.57049330475357,90.34149293193902,4,3.0,False,1.3749041557312012
,2024-07-09 14:29:48,sub_110,3,distance,cathedral,spatial_unmasking,1,30,0,0,_six_,talker-p248_sex-f_text-_six_.wav,p248,f,5,31,4.0,7.0,RX81,6,0.0,0.0,7.0,84.341492931939,babble-reversed_n13_p229-five-p318-two-p307-eight-p268-three-p248-four-p245-one.wav,2,RX81,3,0.0,0.0,4.0,87.57049330475357,mgb_normalisation,87.57049330475357,90.34149293193902,6,6.0,True,1.12491774559021
,2024-07-09 14:29:51,sub_110,3,distance,cathedral,spatial_unmasking,1,31,0,0,_six_,talker-p248_sex-f_text-_six_.wav,p248,f,5,32,4.0,7.0,RX81,6,0.0,0.0,7.0,84.341492931939,babble-reversed_n13_p318-five-p229-four-p256-eight-p284-one-p245-three-p248-two.wav,2,RX81,3,0.0,0.0,4.0,87.57049330475357,mgb_normalisation,87.57049330475357,90.34149293193902,6,6.0,True,0.6874537467956543
,2024-07-09 14:32:22,sub_110,3,distance,cathedral,spatial_unmasking,2,32,0,0,_eight_,talker-p248_sex-f_text-_eight_.wav,p248,f,5,1,7.0,7.0,RX81,6,0.0,0.0,7.0,92.34149293193902,babble-reversed_n13_p318-five-p229-four-p256-eight-p284-one-p245-three-p248-two.wav,5,RX81,6,0.0,0.0,7.0,90.34149293193904,mgb_normalisation,90.34149293193902,90.34149293193902,8,8.0,True,3.062283992767334
,2024-07-09 14:32:26,sub_110,3,distance,cathedral,spatial_unmasking,2,33,0,0,_one_,talker-p248_sex-f_text-_one_.wav,p248,f,5,2,7.0,7.0,RX81,6,0.0,0.0,7.0,88.34149293193903,babble-reversed_n13_p229-five-p256-one-p318-three-p248-nine-p268-four-p284-eight.wav,5,RX81,6,0.0,0.0,7.0,90.341492931939,mgb_normalisation,90.34149293193902,90.34149293193902,1,1.0,True,1.1249170303344729
,2024-07-09 14:32:29,sub_110,3,distance,cathedral,spatial_unmasking,2,34,0,0,_nine_,talker-p248_sex-f_text-_nine_.wav,p248,f,5,3,7.0,7.0,RX81,6,0.0,0.0,7.0,84.341492931939,babble-reversed_n13_p229-two-p318-eight-p256-three-p268-one-p248-nine-p284-five.wav,5,RX81,6,0.0,0.0,7.0,90.341492931939,mgb_normalisation,90.34149293193902,90.34149293193902,9,9.0,True,1.1874172687530518
,2024-07-09 14:32:32,sub_110,3,distance,cathedral,spatial_unmasking,2,35,0,0,_six_,talker-p248_sex-f_text-_six_.wav,p248,f,5,4,7.0,7.0,RX81,6,0.0,0.0,7.0,80.34149293193903,babble-reversed_n13_p256-two-p307-five-p318-nine-p248-eight-p245-four-p284-one.wav,5,RX81,6,0.0,0.0,7.0,90.34149293193904,mgb_normalisation,90.34149293193902,90.34149293193902,6,6.0,True,0.8124451637268066
,2024-07-09 14:32:36,sub_110,3,distance,cathedral,spatial_unmasking,2,36,0,0,_two_,talker-p248_sex-f_text-_two_.wav,p248,f,5,5,7.0,7.0,RX81,6,0.0,0.0,7.0,76.34149293193902,babble-reversed_n13_p229-nine-p318-one-p307-two-p248-eight-p245-five-p284-four.wav,5,RX81,6,0.0,0.0,7.0,90.34149293193904,mgb_normalisation,90.34149293193902,90.34149293193902,2,2.0,True,1.0624260902404783
,2024-07-09 14:32:40,sub_110,3,distance,cathedral,spatial_unmasking,2,37,0,0,_four_,talker-p248_sex-f_text-_four_.wav,p248,f,5,6,7.0,7.0,RX81,6,0.0,0.0,7.0,72.34149293193902,babble-reversed_n13_p229-one-p318-eight-p256-three-p268-nine-p248-five-p284-four.wav,5,RX81,6,0.0,0.0,7.0,90.341492931939,mgb_normalisation,90.34149293193902,90.34149293193902,4,3.0,False,2.374835968017578
,2024-07-09 14:32:46,sub_110,3,distance,cathedral,spatial_unmasking,2,38,0,0,_one_,talker-p248_sex-f_text-_one_.wav,p248,f,5,7,7.0,7.0,RX81,6,0.0,0.0,7.0,74.34149293193902,babble-reversed_n13_p256-eight-p318-two-p307-five-p245-four-p268-nine-p284-one.wav,5,RX81,6,0.0,0.0,7.0,90.34149293193904,mgb_normalisation,90.34149293193902,90.34149293193902,1,8.0,False,2.749807596206665
,2024-07-09 14:32:49,sub_110,3,distance,cathedral,spatial_unmasking,2,39,0,0,_five_,talker-p248_sex-f_text-_five_.wav,p248,f,5,8,7.0,7.0,RX81,6,0.0,0.0,7.0,76.34149293193902,babble-reversed_n13_p256-four-p229-eight-p307-five-p248-three-p245-one-p284-two.wav,5,RX81,6,0.0,0.0,7.0,90.341492931939,mgb_normalisation,90.34149293193902,90.34149293193902,5,9.0,False,1.062397003173828
,2024-07-09 14:32:52,sub_110,3,distance,cathedral,spatial_unmasking,2,40,0,0,_two_,talker-p248_sex-f_text-_two_.wav,p248,f,5,9,7.0,7.0,RX81,6,0.0,0.0,7.0,78.34149293193902,babble-reversed_n13_p229-five-p256-three-p318-nine-p248-two-p284-four-p268-one.wav,5,RX81,6,0.0,0.0,7.0,90.34149293193904,mgb_normalisation,90.34149293193902,90.34149293193902,2,2.0,True,0.999929666519165
,2024-07-09 14:32:56,sub_110,3,distance,cathedral,spatial_unmasking,2,41,0,0,_five_,talker-p248_sex-f_text-_five_.wav,p248,f,5,10,7.0,7.0,RX81,6,0.0,0.0,7.0,78.341492931939,babble-reversed_n13_p256-nine-p307-four-p229-one-p284-three-p248-two-p245-five.wav,5,RX81,6,0.0,0.0,7.0,90.34149293193904,mgb_normalisation,90.34149293193902,90.34149293193902,5,8.0,False,1.6248867511749268
,2024-07-09 14:32:59,sub_110,3,distance,cathedral,spatial_unmasking,2,42,0,0,_five_,talker-p248_sex-f_text-_five_.wav,p248,f,5,11,7.0,7.0,RX81,6,0.0,0.0,7.0,80.341492931939,babble-reversed_n13_p318-five-p229-four-p256-eight-p284-one-p245-three-p248-two.wav,5,RX81,6,0.0,0.0,7.0,90.34149293193904,mgb_normalisation,90.34149293193902,90.34149293193902,5,5.0,True,0.8124637603759766
,2024-07-09 14:33:02,sub_110,3,distance,cathedral,spatial_unmasking,2,43,0,0,_four_,talker-p248_sex-f_text-_four_.wav,p248,f,5,12,7.0,7.0,RX81,6,0.0,0.0,7.0,80.341492931939,babble-reversed_n13_p229-three-p307-one-p318-two-p245-eight-p268-five-p284-four.wav,5,RX81,6,0.0,0.0,7.0,90.34149293193904,mgb_normalisation,90.34149293193902,90.34149293193902,4,4.0,True,0.9374344348907472
,2024-07-09 14:33:05,sub_110,3,distance,cathedral,spatial_unmasking,2,44,0,0,_one_,talker-p248_sex-f_text-_one_.wav,p248,f,5,13,7.0,7.0,RX81,6,0.0,0.0,7.0,78.34149293193902,babble-reversed_n13_p229-one-p318-eight-p256-three-p268-nine-p248-five-p284-four.wav,5,RX81,6,0.0,0.0,7.0,90.341492931939,mgb_normalisation,90.34149293193902,90.34149293193902,1,1.0,True,0.7499463558197021
,2024-07-09 14:33:10,sub_110,3,distance,cathedral,spatial_unmasking,2,45,0,0,_eight_,talker-p248_sex-f_text-_eight_.wav,p248,f,5,14,7.0,7.0,RX81,6,0.0,0.0,7.0,78.34149293193902,babble-reversed_n13_p229-one-p318-eight-p256-three-p268-nine-p248-five-p284-four.wav,5,RX81,6,0.0,0.0,7.0,90.341492931939,mgb_normalisation,90.34149293193902,90.34149293193902,8,2.0,False,1.874868869781494
,2024-07-09 14:33:13,sub_110,3,distance,cathedral,spatial_unmasking,2,46,0,0,_one_,talker-p248_sex-f_text-_one_.wav,p248,f,5,15,7.0,7.0,RX81,6,0.0,0.0,7.0,79.34149293193902,babble-reversed_n13_p229-three-p256-nine-p318-five-p248-one-p245-eight-p284-two.wav,5,RX81,6,0.0,0.0,7.0,90.34149293193904,mgb_normalisation,90.34149293193902,90.34149293193902,1,9.0,False,0.8750040531158447
,2024-07-09 14:33:17,sub_110,3,distance,cathedral,spatial_unmasking,2,47,0,0,_five_,talker-p248_sex-f_text-_five_.wav,p248,f,5,16,7.0,7.0,RX81,6,0.0,0.0,7.0,80.341492931939,babble-reversed_n13_p307-nine-p318-two-p256-one-p245-three-p268-four-p248-eight.wav,5,RX81,6,0.0,0.0,7.0,90.341492931939,mgb_normalisation,90.34149293193902,90.34149293193902,5,9.0,False,1.43739914894104
,2024-07-09 14:33:21,sub_110,3,distance,cathedral,spatial_unmasking,2,48,0,0,_eight_,talker-p248_sex-f_text-_eight_.wav,p248,f,5,17,7.0,7.0,RX81,6,0.0,0.0,7.0,81.34149293193902,babble-reversed_n13_p318-three-p229-one-p256-eight-p245-five-p248-four-p284-nine.wav,5,RX81,6,0.0,0.0,7.0,90.34149293193904,mgb_normalisation,90.34149293193902,90.34149293193902,8,3.0,False,1.937364101409912
,2024-07-09 14:33:25,sub_110,3,distance,cathedral,spatial_unmasking,2,49,0,0,_two_,talker-p248_sex-f_text-_two_.wav,p248,f,5,18,7.0,7.0,RX81,6,0.0,0.0,7.0,82.34149293193902,babble-reversed_n13_p256-three-p318-two-p229-nine-p248-four-p284-one-p268-eight.wav,5,RX81,6,0.0,0.0,7.0,90.341492931939,mgb_normalisation,90.34149293193902,90.34149293193902,2,2.0,True,2.187346935272217
,2024-07-09 14:33:29,sub_110,3,distance,cathedral,spatial_unmasking,2,50,0,0,_one_,talker-p248_sex-f_text-_one_.wav,p248,f,5,19,7.0,7.0,RX81,6,0.0,0.0,7.0,82.34149293193902,babble-reversed_n13_p229-three-p307-one-p318-two-p245-eight-p268-five-p284-four.wav,5,RX81,6,0.0,0.0,7.0,90.34149293193904,mgb_normalisation,90.34149293193902,90.34149293193902,1,1.0,True,1.1874163150787354
,2024-07-09 14:33:32,sub_110,3,distance,cathedral,spatial_unmasking,2,51,0,0,_nine_,talker-p248_sex-f_text-_nine_.wav,p248,f,5,20,7.0,7.0,RX81,6,0.0,0.0,7.0,81.34149293193902,babble-reversed_n13_p229-three-p256-one-p307-two-p284-eight-p268-five-p248-nine.wav,5,RX81,6,0.0,0.0,7.0,90.34149293193904,mgb_normalisation,90.34149293193902,90.34149293193902,9,9.0,True,0.9999301433563232
,2024-07-09 14:33:35,sub_110,3,distance,cathedral,spatial_unmasking,2,52,0,0,_two_,talker-p248_sex-f_text-_two_.wav,p248,f,5,21,7.0,7.0,RX81,6,0.0,0.0,7.0,81.34149293193902,babble-reversed_n13_p307-five-p229-three-p318-nine-p245-four-p268-eight-p284-two.wav,5,RX81,6,0.0,0.0,7.0,90.341492931939,mgb_normalisation,90.34149293193902,90.34149293193902,2,2.0,True,0.9374346733093262
,2024-07-09 14:33:39,sub_110,3,distance,cathedral,spatial_unmasking,2,53,0,0,_four_,talker-p248_sex-f_text-_four_.wav,p248,f,5,22,7.0,7.0,RX81,6,0.0,0.0,7.0,80.341492931939,babble-reversed_n13_p307-nine-p318-two-p256-one-p245-three-p268-four-p248-eight.wav,5,RX81,6,0.0,0.0,7.0,90.341492931939,mgb_normalisation,90.34149293193902,90.34149293193902,4,3.0,False,1.687382459640503
,2024-07-09 14:33:43,sub_110,3,distance,cathedral,spatial_unmasking,2,54,0,0,_one_,talker-p248_sex-f_text-_one_.wav,p248,f,5,23,7.0,7.0,RX81,6,0.0,0.0,7.0,81.34149293193902,babble-reversed_n13_p256-five-p307-nine-p318-three-p284-eight-p268-one-p248-two.wav,5,RX81,6,0.0,0.0,7.0,90.34149293193904,mgb_normalisation,90.34149293193902,90.34149293193902,1,9.0,False,1.1874170303344729
,2024-07-09 14:33:46,sub_110,3,distance,cathedral,spatial_unmasking,2,55,0,0,_nine_,talker-p248_sex-f_text-_nine_.wav,p248,f,5,24,7.0,7.0,RX81,6,0.0,0.0,7.0,82.34149293193902,babble-reversed_n13_p229-three-p307-one-p318-two-p245-eight-p268-five-p284-four.wav,5,RX81,6,0.0,0.0,7.0,90.34149293193904,mgb_normalisation,90.34149293193902,90.34149293193902,9,9.0,True,0.8749399185180664
,2024-07-09 14:33:51,sub_110,3,distance,cathedral,spatial_unmasking,2,56,0,0,_three_,talker-p248_sex-f_text-_three_.wav,p248,f,5,25,7.0,7.0,RX81,6,0.0,0.0,7.0,82.34149293193902,babble-reversed_n13_p256-nine-p307-four-p229-one-p284-three-p248-two-p245-five.wav,5,RX81,6,0.0,0.0,7.0,90.34149293193904,mgb_normalisation,90.34149293193902,90.34149293193902,3,5.0,False,2.8122448921203613
,2024-07-09 14:33:54,sub_110,3,distance,cathedral,spatial_unmasking,2,57,0,0,_three_,talker-p248_sex-f_text-_three_.wav,p248,f,5,26,7.0,7.0,RX81,6,0.0,0.0,7.0,83.34149293193902,babble-reversed_n13_p307-nine-p318-two-p256-one-p245-three-p268-four-p248-eight.wav,5,RX81,6,0.0,0.0,7.0,90.341492931939,mgb_normalisation,90.34149293193902,90.34149293193902,3,3.0,True,0.8749380111694336
,2024-07-09 14:33:58,sub_110,3,distance,cathedral,spatial_unmasking,2,58,0,0,_five_,talker-p248_sex-f_text-_five_.wav,p248,f,5,27,7.0,7.0,RX81,6,0.0,0.0,7.0,83.34149293193902,babble-reversed_n13_p229-two-p318-eight-p256-three-p268-one-p248-nine-p284-five.wav,5,RX81,6,0.0,0.0,7.0,90.341492931939,mgb_normalisation,90.34149293193902,90.34149293193902,5,5.0,True,0.937434196472168
,2024-07-09 14:34:01,sub_110,3,distance,cathedral,spatial_unmasking,2,59,0,0,_eight_,talker-p248_sex-f_text-_eight_.wav,p248,f,5,28,7.0,7.0,RX81,6,0.0,0.0,7.0,82.34149293193902,babble-reversed_n13_p229-five-p318-two-p307-eight-p268-three-p248-four-p245-one.wav,5,RX81,6,0.0,0.0,7.0,90.34149293193904,mgb_normalisation,90.34149293193902,90.34149293193902,8,4.0,False,1.374903678894043
,2024-07-09 14:34:04,sub_110,3,distance,cathedral,spatial_unmasking,2,60,0,0,_nine_,talker-p248_sex-f_text-_nine_.wav,p248,f,5,29,7.0,7.0,RX81,6,0.0,0.0,7.0,83.34149293193902,babble-reversed_n13_p229-nine-p256-four-p318-three-p268-eight-p248-two-p284-five.wav,5,RX81,6,0.0,0.0,7.0,90.34149293193904,mgb_normalisation,90.34149293193902,90.34149293193902,9,9.0,True,0.9374105930328368
,2024-07-09 14:34:07,sub_110,3,distance,cathedral,spatial_unmasking,2,61,0,0,_six_,talker-p248_sex-f_text-_six_.wav,p248,f,5,30,7.0,7.0,RX81,6,0.0,0.0,7.0,83.34149293193902,babble-reversed_n13_p229-one-p318-eight-p256-three-p268-two-p245-five-p248-nine.wav,5,RX81,6,0.0,0.0,7.0,90.341492931939,mgb_normalisation,90.34149293193902,90.34149293193902,6,6.0,True,0.7499470710754395
,2024-07-09 14:34:12,sub_110,3,distance,cathedral,spatial_unmasking,2,62,0,0,_four_,talker-p248_sex-f_text-_four_.wav,p248,f,5,31,7.0,7.0,RX81,6,0.0,0.0,7.0,82.34149293193902,babble-reversed_n13_p256-four-p229-eight-p307-five-p248-three-p245-one-p284-two.wav,5,RX81,6,0.0,0.0,7.0,90.341492931939,mgb_normalisation,90.34149293193902,90.34149293193902,4,2.0,False,1.999860048294068
,2024-07-09 14:34:15,sub_110,3,distance,cathedral,spatial_unmasking,2,63,0,0,_eight_,talker-p248_sex-f_text-_eight_.wav,p248,f,5,32,7.0,7.0,RX81,6,0.0,0.0,7.0,83.34149293193902,babble-reversed_n13_p318-five-p229-three-p256-four-p268-eight-p248-one-p245-nine.wav,5,RX81,6,0.0,0.0,7.0,90.34149293193904,mgb_normalisation,90.34149293193902,90.34149293193902,8,4.0,False,1.3749041557312012
,2024-07-09 14:34:20,sub_110,3,distance,cathedral,spatial_unmasking,2,64,0,0,_four_,talker-p248_sex-f_text-_four_.wav,p248,f,5,33,7.0,7.0,RX81,6,0.0,0.0,7.0,84.341492931939,babble-reversed_n13_p256-eight-p229-three-p307-nine-p245-five-p248-four-p268-two.wav,5,RX81,6,0.0,0.0,7.0,90.341492931939,mgb_normalisation,90.34149293193902,90.34149293193902,4,8.0,False,2.562318801879883
,2024-07-09 14:34:25,sub_110,3,distance,cathedral,spatial_unmasking,2,65,0,0,_three_,talker-p248_sex-f_text-_three_.wav,p248,f,5,34,7.0,7.0,RX81,6,0.0,0.0,7.0,85.34149293193903,babble-reversed_n13_p256-five-p229-one-p318-three-p248-nine-p284-eight-p268-two.wav,5,RX81,6,0.0,0.0,7.0,90.34149293193904,mgb_normalisation,90.34149293193902,90.34149293193902,3,3.0,True,2.0623011589050293
,2024-07-09 14:34:30,sub_110,3,distance,cathedral,spatial_unmasking,2,66,0,0,_four_,talker-p248_sex-f_text-_four_.wav,p248,f,5,35,7.0,7.0,RX81,6,0.0,0.0,7.0,85.341492931939,babble-reversed_n13_p229-five-p318-two-p307-eight-p268-three-p248-four-p245-one.wav,5,RX81,6,0.0,0.0,7.0,90.34149293193904,mgb_normalisation,90.34149293193902,90.34149293193902,4,2.0,False,2.6873650550842285
,2024-07-09 14:34:33,sub_110,3,distance,cathedral,spatial_unmasking,2,67,0,0,_six_,talker-p248_sex-f_text-_six_.wav,p248,f,5,36,7.0,7.0,RX81,6,0.0,0.0,7.0,86.34149293193902,babble-reversed_n13_p229-one-p318-eight-p256-three-p268-nine-p248-five-p284-four.wav,5,RX81,6,0.0,0.0,7.0,90.341492931939,mgb_normalisation,90.34149293193902,90.34149293193902,6,6.0,True,0.8124427795410156
,2024-07-09 14:34:36,sub_110,3,distance,cathedral,spatial_unmasking,2,68,0,0,_three_,talker-p248_sex-f_text-_three_.wav,p248,f,5,37,7.0,7.0,RX81,6,0.0,0.0,7.0,86.34149293193902,babble-reversed_n13_p307-five-p229-three-p318-nine-p245-four-p268-eight-p284-two.wav,5,RX81,6,0.0,0.0,7.0,90.341492931939,mgb_normalisation,90.34149293193902,90.34149293193902,3,3.0,True,0.9999959468841552
,2024-07-09 14:34:39,sub_110,3,distance,cathedral,spatial_unmasking,2,69,0,0,_five_,talker-p248_sex-f_text-_five_.wav,p248,f,5,38,7.0,7.0,RX81,6,0.0,0.0,7.0,85.341492931939,babble-reversed_n13_p307-nine-p318-two-p256-one-p245-three-p268-four-p248-eight.wav,5,RX81,6,0.0,0.0,7.0,90.341492931939,mgb_normalisation,90.34149293193902,90.34149293193902,5,5.0,True,0.9999303817749025
,2024-07-09 14:34:43,sub_110,3,distance,cathedral,spatial_unmasking,2,70,0,0,_eight_,talker-p248_sex-f_text-_eight_.wav,p248,f,5,39,7.0,7.0,RX81,6,0.0,0.0,7.0,85.34149293193903,babble-reversed_n13_p307-two-p229-one-p256-five-p248-nine-p284-three-p268-eight.wav,5,RX81,6,0.0,0.0,7.0,90.34149293193904,mgb_normalisation,90.34149293193902,90.34149293193902,8,4.0,False,1.1874172687530518
,2024-07-09 14:34:46,sub_110,3,distance,cathedral,spatial_unmasking,2,71,0,0,_five_,talker-p248_sex-f_text-_five_.wav,p248,f,5,40,7.0,7.0,RX81,6,0.0,0.0,7.0,86.341492931939,babble-reversed_n13_p229-one-p318-eight-p256-three-p268-nine-p248-five-p284-four.wav,5,RX81,6,0.0,0.0,7.0,90.341492931939,mgb_normalisation,90.34149293193902,90.34149293193902,5,5.0,True,0.937406063079834
,2024-07-09 14:34:49,sub_110,3,distance,cathedral,spatial_unmasking,2,72,0,0,_four_,talker-p248_sex-f_text-_four_.wav,p248,f,5,41,7.0,7.0,RX81,6,0.0,0.0,7.0,86.341492931939,babble-reversed_n13_p256-three-p318-one-p307-two-p284-nine-p268-four-p245-eight.wav,5,RX81,6,0.0,0.0,7.0,90.34149293193904,mgb_normalisation,90.34149293193902,90.34149293193902,4,4.0,True,1.0624253749847412
,2024-07-09 14:37:17,sub_110,3,distance,cathedral,spatial_unmasking,3,73,0,0,_five_,talker-p248_sex-f_text-_five_.wav,p248,f,5,1,12.0,7.0,RX81,6,0.0,0.0,7.0,92.34149293193902,babble-reversed_n13_p229-five-p256-one-p318-three-p248-nine-p268-four-p284-eight.wav,10,RX81,11,0.0,0.0,12.0,93.00003341222715,mgb_normalisation,93.00003341222715,90.34149293193902,5,5.0,True,1.1249666213989258
,2024-07-09 14:37:21,sub_110,3,distance,cathedral,spatial_unmasking,3,74,0,0,_two_,talker-p248_sex-f_text-_two_.wav,p248,f,5,2,12.0,7.0,RX81,6,0.0,0.0,7.0,88.34149293193903,babble-reversed_n13_p256-five-p229-one-p318-three-p248-nine-p284-eight-p268-two.wav,10,RX81,11,0.0,0.0,12.0,93.00003341222718,mgb_normalisation,93.00003341222715,90.34149293193902,2,3.0,False,1.3124089241027832
,2024-07-09 14:37:24,sub_110,3,distance,cathedral,spatial_unmasking,3,75,0,0,_two_,talker-p248_sex-f_text-_two_.wav,p248,f,5,3,12.0,7.0,RX81,6,0.0,0.0,7.0,90.34149293193904,babble-reversed_n13_p256-four-p229-eight-p307-five-p248-three-p245-one-p284-two.wav,10,RX81,11,0.0,0.0,12.0,93.00003341222715,mgb_normalisation,93.00003341222715,90.34149293193902,2,2.0,True,1.1249220371246338
,2024-07-09 14:37:28,sub_110,3,distance,cathedral,spatial_unmasking,3,76,0,0,_six_,talker-p248_sex-f_text-_six_.wav,p248,f,5,4,12.0,7.0,RX81,6,0.0,0.0,7.0,90.341492931939,babble-reversed_n13_p307-one-p318-five-p229-four-p268-eight-p284-two-p245-three.wav,10,RX81,11,0.0,0.0,12.0,93.00003341222715,mgb_normalisation,93.00003341222715,90.34149293193902,6,6.0,True,1.3123743534088137
,2024-07-09 14:37:32,sub_110,3,distance,cathedral,spatial_unmasking,3,77,0,0,_six_,talker-p248_sex-f_text-_six_.wav,p248,f,5,5,12.0,7.0,RX81,6,0.0,0.0,7.0,88.34149293193902,babble-reversed_n13_p256-eight-p229-three-p307-nine-p245-five-p248-four-p268-two.wav,10,RX81,11,0.0,0.0,12.0,93.00003341222715,mgb_normalisation,93.00003341222715,90.34149293193902,6,6.0,True,1.0624256134033203
,2024-07-09 14:37:35,sub_110,3,distance,cathedral,spatial_unmasking,3,78,0,0,_two_,talker-p248_sex-f_text-_two_.wav,p248,f,5,6,12.0,7.0,RX81,6,0.0,0.0,7.0,88.34149293193903,babble-reversed_n13_p318-three-p229-one-p256-eight-p245-five-p248-four-p284-nine.wav,10,RX81,11,0.0,0.0,12.0,93.00003341222718,mgb_normalisation,93.00003341222715,90.34149293193902,2,2.0,True,1.4373903274536133
,2024-07-09 14:37:39,sub_110,3,distance,cathedral,spatial_unmasking,3,79,0,0,_three_,talker-p248_sex-f_text-_three_.wav,p248,f,5,7,12.0,7.0,RX81,6,0.0,0.0,7.0,86.34149293193902,babble-reversed_n13_p229-one-p318-nine-p256-four-p284-eight-p268-five-p245-two.wav,10,RX81,11,0.0,0.0,12.0,93.00003341222715,mgb_normalisation,93.00003341222715,90.34149293193902,3,3.0,True,0.9374337196350098
,2024-07-09 14:37:42,sub_110,3,distance,cathedral,spatial_unmasking,3,80,0,0,_five_,talker-p248_sex-f_text-_five_.wav,p248,f,5,8,12.0,7.0,RX81,6,0.0,0.0,7.0,86.341492931939,babble-reversed_n13_p229-five-p256-one-p318-three-p248-nine-p268-four-p284-eight.wav,10,RX81,11,0.0,0.0,12.0,93.00003341222715,mgb_normalisation,93.00003341222715,90.34149293193902,5,5.0,True,0.7499616146087646
,2024-07-09 14:37:45,sub_110,3,distance,cathedral,spatial_unmasking,3,81,0,0,_eight_,talker-p248_sex-f_text-_eight_.wav,p248,f,5,9,12.0,7.0,RX81,6,0.0,0.0,7.0,84.34149293193903,babble-reversed_n13_p229-two-p256-three-p318-eight-p284-five-p268-four-p245-one.wav,10,RX81,11,0.0,0.0,12.0,93.00003341222718,mgb_normalisation,93.00003341222715,90.34149293193902,8,8.0,True,1.1249206066131592
,2024-07-09 14:37:50,sub_110,3,distance,cathedral,spatial_unmasking,3,82,0,0,_four_,talker-p248_sex-f_text-_four_.wav,p248,f,5,10,12.0,7.0,RX81,6,0.0,0.0,7.0,84.341492931939,babble-reversed_n13_p256-five-p229-one-p318-three-p248-nine-p284-eight-p268-two.wav,10,RX81,11,0.0,0.0,12.0,93.00003341222718,mgb_normalisation,93.00003341222715,90.34149293193902,4,4.0,True,2.43733024597168
,2024-07-09 14:37:54,sub_110,3,distance,cathedral,spatial_unmasking,3,83,0,0,_five_,talker-p248_sex-f_text-_five_.wav,p248,f,5,11,12.0,7.0,RX81,6,0.0,0.0,7.0,82.341492931939,babble-reversed_n13_p318-five-p256-nine-p307-two-p245-eight-p248-one-p284-four.wav,10,RX81,11,0.0,0.0,12.0,93.00003341222718,mgb_normalisation,93.00003341222715,90.34149293193902,5,5.0,True,0.8749935626983643
,2024-07-09 14:37:59,sub_110,3,distance,cathedral,spatial_unmasking,3,84,0,0,_nine_,talker-p248_sex-f_text-_nine_.wav,p248,f,5,12,12.0,7.0,RX81,6,0.0,0.0,7.0,82.34149293193902,babble-reversed_n13_p229-one-p318-nine-p256-four-p284-eight-p268-five-p245-two.wav,10,RX81,11,0.0,0.0,12.0,93.00003341222715,mgb_normalisation,93.00003341222715,90.34149293193902,9,5.0,False,2.812302350997925
,2024-07-09 14:38:02,sub_110,3,distance,cathedral,spatial_unmasking,3,85,0,0,_one_,talker-p248_sex-f_text-_one_.wav,p248,f,5,13,12.0,7.0,RX81,6,0.0,0.0,7.0,83.34149293193903,babble-reversed_n13_p229-five-p256-three-p318-nine-p248-two-p284-four-p268-one.wav,10,RX81,11,0.0,0.0,12.0,93.00003341222718,mgb_normalisation,93.00003341222715,90.34149293193902,1,1.0,True,0.874931812286377
,2024-07-09 14:38:05,sub_110,3,distance,cathedral,spatial_unmasking,3,86,0,0,_three_,talker-p248_sex-f_text-_three_.wav,p248,f,5,14,12.0,7.0,RX81,6,0.0,0.0,7.0,83.34149293193902,babble-reversed_n13_p307-nine-p318-two-p256-one-p245-three-p268-four-p248-eight.wav,10,RX81,11,0.0,0.0,12.0,93.00003341222715,mgb_normalisation,93.00003341222715,90.34149293193902,3,3.0,True,0.8124434947967529
,2024-07-09 14:38:08,sub_110,3,distance,cathedral,spatial_unmasking,3,87,0,0,_two_,talker-p248_sex-f_text-_two_.wav,p248,f,5,15,12.0,7.0,RX81,6,0.0,0.0,7.0,82.34149293193902,babble-reversed_n13_p318-five-p229-four-p256-eight-p284-one-p245-three-p248-two.wav,10,RX81,11,0.0,0.0,12.0,93.00003341222718,mgb_normalisation,93.00003341222715,90.34149293193902,2,2.0,True,0.8124432563781738
,2024-07-09 14:38:12,sub_110,3,distance,cathedral,spatial_unmasking,3,88,0,0,_nine_,talker-p248_sex-f_text-_nine_.wav,p248,f,5,16,12.0,7.0,RX81,6,0.0,0.0,7.0,82.34149293193902,babble-reversed_n13_p229-two-p256-three-p318-eight-p284-five-p268-four-p245-one.wav,10,RX81,11,0.0,0.0,12.0,93.00003341222718,mgb_normalisation,93.00003341222715,90.34149293193902,9,9.0,True,0.9999310970306396
,2024-07-09 14:38:15,sub_110,3,distance,cathedral,spatial_unmasking,3,89,0,0,_two_,talker-p248_sex-f_text-_two_.wav,p248,f,5,17,12.0,7.0,RX81,6,0.0,0.0,7.0,81.34149293193902,babble-reversed_n13_p229-one-p318-eight-p256-three-p268-nine-p248-five-p284-four.wav,10,RX81,11,0.0,0.0,12.0,93.00003341222715,mgb_normalisation,93.00003341222715,90.34149293193902,2,2.0,True,0.9374613761901855
,2024-07-09 14:38:19,sub_110,3,distance,cathedral,spatial_unmasking,3,90,0,0,_three_,talker-p248_sex-f_text-_three_.wav,p248,f,5,18,12.0,7.0,RX81,6,0.0,0.0,7.0,81.34149293193902,babble-reversed_n13_p229-two-p256-three-p318-eight-p284-five-p268-four-p245-one.wav,10,RX81,11,0.0,0.0,12.0,93.00003341222718,mgb_normalisation,93.00003341222715,90.34149293193902,3,3.0,True,0.9999303817749025
,2024-07-09 14:38:22,sub_110,3,distance,cathedral,spatial_unmasking,3,91,0,0,_nine_,talker-p248_sex-f_text-_nine_.wav,p248,f,5,19,12.0,7.0,RX81,6,0.0,0.0,7.0,80.341492931939,babble-reversed_n13_p229-three-p307-one-p318-two-p245-eight-p268-five-p284-four.wav,10,RX81,11,0.0,0.0,12.0,93.00003341222718,mgb_normalisation,93.00003341222715,90.34149293193902,9,9.0,True,0.8749382495880127
,2024-07-09 14:38:26,sub_110,3,distance,cathedral,spatial_unmasking,3,92,0,0,_two_,talker-p248_sex-f_text-_two_.wav,p248,f,5,20,12.0,7.0,RX81,6,0.0,0.0,7.0,80.34149293193903,babble-reversed_n13_p318-three-p307-one-p256-five-p248-nine-p245-two-p284-eight.wav,10,RX81,11,0.0,0.0,12.0,93.00003341222718,mgb_normalisation,93.00003341222715,90.34149293193902,2,1.0,False,2.124851703643799
,2024-07-09 14:38:31,sub_110,3,distance,cathedral,spatial_unmasking,3,93,0,0,_eight_,talker-p248_sex-f_text-_eight_.wav,p248,f,5,21,12.0,7.0,RX81,6,0.0,0.0,7.0,81.34149293193902,babble-reversed_n13_p307-five-p229-two-p318-four-p248-three-p245-nine-p268-eight.wav,10,RX81,11,0.0,0.0,12.0,93.00003341222715,mgb_normalisation,93.00003341222715,90.34149293193902,8,3.0,False,1.812371730804444
,2024-07-09 14:38:33,sub_110,3,distance,cathedral,spatial_unmasking,3,94,0,0,_five_,talker-p248_sex-f_text-_five_.wav,p248,f,5,22,12.0,7.0,RX81,6,0.0,0.0,7.0,82.341492931939,babble-reversed_n13_p229-nine-p256-four-p318-three-p268-eight-p248-two-p284-five.wav,10,RX81,11,0.0,0.0,12.0,93.00003341222718,mgb_normalisation,93.00003341222715,90.34149293193902,5,5.0,True,0.4999618530273437
,2024-07-09 14:38:37,sub_110,3,distance,cathedral,spatial_unmasking,3,95,0,0,_nine_,talker-p248_sex-f_text-_nine_.wav,p248,f,5,23,12.0,7.0,RX81,6,0.0,0.0,7.0,82.34149293193902,babble-reversed_n13_p318-five-p229-three-p256-four-p268-eight-p248-one-p245-nine.wav,10,RX81,11,0.0,0.0,12.0,93.00003341222718,mgb_normalisation,93.00003341222715,90.34149293193902,9,9.0,True,0.8124444484710693
,2024-07-09 14:38:40,sub_110,3,distance,cathedral,spatial_unmasking,3,96,0,0,_five_,talker-p248_sex-f_text-_five_.wav,p248,f,5,24,12.0,7.0,RX81,6,0.0,0.0,7.0,81.341492931939,babble-reversed_n13_p229-two-p256-three-p318-eight-p284-five-p268-four-p245-one.wav,10,RX81,11,0.0,0.0,12.0,93.00003341222718,mgb_normalisation,93.00003341222715,90.34149293193902,5,5.0,True,0.999929904937744
,2024-07-09 14:38:45,sub_110,3,distance,cathedral,spatial_unmasking,3,97,0,0,_eight_,talker-p248_sex-f_text-_eight_.wav,p248,f,5,25,12.0,7.0,RX81,6,0.0,0.0,7.0,81.34149293193902,babble-reversed_n13_p318-five-p256-nine-p307-two-p245-eight-p248-one-p284-four.wav,10,RX81,11,0.0,0.0,12.0,93.00003341222718,mgb_normalisation,93.00003341222715,90.34149293193902,8,6.0,False,2.0623552799224854
,2024-07-09 14:38:48,sub_110,3,distance,cathedral,spatial_unmasking,3,98,0,0,_five_,talker-p248_sex-f_text-_five_.wav,p248,f,5,26,12.0,7.0,RX81,6,0.0,0.0,7.0,82.341492931939,babble-reversed_n13_p318-five-p256-nine-p307-eight-p248-two-p245-four-p284-three.wav,10,RX81,11,0.0,0.0,12.0,93.00003341222718,mgb_normalisation,93.00003341222715,90.34149293193902,5,5.0,True,0.8749401569366455
,2024-07-09 14:38:51,sub_110,3,distance,cathedral,spatial_unmasking,3,99,0,0,_five_,talker-p248_sex-f_text-_five_.wav,p248,f,5,27,12.0,7.0,RX81,6,0.0,0.0,7.0,82.341492931939,babble-reversed_n13_p256-four-p307-eight-p318-two-p248-three-p284-nine-p268-one.wav,10,RX81,11,0.0,0.0,12.0,93.00003341222718,mgb_normalisation,93.00003341222715,90.34149293193902,5,9.0,False,1.2499780654907229
,2024-07-09 14:38:55,sub_110,3,distance,cathedral,spatial_unmasking,3,100,0,0,_two_,talker-p248_sex-f_text-_two_.wav,p248,f,5,28,12.0,7.0,RX81,6,0.0,0.0,7.0,83.34149293193903,babble-reversed_n13_p229-three-p307-one-p318-two-p245-eight-p268-five-p284-four.wav,10,RX81,11,0.0,0.0,12.0,93.00003341222718,mgb_normalisation,93.00003341222715,90.34149293193902,2,2.0,True,1.0623774528503418
,2024-07-09 14:38:59,sub_110,3,distance,cathedral,spatial_unmasking,3,101,0,0,_eight_,talker-p248_sex-f_text-_eight_.wav,p248,f,5,29,12.0,7.0,RX81,6,0.0,0.0,7.0,83.34149293193902,babble-reversed_n13_p229-eight-p256-nine-p318-four-p245-three-p268-five-p284-two.wav,10,RX81,11,0.0,0.0,12.0,93.00003341222715,mgb_normalisation,93.00003341222715,90.34149293193902,8,8.0,True,1.749877691268921
,2024-07-09 14:39:03,sub_110,3,distance,cathedral,spatial_unmasking,3,102,0,0,_one_,talker-p248_sex-f_text-_one_.wav,p248,f,5,30,12.0,7.0,RX81,6,0.0,0.0,7.0,82.34149293193902,babble-reversed_n13_p307-nine-p318-two-p256-one-p245-three-p268-four-p248-eight.wav,10,RX81,11,0.0,0.0,12.0,93.00003341222715,mgb_normalisation,93.00003341222715,90.34149293193902,1,1.0,True,1.1874167919158936
,2024-07-09 14:39:06,sub_110,3,distance,cathedral,spatial_unmasking,3,103,0,0,_one_,talker-p248_sex-f_text-_one_.wav,p248,f,5,31,12.0,7.0,RX81,6,0.0,0.0,7.0,82.34149293193902,babble-reversed_n13_p256-eight-p318-two-p307-five-p245-four-p268-nine-p284-one.wav,10,RX81,11,0.0,0.0,12.0,93.00003341222718,mgb_normalisation,93.00003341222715,90.34149293193902,1,1.0,True,0.8749430179595947
,2024-07-09 14:39:09,sub_110,3,distance,cathedral,spatial_unmasking,3,104,0,0,_five_,talker-p248_sex-f_text-_five_.wav,p248,f,5,32,12.0,7.0,RX81,6,0.0,0.0,7.0,81.341492931939,babble-reversed_n13_p229-one-p318-eight-p256-three-p268-two-p245-five-p248-nine.wav,10,RX81,11,0.0,0.0,12.0,93.00003341222715,mgb_normalisation,93.00003341222715,90.34149293193902,5,5.0,True,0.937434196472168
,2024-07-09 14:39:13,sub_110,3,distance,cathedral,spatial_unmasking,3,105,0,0,_four_,talker-p248_sex-f_text-_four_.wav,p248,f,5,33,12.0,7.0,RX81,6,0.0,0.0,7.0,81.341492931939,babble-reversed_n13_p307-two-p229-one-p256-five-p248-nine-p284-three-p268-eight.wav,10,RX81,11,0.0,0.0,12.0,93.00003341222718,mgb_normalisation,93.00003341222715,90.34149293193902,4,4.0,True,1.0624253749847412
,2024-07-09 14:39:16,sub_110,3,distance,cathedral,spatial_unmasking,3,106,0,0,_two_,talker-p248_sex-f_text-_two_.wav,p248,f,5,34,12.0,7.0,RX81,6,0.0,0.0,7.0,80.34149293193903,babble-reversed_n13_p318-five-p256-nine-p307-eight-p248-two-p245-four-p284-three.wav,10,RX81,11,0.0,0.0,12.0,93.00003341222718,mgb_normalisation,93.00003341222715,90.34149293193902,2,2.0,True,0.8124425411224365
,2024-07-09 14:39:19,sub_110,3,distance,cathedral,spatial_unmasking,3,107,0,0,_six_,talker-p248_sex-f_text-_six_.wav,p248,f,5,35,12.0,7.0,RX81,6,0.0,0.0,7.0,80.34149293193903,babble-reversed_n13_p229-five-p318-two-p307-eight-p268-three-p248-four-p245-one.wav,10,RX81,11,0.0,0.0,12.0,93.00003341222718,mgb_normalisation,93.00003341222715,90.34149293193902,6,6.0,True,1.0624256134033203
,2024-07-09 14:39:23,sub_110,3,distance,cathedral,spatial_unmasking,3,108,0,0,_eight_,talker-p248_sex-f_text-_eight_.wav,p248,f,5,36,12.0,7.0,RX81,6,0.0,0.0,7.0,79.34149293193902,babble-reversed_n13_p229-three-p256-nine-p318-five-p248-one-p245-eight-p284-two.wav,10,RX81,11,0.0,0.0,12.0,93.00003341222718,mgb_normalisation,93.00003341222715,90.34149293193902,8,9.0,False,0.9999284744262696
,2024-07-09 14:39:26,sub_110,3,distance,cathedral,spatial_unmasking,3,109,0,0,_six_,talker-p248_sex-f_text-_six_.wav,p248,f,5,37,12.0,7.0,RX81,6,0.0,0.0,7.0,80.34149293193903,babble-reversed_n13_p307-five-p229-two-p318-four-p248-three-p245-nine-p268-eight.wav,10,RX81,11,0.0,0.0,12.0,93.00003341222715,mgb_normalisation,93.00003341222715,90.34149293193902,6,6.0,True,0.7499468326568604
,2024-07-09 14:39:29,sub_110,3,distance,cathedral,spatial_unmasking,3,110,0,0,_nine_,talker-p248_sex-f_text-_nine_.wav,p248,f,5,38,12.0,7.0,RX81,6,0.0,0.0,7.0,80.341492931939,babble-reversed_n13_p256-three-p318-one-p307-two-p284-nine-p268-four-p245-eight.wav,10,RX81,11,0.0,0.0,12.0,93.00003341222718,mgb_normalisation,93.00003341222715,90.34149293193902,9,9.0,True,1.0624256134033203
,2024-07-09 14:39:32,sub_110,3,distance,cathedral,spatial_unmasking,3,111,0,0,_five_,talker-p248_sex-f_text-_five_.wav,p248,f,5,39,12.0,7.0,RX81,6,0.0,0.0,7.0,79.341492931939,babble-reversed_n13_p256-eight-p229-three-p307-nine-p245-five-p248-four-p268-two.wav,10,RX81,11,0.0,0.0,12.0,93.00003341222715,mgb_normalisation,93.00003341222715,90.34149293193902,5,5.0,True,0.6249563694000244
,2024-07-09 14:39:36,sub_110,3,distance,cathedral,spatial_unmasking,3,112,0,0,_one_,talker-p248_sex-f_text-_one_.wav,p248,f,5,40,12.0,7.0,RX81,6,0.0,0.0,7.0,79.34149293193902,babble-reversed_n13_p256-two-p307-five-p318-nine-p248-eight-p245-four-p284-one.wav,10,RX81,11,0.0,0.0,12.0,93.00003341222718,mgb_normalisation,93.00003341222715,90.34149293193902,1,1.0,True,0.9374403953552246
,2024-07-09 14:39:39,sub_110,3,distance,cathedral,spatial_unmasking,3,113,0,0,_six_,talker-p248_sex-f_text-_six_.wav,p248,f,5,41,12.0,7.0,RX81,6,0.0,0.0,7.0,78.34149293193902,babble-reversed_n13_p307-two-p229-one-p256-five-p248-nine-p284-three-p268-eight.wav,10,RX81,11,0.0,0.0,12.0,93.00003341222718,mgb_normalisation,93.00003341222715,90.34149293193902,6,6.0,True,0.9374344348907472
,2024-07-09 14:39:42,sub_110,3,distance,cathedral,spatial_unmasking,3,114,0,0,_three_,talker-p248_sex-f_text-_three_.wav,p248,f,5,42,12.0,7.0,RX81,6,0.0,0.0,7.0,78.34149293193902,babble-reversed_n13_p229-nine-p307-five-p256-two-p248-three-p245-one-p268-eight.wav,10,RX81,11,0.0,0.0,12.0,93.00003341222715,mgb_normalisation,93.00003341222715,90.34149293193902,3,3.0,True,0.9374334812164308
,2024-07-09 14:39:45,sub_110,3,distance,cathedral,spatial_unmasking,3,115,0,0,_six_,talker-p248_sex-f_text-_six_.wav,p248,f,5,43,12.0,7.0,RX81,6,0.0,0.0,7.0,77.34149293193902,babble-reversed_n13_p256-four-p307-eight-p318-two-p248-three-p284-nine-p268-one.wav,10,RX81,11,0.0,0.0,12.0,93.00003341222718,mgb_normalisation,93.00003341222715,90.34149293193902,6,6.0,True,0.8124430179595947
,2024-07-09 14:39:49,sub_110,3,distance,cathedral,spatial_unmasking,3,116,0,0,_eight_,talker-p248_sex-f_text-_eight_.wav,p248,f,5,44,12.0,7.0,RX81,6,0.0,0.0,7.0,77.34149293193903,babble-reversed_n13_p256-four-p229-two-p318-five-p268-one-p248-eight-p245-three.wav,10,RX81,11,0.0,0.0,12.0,93.00003341222715,mgb_normalisation,93.00003341222715,90.34149293193902,8,8.0,True,1.1249229907989502
,2024-07-09 14:39:52,sub_110,3,distance,cathedral,spatial_unmasking,3,117,0,0,_six_,talker-p248_sex-f_text-_six_.wav,p248,f,5,45,12.0,7.0,RX81,6,0.0,0.0,7.0,76.34149293193902,babble-reversed_n13_p229-five-p256-one-p318-three-p248-nine-p268-four-p284-eight.wav,10,RX81,11,0.0,0.0,12.0,93.00003341222715,mgb_normalisation,93.00003341222715,90.34149293193902,6,6.0,True,0.8123779296875
,2024-07-09 14:39:55,sub_110,3,distance,cathedral,spatial_unmasking,3,118,0,0,_three_,talker-p248_sex-f_text-_three_.wav,p248,f,5,46,12.0,7.0,RX81,6,0.0,0.0,7.0,76.34149293193902,babble-reversed_n13_p229-eight-p256-nine-p318-four-p245-three-p268-five-p284-two.wav,10,RX81,11,0.0,0.0,12.0,93.00003341222715,mgb_normalisation,93.00003341222715,90.34149293193902,3,3.0,True,0.8749115467071533
,2024-07-09 14:40:00,sub_110,3,distance,cathedral,spatial_unmasking,3,119,0,0,_two_,talker-p248_sex-f_text-_two_.wav,p248,f,5,47,12.0,7.0,RX81,6,0.0,0.0,7.0,75.34149293193903,babble-reversed_n13_p307-two-p229-one-p256-five-p248-nine-p284-three-p268-eight.wav,10,RX81,11,0.0,0.0,12.0,93.00003341222718,mgb_normalisation,93.00003341222715,90.34149293193902,2,8.0,False,1.9998598098754885
,2024-07-09 14:40:04,sub_110,3,distance,cathedral,spatial_unmasking,3,120,0,0,_two_,talker-p248_sex-f_text-_two_.wav,p248,f,5,48,12.0,7.0,RX81,6,0.0,0.0,7.0,76.34149293193902,babble-reversed_n13_p256-four-p307-eight-p318-two-p248-three-p284-nine-p268-one.wav,10,RX81,11,0.0,0.0,12.0,93.00003341222718,mgb_normalisation,93.00003341222715,90.34149293193902,2,6.0,False,1.9373643398284912
,2024-07-09 14:40:08,sub_110,3,distance,cathedral,spatial_unmasking,3,121,0,0,_four_,talker-p248_sex-f_text-_four_.wav,p248,f,5,49,12.0,7.0,RX81,6,0.0,0.0,7.0,77.341492931939,babble-reversed_n13_p229-one-p318-nine-p256-four-p284-eight-p268-five-p245-two.wav,10,RX81,11,0.0,0.0,12.0,93.00003341222715,mgb_normalisation,93.00003341222715,90.34149293193902,4,8.0,False,1.3124079704284668
,2024-07-09 14:40:11,sub_110,3,distance,cathedral,spatial_unmasking,3,122,0,0,_two_,talker-p248_sex-f_text-_two_.wav,p248,f,5,50,12.0,7.0,RX81,6,0.0,0.0,7.0,78.34149293193902,babble-reversed_n13_p229-two-p307-five-p318-four-p284-one-p248-nine-p268-eight.wav,10,RX81,11,0.0,0.0,12.0,93.00003341222718,mgb_normalisation,93.00003341222715,90.34149293193902,2,9.0,False,0.937380075454712
,2024-07-09 14:40:15,sub_110,3,distance,cathedral,spatial_unmasking,3,123,0,0,_five_,talker-p248_sex-f_text-_five_.wav,p248,f,5,51,12.0,7.0,RX81,6,0.0,0.0,7.0,79.341492931939,babble-reversed_n13_p318-one-p307-two-p256-eight-p284-three-p248-five-p245-four.wav,10,RX81,11,0.0,0.0,12.0,93.00003341222718,mgb_normalisation,93.00003341222715,90.34149293193902,5,5.0,True,0.999929666519165
,2024-07-09 14:40:18,sub_110,3,distance,cathedral,spatial_unmasking,3,124,0,0,_four_,talker-p248_sex-f_text-_four_.wav,p248,f,5,52,12.0,7.0,RX81,6,0.0,0.0,7.0,79.341492931939,babble-reversed_n13_p307-one-p318-five-p229-four-p268-eight-p284-two-p245-three.wav,10,RX81,11,0.0,0.0,12.0,93.00003341222715,mgb_normalisation,93.00003341222715,90.34149293193902,4,4.0,True,0.9374334812164308
,2024-07-09 14:41:19,sub_110,3,distance,cathedral,spatial_unmasking,4,125,0,0,_six_,talker-p248_sex-f_text-_six_.wav,p248,f,5,1,6.0,7.0,RX81,6,0.0,0.0,7.0,92.34149293193902,babble-reversed_n13_p229-one-p318-eight-p256-three-p268-two-p245-five-p248-nine.wav,4,RX81,5,0.0,0.0,6.0,89.31368318402099,mgb_normalisation,89.31368318402099,90.34149293193902,6,6.0,True,0.937488317489624
,2024-07-09 14:41:23,sub_110,3,distance,cathedral,spatial_unmasking,4,126,0,0,_three_,talker-p248_sex-f_text-_three_.wav,p248,f,5,2,6.0,7.0,RX81,6,0.0,0.0,7.0,88.34149293193902,babble-reversed_n13_p318-nine-p256-five-p307-eight-p268-three-p248-one-p245-four.wav,4,RX81,5,0.0,0.0,6.0,89.31368318402099,mgb_normalisation,89.31368318402099,90.34149293193902,3,3.0,True,1.0624258518218994
,2024-07-09 14:41:26,sub_110,3,distance,cathedral,spatial_unmasking,4,127,0,0,_nine_,talker-p248_sex-f_text-_nine_.wav,p248,f,5,3,6.0,7.0,RX81,6,0.0,0.0,7.0,84.341492931939,babble-reversed_n13_p229-three-p256-one-p307-two-p284-eight-p268-five-p248-nine.wav,4,RX81,5,0.0,0.0,6.0,89.31368318402099,mgb_normalisation,89.31368318402099,90.34149293193902,9,9.0,True,0.93743634223938
,2024-07-09 14:41:29,sub_110,3,distance,cathedral,spatial_unmasking,4,128,0,0,_two_,talker-p248_sex-f_text-_two_.wav,p248,f,5,4,6.0,7.0,RX81,6,0.0,0.0,7.0,80.34149293193903,babble-reversed_n13_p256-eight-p318-five-p307-four-p245-three-p268-one-p284-nine.wav,4,RX81,5,0.0,0.0,6.0,89.31368318402099,mgb_normalisation,89.31368318402099,90.34149293193902,2,2.0,True,1.1874167919158936
,2024-07-09 14:41:33,sub_110,3,distance,cathedral,spatial_unmasking,4,129,0,0,_one_,talker-p248_sex-f_text-_one_.wav,p248,f,5,5,6.0,7.0,RX81,6,0.0,0.0,7.0,76.34149293193902,babble-reversed_n13_p229-five-p318-three-p307-two-p245-four-p284-nine-p248-eight.wav,4,RX81,5,0.0,0.0,6.0,89.31368318402099,mgb_normalisation,89.31368318402099,90.34149293193902,1,1.0,True,1.43739914894104
,2024-07-09 14:41:38,sub_110,3,distance,cathedral,spatial_unmasking,4,130,0,0,_two_,talker-p248_sex-f_text-_two_.wav,p248,f,5,6,6.0,7.0,RX81,6,0.0,0.0,7.0,72.34149293193903,babble-reversed_n13_p318-nine-p256-five-p307-eight-p268-three-p248-one-p245-four.wav,4,RX81,5,0.0,0.0,6.0,89.31368318402099,mgb_normalisation,89.31368318402099,90.34149293193902,2,4.0,False,2.062407255172729
,2024-07-09 14:41:42,sub_110,3,distance,cathedral,spatial_unmasking,4,131,0,0,_four_,talker-p248_sex-f_text-_four_.wav,p248,f,5,7,6.0,7.0,RX81,6,0.0,0.0,7.0,74.341492931939,babble-reversed_n13_p307-nine-p229-one-p256-eight-p248-four-p284-two-p268-three.wav,4,RX81,5,0.0,0.0,6.0,89.31368318402099,mgb_normalisation,89.31368318402099,90.34149293193902,4,8.0,False,1.6873819828033447
,2024-07-09 14:41:45,sub_110,3,distance,cathedral,spatial_unmasking,4,132,0,0,_six_,talker-p248_sex-f_text-_six_.wav,p248,f,5,8,6.0,7.0,RX81,6,0.0,0.0,7.0,76.34149293193902,babble-reversed_n13_p229-nine-p256-four-p318-three-p268-eight-p248-two-p284-five.wav,4,RX81,5,0.0,0.0,6.0,89.31368318402099,mgb_normalisation,89.31368318402099,90.34149293193902,6,6.0,True,1.0624275207519531
,2024-07-09 14:41:50,sub_110,3,distance,cathedral,spatial_unmasking,4,133,0,0,_four_,talker-p248_sex-f_text-_four_.wav,p248,f,5,9,6.0,7.0,RX81,6,0.0,0.0,7.0,76.34149293193902,babble-reversed_n13_p229-nine-p256-four-p318-three-p268-eight-p248-two-p284-five.wav,4,RX81,5,0.0,0.0,6.0,89.31368318402099,mgb_normalisation,89.31368318402099,90.34149293193902,4,4.0,True,1.8748672008514404
,2024-07-09 14:41:53,sub_110,3,distance,cathedral,spatial_unmasking,4,134,0,0,_five_,talker-p248_sex-f_text-_five_.wav,p248,f,5,10,6.0,7.0,RX81,6,0.0,0.0,7.0,74.341492931939,babble-reversed_n13_p229-five-p256-one-p318-three-p248-nine-p268-four-p284-eight.wav,4,RX81,5,0.0,0.0,6.0,89.31368318402099,mgb_normalisation,89.31368318402099,90.34149293193902,5,9.0,False,0.8748910427093506
,2024-07-09 14:41:56,sub_110,3,distance,cathedral,spatial_unmasking,4,135,0,0,_nine_,talker-p248_sex-f_text-_nine_.wav,p248,f,5,11,6.0,7.0,RX81,6,0.0,0.0,7.0,75.34149293193902,babble-reversed_n13_p318-three-p307-one-p256-five-p248-nine-p245-two-p284-eight.wav,4,RX81,5,0.0,0.0,6.0,89.31368318402099,mgb_normalisation,89.31368318402099,90.34149293193902,9,9.0,True,0.999929666519165
,2024-07-09 14:42:00,sub_110,3,distance,cathedral,spatial_unmasking,4,136,0,0,_five_,talker-p248_sex-f_text-_five_.wav,p248,f,5,12,6.0,7.0,RX81,6,0.0,0.0,7.0,75.341492931939,babble-reversed_n13_p256-three-p318-two-p229-nine-p248-four-p284-one-p268-eight.wav,4,RX81,5,0.0,0.0,6.0,89.31368318402099,mgb_normalisation,89.31368318402099,90.34149293193902,5,9.0,False,0.9999303817749025
,2024-07-09 14:42:04,sub_110,3,distance,cathedral,spatial_unmasking,4,137,0,0,_four_,talker-p248_sex-f_text-_four_.wav,p248,f,5,13,6.0,7.0,RX81,6,0.0,0.0,7.0,76.34149293193902,babble-reversed_n13_p318-three-p307-one-p256-five-p248-nine-p245-two-p284-eight.wav,4,RX81,5,0.0,0.0,6.0,89.31368318402099,mgb_normalisation,89.31368318402099,90.34149293193902,4,3.0,False,2.312338352203369
,2024-07-09 14:42:08,sub_110,3,distance,cathedral,spatial_unmasking,4,138,0,0,_two_,talker-p248_sex-f_text-_two_.wav,p248,f,5,14,6.0,7.0,RX81,6,0.0,0.0,7.0,77.34149293193903,babble-reversed_n13_p256-four-p307-eight-p318-two-p248-three-p284-nine-p268-one.wav,4,RX81,5,0.0,0.0,6.0,89.313683184021,mgb_normalisation,89.31368318402099,90.34149293193902,2,2.0,True,1.1874172687530518
,2024-07-09 14:42:13,sub_110,3,distance,cathedral,spatial_unmasking,4,139,0,0,_nine_,talker-p248_sex-f_text-_nine_.wav,p248,f,5,15,6.0,7.0,RX81,6,0.0,0.0,7.0,77.34149293193902,babble-reversed_n13_p229-three-p307-one-p318-two-p245-eight-p268-five-p284-four.wav,4,RX81,5,0.0,0.0,6.0,89.31368318402099,mgb_normalisation,89.31368318402099,90.34149293193902,9,5.0,False,2.2498443126678467
,2024-07-09 14:42:16,sub_110,3,distance,cathedral,spatial_unmasking,4,140,0,0,_nine_,talker-p248_sex-f_text-_nine_.wav,p248,f,5,16,6.0,7.0,RX81,6,0.0,0.0,7.0,78.34149293193902,babble-reversed_n13_p256-four-p307-eight-p318-two-p248-three-p284-nine-p268-one.wav,4,RX81,5,0.0,0.0,6.0,89.313683184021,mgb_normalisation,89.31368318402099,90.34149293193902,9,9.0,True,0.9999282360076904
,2024-07-09 14:42:19,sub_110,3,distance,cathedral,spatial_unmasking,4,141,0,0,_five_,talker-p248_sex-f_text-_five_.wav,p248,f,5,17,6.0,7.0,RX81,6,0.0,0.0,7.0,78.341492931939,babble-reversed_n13_p318-five-p256-nine-p307-two-p245-eight-p248-one-p284-four.wav,4,RX81,5,0.0,0.0,6.0,89.313683184021,mgb_normalisation,89.31368318402099,90.34149293193902,5,5.0,True,0.87493896484375
,2024-07-09 14:42:23,sub_110,3,distance,cathedral,spatial_unmasking,4,142,0,0,_nine_,talker-p248_sex-f_text-_nine_.wav,p248,f,5,18,6.0,7.0,RX81,6,0.0,0.0,7.0,77.34149293193902,babble-reversed_n13_p256-three-p318-one-p307-two-p284-nine-p268-four-p245-eight.wav,4,RX81,5,0.0,0.0,6.0,89.31368318402099,mgb_normalisation,89.31368318402099,90.34149293193902,9,1.0,False,1.3124260902404783
,2024-07-09 14:42:26,sub_110,3,distance,cathedral,spatial_unmasking,4,143,0,0,_nine_,talker-p248_sex-f_text-_nine_.wav,p248,f,5,19,6.0,7.0,RX81,6,0.0,0.0,7.0,78.34149293193902,babble-reversed_n13_p256-two-p307-five-p318-nine-p248-eight-p245-four-p284-one.wav,4,RX81,5,0.0,0.0,6.0,89.31368318402099,mgb_normalisation,89.31368318402099,90.34149293193902,9,9.0,True,0.8749403953552246
,2024-07-09 14:42:30,sub_110,3,distance,cathedral,spatial_unmasking,4,144,0,0,_five_,talker-p248_sex-f_text-_five_.wav,p248,f,5,20,6.0,7.0,RX81,6,0.0,0.0,7.0,78.341492931939,babble-reversed_n13_p256-three-p318-one-p307-two-p284-nine-p268-four-p245-eight.wav,4,RX81,5,0.0,0.0,6.0,89.31368318402099,mgb_normalisation,89.31368318402099,90.34149293193902,5,8.0,False,1.4373996257781982
,2024-07-09 14:42:33,sub_110,3,distance,cathedral,spatial_unmasking,4,145,0,0,_one_,talker-p248_sex-f_text-_one_.wav,p248,f,5,21,6.0,7.0,RX81,6,0.0,0.0,7.0,79.34149293193902,babble-reversed_n13_p307-five-p229-three-p318-nine-p245-four-p268-eight-p284-two.wav,4,RX81,5,0.0,0.0,6.0,89.31368318402099,mgb_normalisation,89.31368318402099,90.34149293193902,1,1.0,True,0.8749394416809082
,2024-07-09 14:42:37,sub_110,3,distance,cathedral,spatial_unmasking,4,146,0,0,_six_,talker-p248_sex-f_text-_six_.wav,p248,f,5,22,6.0,7.0,RX81,6,0.0,0.0,7.0,79.34149293193902,babble-reversed_n13_p307-two-p229-one-p256-five-p248-nine-p284-three-p268-eight.wav,4,RX81,5,0.0,0.0,6.0,89.313683184021,mgb_normalisation,89.31368318402099,90.34149293193902,6,6.0,True,1.1249215602874756
,2024-07-09 14:42:40,sub_110,3,distance,cathedral,spatial_unmasking,4,147,0,0,_five_,talker-p248_sex-f_text-_five_.wav,p248,f,5,23,6.0,7.0,RX81,6,0.0,0.0,7.0,78.341492931939,babble-reversed_n13_p229-three-p256-one-p307-two-p284-eight-p268-five-p248-nine.wav,4,RX81,5,0.0,0.0,6.0,89.31368318402099,mgb_normalisation,89.31368318402099,90.34149293193902,5,5.0,True,0.7499480247497559
,2024-07-09 14:42:43,sub_110,3,distance,cathedral,spatial_unmasking,4,148,0,0,_six_,talker-p248_sex-f_text-_six_.wav,p248,f,5,24,6.0,7.0,RX81,6,0.0,0.0,7.0,78.34149293193902,babble-reversed_n13_p229-nine-p318-one-p307-two-p248-eight-p245-five-p284-four.wav,4,RX81,5,0.0,0.0,6.0,89.31368318402099,mgb_normalisation,89.31368318402099,90.34149293193902,6,6.0,True,0.7499470710754395
,2024-07-09 14:42:47,sub_110,3,distance,cathedral,spatial_unmasking,4,149,0,0,_four_,talker-p248_sex-f_text-_four_.wav,p248,f,5,25,6.0,7.0,RX81,6,0.0,0.0,7.0,77.341492931939,babble-reversed_n13_p318-one-p307-two-p256-eight-p284-three-p248-five-p245-four.wav,4,RX81,5,0.0,0.0,6.0,89.313683184021,mgb_normalisation,89.31368318402099,90.34149293193902,4,2.0,False,1.374950885772705
,2024-07-09 14:42:50,sub_110,3,distance,cathedral,spatial_unmasking,4,150,0,0,_one_,talker-p248_sex-f_text-_one_.wav,p248,f,5,26,6.0,7.0,RX81,6,0.0,0.0,7.0,78.34149293193902,babble-reversed_n13_p307-four-p318-three-p256-eight-p284-two-p245-nine-p248-five.wav,4,RX81,5,0.0,0.0,6.0,89.31368318402099,mgb_normalisation,89.31368318402099,90.34149293193902,1,1.0,True,1.1249213218688965
,2024-07-09 14:42:55,sub_110,3,distance,cathedral,spatial_unmasking,4,151,0,0,_eight_,talker-p248_sex-f_text-_eight_.wav,p248,f,5,27,6.0,7.0,RX81,6,0.0,0.0,7.0,78.34149293193902,babble-reversed_n13_p256-three-p318-two-p229-nine-p248-four-p284-one-p268-eight.wav,4,RX81,5,0.0,0.0,6.0,89.31368318402099,mgb_normalisation,89.31368318402099,90.34149293193902,8,4.0,False,1.812399864196777
,2024-07-09 14:42:59,sub_110,3,distance,cathedral,spatial_unmasking,4,152,0,0,_eight_,talker-p248_sex-f_text-_eight_.wav,p248,f,5,28,6.0,7.0,RX81,6,0.0,0.0,7.0,79.34149293193902,babble-reversed_n13_p318-five-p229-three-p256-four-p268-eight-p248-one-p245-nine.wav,4,RX81,5,0.0,0.0,6.0,89.31368318402099,mgb_normalisation,89.31368318402099,90.34149293193902,8,1.0,False,1.7498774528503418
,2024-07-09 14:43:03,sub_110,3,distance,cathedral,spatial_unmasking,4,153,0,0,_nine_,talker-p248_sex-f_text-_nine_.wav,p248,f,5,29,6.0,7.0,RX81,6,0.0,0.0,7.0,80.341492931939,babble-reversed_n13_p318-nine-p307-eight-p229-two-p284-one-p248-three-p245-five.wav,4,RX81,5,0.0,0.0,6.0,89.31368318402099,mgb_normalisation,89.31368318402099,90.34149293193902,9,8.0,False,1.9373643398284912
,2024-07-09 14:43:06,sub_110,3,distance,cathedral,spatial_unmasking,4,154,0,0,_two_,talker-p248_sex-f_text-_two_.wav,p248,f,5,30,6.0,7.0,RX81,6,0.0,0.0,7.0,81.34149293193902,babble-reversed_n13_p256-four-p229-two-p318-five-p268-one-p248-eight-p245-three.wav,4,RX81,5,0.0,0.0,6.0,89.31368318402099,mgb_normalisation,89.31368318402099,90.34149293193902,2,2.0,True,0.9374339580535888
,2024-07-09 14:43:10,sub_110,3,distance,cathedral,spatial_unmasking,4,155,0,0,_six_,talker-p248_sex-f_text-_six_.wav,p248,f,5,31,6.0,7.0,RX81,6,0.0,0.0,7.0,81.34149293193902,babble-reversed_n13_p229-two-p318-eight-p256-three-p268-one-p248-nine-p284-five.wav,4,RX81,5,0.0,0.0,6.0,89.31368318402099,mgb_normalisation,89.31368318402099,90.34149293193902,6,6.0,True,0.8124430179595947
,2024-07-09 14:43:13,sub_110,3,distance,cathedral,spatial_unmasking,4,156,0,0,_eight_,talker-p248_sex-f_text-_eight_.wav,p248,f,5,32,6.0,7.0,RX81,6,0.0,0.0,7.0,80.34149293193903,babble-reversed_n13_p256-four-p307-eight-p318-two-p248-three-p284-nine-p268-one.wav,4,RX81,5,0.0,0.0,6.0,89.313683184021,mgb_normalisation,89.31368318402099,90.34149293193902,8,4.0,False,1.437398910522461
,2024-07-09 14:43:17,sub_110,3,distance,cathedral,spatial_unmasking,4,157,0,0,_nine_,talker-p248_sex-f_text-_nine_.wav,p248,f,5,33,6.0,7.0,RX81,6,0.0,0.0,7.0,81.34149293193902,babble-reversed_n13_p256-eight-p318-two-p307-five-p245-four-p268-nine-p284-one.wav,4,RX81,5,0.0,0.0,6.0,89.31368318402099,mgb_normalisation,89.31368318402099,90.34149293193902,9,9.0,True,0.9999327659606934
,2024-07-09 14:43:21,sub_110,3,distance,cathedral,spatial_unmasking,4,158,0,0,_eight_,talker-p248_sex-f_text-_eight_.wav,p248,f,5,34,6.0,7.0,RX81,6,0.0,0.0,7.0,81.34149293193902,babble-reversed_n13_p307-four-p318-three-p256-eight-p284-two-p245-nine-p248-five.wav,4,RX81,5,0.0,0.0,6.0,89.31368318402099,mgb_normalisation,89.31368318402099,90.34149293193902,8,2.0,False,1.6873815059661863
,2024-07-09 14:43:24,sub_110,3,distance,cathedral,spatial_unmasking,4,159,0,0,_five_,talker-p248_sex-f_text-_five_.wav,p248,f,5,35,6.0,7.0,RX81,6,0.0,0.0,7.0,82.341492931939,babble-reversed_n13_p229-five-p318-two-p307-eight-p268-three-p248-four-p245-one.wav,4,RX81,5,0.0,0.0,6.0,89.313683184021,mgb_normalisation,89.31368318402099,90.34149293193902,5,5.0,True,1.0624260902404783
,2024-07-09 14:43:28,sub_110,3,distance,cathedral,spatial_unmasking,4,160,0,0,_five_,talker-p248_sex-f_text-_five_.wav,p248,f,5,36,6.0,7.0,RX81,6,0.0,0.0,7.0,82.341492931939,babble-reversed_n13_p318-three-p229-one-p256-eight-p245-five-p248-four-p284-nine.wav,4,RX81,5,0.0,0.0,6.0,89.313683184021,mgb_normalisation,89.31368318402099,90.34149293193902,5,5.0,True,0.7499470710754395
,2024-07-09 14:43:31,sub_110,3,distance,cathedral,spatial_unmasking,4,161,0,0,_nine_,talker-p248_sex-f_text-_nine_.wav,p248,f,5,37,6.0,7.0,RX81,6,0.0,0.0,7.0,81.34149293193902,babble-reversed_n13_p307-nine-p229-one-p256-eight-p248-four-p284-two-p268-three.wav,4,RX81,5,0.0,0.0,6.0,89.31368318402099,mgb_normalisation,89.31368318402099,90.34149293193902,9,9.0,True,0.8124418258666992
,2024-07-09 14:43:34,sub_110,3,distance,cathedral,spatial_unmasking,4,162,0,0,_eight_,talker-p248_sex-f_text-_eight_.wav,p248,f,5,38,6.0,7.0,RX81,6,0.0,0.0,7.0,81.34149293193902,babble-reversed_n13_p318-nine-p256-five-p307-eight-p268-three-p248-one-p245-four.wav,4,RX81,5,0.0,0.0,6.0,89.31368318402099,mgb_normalisation,89.31368318402099,90.34149293193902,8,4.0,False,1.062427043914795
,2024-07-09 14:43:38,sub_110,3,distance,cathedral,spatial_unmasking,4,163,0,0,_three_,talker-p248_sex-f_text-_three_.wav,p248,f,5,39,6.0,7.0,RX81,6,0.0,0.0,7.0,82.34149293193902,babble-reversed_n13_p318-one-p307-two-p256-eight-p284-three-p248-five-p245-four.wav,4,RX81,5,0.0,0.0,6.0,89.313683184021,mgb_normalisation,89.31368318402099,90.34149293193902,3,3.0,True,1.3124420642852783
,2024-07-09 14:43:41,sub_110,3,distance,cathedral,spatial_unmasking,4,164,0,0,_nine_,talker-p248_sex-f_text-_nine_.wav,p248,f,5,40,6.0,7.0,RX81,6,0.0,0.0,7.0,82.34149293193902,babble-reversed_n13_p229-two-p256-three-p318-eight-p284-five-p268-four-p245-one.wav,4,RX81,5,0.0,0.0,6.0,89.31368318402099,mgb_normalisation,89.31368318402099,90.34149293193902,9,9.0,True,0.87493896484375
,2024-07-09 14:46:09,sub_110,3,distance,cathedral,spatial_unmasking,5,165,0,0,_three_,talker-p248_sex-f_text-_three_.wav,p248,f,5,1,2.0,7.0,RX81,6,0.0,0.0,7.0,92.34149293193902,babble-reversed_n13_p229-one-p318-nine-p256-four-p284-eight-p268-five-p245-two.wav,0,RX81,1,0.0,0.0,2.0,84.40078082039426,mgb_normalisation,84.40078082039426,90.34149293193902,3,3.0,True,1.2499699592590332
,2024-07-09 14:46:13,sub_110,3,distance,cathedral,spatial_unmasking,5,166,0,0,_two_,talker-p248_sex-f_text-_two_.wav,p248,f,5,2,2.0,7.0,RX81,6,0.0,0.0,7.0,88.34149293193903,babble-reversed_n13_p229-two-p318-eight-p256-three-p268-one-p248-nine-p284-five.wav,0,RX81,1,0.0,0.0,2.0,84.40078082039426,mgb_normalisation,84.40078082039426,90.34149293193902,2,2.0,True,0.9374535083770752
,2024-07-09 14:46:16,sub_110,3,distance,cathedral,spatial_unmasking,5,167,0,0,_five_,talker-p248_sex-f_text-_five_.wav,p248,f,5,3,2.0,7.0,RX81,6,0.0,0.0,7.0,84.341492931939,babble-reversed_n13_p256-eight-p318-five-p307-four-p245-three-p268-one-p284-nine.wav,0,RX81,1,0.0,0.0,2.0,84.40078082039426,mgb_normalisation,84.40078082039426,90.34149293193902,5,5.0,True,0.8749561309814453
,2024-07-09 14:46:20,sub_110,3,distance,cathedral,spatial_unmasking,5,168,0,0,_five_,talker-p248_sex-f_text-_five_.wav,p248,f,5,4,2.0,7.0,RX81,6,0.0,0.0,7.0,80.341492931939,babble-reversed_n13_p318-nine-p307-eight-p229-two-p284-one-p248-three-p245-five.wav,0,RX81,1,0.0,0.0,2.0,84.40078082039426,mgb_normalisation,84.40078082039426,90.34149293193902,5,5.0,True,2.062354803085327
,2024-07-09 14:46:25,sub_110,3,distance,cathedral,spatial_unmasking,5,169,0,0,_three_,talker-p248_sex-f_text-_three_.wav,p248,f,5,5,2.0,7.0,RX81,6,0.0,0.0,7.0,76.34149293193902,babble-reversed_n13_p307-nine-p318-two-p256-one-p245-three-p268-four-p248-eight.wav,0,RX81,1,0.0,0.0,2.0,84.40078082039426,mgb_normalisation,84.40078082039426,90.34149293193902,3,2.0,False,1.8123738765716555
,2024-07-09 14:46:28,sub_110,3,distance,cathedral,spatial_unmasking,5,170,0,0,_nine_,talker-p248_sex-f_text-_nine_.wav,p248,f,5,6,2.0,7.0,RX81,6,0.0,0.0,7.0,78.34149293193902,babble-reversed_n13_p229-three-p256-one-p307-two-p284-eight-p268-five-p248-nine.wav,0,RX81,1,0.0,0.0,2.0,84.40078082039426,mgb_normalisation,84.40078082039426,90.34149293193902,9,1.0,False,0.9374351501464844
,2024-07-09 14:46:31,sub_110,3,distance,cathedral,spatial_unmasking,5,171,0,0,_five_,talker-p248_sex-f_text-_five_.wav,p248,f,5,7,2.0,7.0,RX81,6,0.0,0.0,7.0,80.341492931939,babble-reversed_n13_p229-two-p256-three-p318-eight-p284-five-p268-four-p245-one.wav,0,RX81,1,0.0,0.0,2.0,84.40078082039426,mgb_normalisation,84.40078082039426,90.34149293193902,5,5.0,True,0.8749396800994873
,2024-07-09 14:46:34,sub_110,3,distance,cathedral,spatial_unmasking,5,172,0,0,_one_,talker-p248_sex-f_text-_one_.wav,p248,f,5,8,2.0,7.0,RX81,6,0.0,0.0,7.0,80.34149293193903,babble-reversed_n13_p229-three-p256-one-p307-two-p284-eight-p268-five-p248-nine.wav,0,RX81,1,0.0,0.0,2.0,84.40078082039426,mgb_normalisation,84.40078082039426,90.34149293193902,1,1.0,True,0.8748939037322998
,2024-07-09 14:46:38,sub_110,3,distance,cathedral,spatial_unmasking,5,173,0,0,_two_,talker-p248_sex-f_text-_two_.wav,p248,f,5,9,2.0,7.0,RX81,6,0.0,0.0,7.0,78.34149293193902,babble-reversed_n13_p229-two-p307-five-p318-four-p284-one-p248-nine-p268-eight.wav,0,RX81,1,0.0,0.0,2.0,84.40078082039426,mgb_normalisation,84.40078082039426,90.34149293193902,2,9.0,False,1.3124089241027832
,2024-07-09 14:46:42,sub_110,3,distance,cathedral,spatial_unmasking,5,174,0,0,_nine_,talker-p248_sex-f_text-_nine_.wav,p248,f,5,10,2.0,7.0,RX81,6,0.0,0.0,7.0,79.341492931939,babble-reversed_n13_p256-eight-p318-two-p307-five-p245-four-p268-nine-p284-one.wav,0,RX81,1,0.0,0.0,2.0,84.40078082039426,mgb_normalisation,84.40078082039426,90.34149293193902,9,9.0,True,1.6873815059661863
,2024-07-09 14:46:45,sub_110,3,distance,cathedral,spatial_unmasking,5,175,0,0,_six_,talker-p248_sex-f_text-_six_.wav,p248,f,5,11,2.0,7.0,RX81,6,0.0,0.0,7.0,79.34149293193902,babble-reversed_n13_p318-nine-p256-five-p307-eight-p268-three-p248-one-p245-four.wav,0,RX81,1,0.0,0.0,2.0,84.40078082039426,mgb_normalisation,84.40078082039426,90.34149293193902,6,6.0,True,0.8124439716339111
,2024-07-09 14:46:48,sub_110,3,distance,cathedral,spatial_unmasking,5,176,0,0,_six_,talker-p248_sex-f_text-_six_.wav,p248,f,5,12,2.0,7.0,RX81,6,0.0,0.0,7.0,78.34149293193902,babble-reversed_n13_p318-five-p229-three-p256-four-p268-eight-p248-one-p245-nine.wav,0,RX81,1,0.0,0.0,2.0,84.40078082039426,mgb_normalisation,84.40078082039426,90.34149293193902,6,6.0,True,0.6249556541442871
,2024-07-09 14:46:52,sub_110,3,distance,cathedral,spatial_unmasking,5,177,0,0,_two_,talker-p248_sex-f_text-_two_.wav,p248,f,5,13,2.0,7.0,RX81,6,0.0,0.0,7.0,78.34149293193902,babble-reversed_n13_p229-three-p307-one-p318-two-p245-eight-p268-five-p284-four.wav,0,RX81,1,0.0,0.0,2.0,84.40078082039426,mgb_normalisation,84.40078082039426,90.34149293193902,2,2.0,True,0.999929666519165
,2024-07-09 14:46:55,sub_110,3,distance,cathedral,spatial_unmasking,5,178,0,0,_nine_,talker-p248_sex-f_text-_nine_.wav,p248,f,5,14,2.0,7.0,RX81,6,0.0,0.0,7.0,77.34149293193902,babble-reversed_n13_p318-four-p256-five-p229-three-p284-one-p245-eight-p248-nine.wav,0,RX81,1,0.0,0.0,2.0,84.40078082039427,mgb_normalisation,84.40078082039426,90.34149293193902,9,9.0,True,1.1874167919158936
,2024-07-09 14:46:59,sub_110,3,distance,cathedral,spatial_unmasking,5,179,0,0,_six_,talker-p248_sex-f_text-_six_.wav,p248,f,5,15,2.0,7.0,RX81,6,0.0,0.0,7.0,77.34149293193902,babble-reversed_n13_p318-four-p256-five-p229-three-p284-one-p245-eight-p248-nine.wav,0,RX81,1,0.0,0.0,2.0,84.40078082039427,mgb_normalisation,84.40078082039426,90.34149293193902,6,6.0,True,1.2499120235443115
,2024-07-09 14:47:03,sub_110,3,distance,cathedral,spatial_unmasking,5,180,0,0,_four_,talker-p248_sex-f_text-_four_.wav,p248,f,5,16,2.0,7.0,RX81,6,0.0,0.0,7.0,76.34149293193902,babble-reversed_n13_p229-nine-p256-four-p318-three-p268-eight-p248-two-p284-five.wav,0,RX81,1,0.0,0.0,2.0,84.40078082039426,mgb_normalisation,84.40078082039426,90.34149293193902,4,2.0,False,1.1249210834503174
,2024-07-09 14:47:06,sub_110,3,distance,cathedral,spatial_unmasking,5,181,0,0,_five_,talker-p248_sex-f_text-_five_.wav,p248,f,5,17,2.0,7.0,RX81,6,0.0,0.0,7.0,77.341492931939,babble-reversed_n13_p318-nine-p256-five-p307-eight-p268-three-p248-one-p245-four.wav,0,RX81,1,0.0,0.0,2.0,84.40078082039426,mgb_normalisation,84.40078082039426,90.34149293193902,5,5.0,True,0.8124761581420898
,2024-07-09 14:47:09,sub_110,3,distance,cathedral,spatial_unmasking,5,182,0,0,_three_,talker-p248_sex-f_text-_three_.wav,p248,f,5,18,2.0,7.0,RX81,6,0.0,0.0,7.0,77.34149293193902,babble-reversed_n13_p229-nine-p307-five-p256-two-p248-three-p245-one-p268-eight.wav,0,RX81,1,0.0,0.0,2.0,84.40078082039426,mgb_normalisation,84.40078082039426,90.34149293193902,3,3.0,True,0.7499439716339111
,2024-07-09 14:47:12,sub_110,3,distance,cathedral,spatial_unmasking,5,183,0,0,_eight_,talker-p248_sex-f_text-_eight_.wav,p248,f,5,19,2.0,7.0,RX81,6,0.0,0.0,7.0,76.34149293193902,babble-reversed_n13_p318-one-p307-two-p256-eight-p284-three-p248-five-p245-four.wav,0,RX81,1,0.0,0.0,2.0,84.40078082039427,mgb_normalisation,84.40078082039426,90.34149293193902,8,4.0,False,0.7499475479125977
,2024-07-09 14:47:16,sub_110,3,distance,cathedral,spatial_unmasking,5,184,0,0,_four_,talker-p248_sex-f_text-_four_.wav,p248,f,5,20,2.0,7.0,RX81,6,0.0,0.0,7.0,77.341492931939,babble-reversed_n13_p256-eight-p318-five-p307-four-p245-three-p268-one-p284-nine.wav,0,RX81,1,0.0,0.0,2.0,84.40078082039426,mgb_normalisation,84.40078082039426,90.34149293193902,4,4.0,True,1.124920129776001
,2024-07-09 14:47:19,sub_110,3,distance,cathedral,spatial_unmasking,5,185,0,0,_five_,talker-p248_sex-f_text-_five_.wav,p248,f,5,21,2.0,7.0,RX81,6,0.0,0.0,7.0,77.341492931939,babble-reversed_n13_p318-four-p256-five-p229-three-p284-one-p245-eight-p248-nine.wav,0,RX81,1,0.0,0.0,2.0,84.40078082039427,mgb_normalisation,84.40078082039426,90.34149293193902,5,5.0,True,1.1249256134033203
,2024-07-09 14:47:23,sub_110,3,distance,cathedral,spatial_unmasking,5,186,0,0,_eight_,talker-p248_sex-f_text-_eight_.wav,p248,f,5,22,2.0,7.0,RX81,6,0.0,0.0,7.0,76.34149293193902,babble-reversed_n13_p256-five-p229-one-p318-three-p248-nine-p284-eight-p268-two.wav,0,RX81,1,0.0,0.0,2.0,84.40078082039427,mgb_normalisation,84.40078082039426,90.34149293193902,8,6.0,False,1.5623903274536133
,2024-07-09 14:47:27,sub_110,3,distance,cathedral,spatial_unmasking,5,187,0,0,_eight_,talker-p248_sex-f_text-_eight_.wav,p248,f,5,23,2.0,7.0,RX81,6,0.0,0.0,7.0,77.34149293193903,babble-reversed_n13_p256-five-p229-one-p318-three-p248-nine-p284-eight-p268-two.wav,0,RX81,1,0.0,0.0,2.0,84.40078082039427,mgb_normalisation,84.40078082039426,90.34149293193902,8,8.0,True,1.2499127388000488
,2024-07-09 14:47:31,sub_110,3,distance,cathedral,spatial_unmasking,5,188,0,0,_eight_,talker-p248_sex-f_text-_eight_.wav,p248,f,5,24,2.0,7.0,RX81,6,0.0,0.0,7.0,77.34149293193903,babble-reversed_n13_p307-one-p318-five-p229-four-p268-eight-p284-two-p245-three.wav,0,RX81,1,0.0,0.0,2.0,84.40078082039426,mgb_normalisation,84.40078082039426,90.34149293193902,8,2.0,False,1.5623912811279297
,2024-07-09 14:47:34,sub_110,3,distance,cathedral,spatial_unmasking,5,189,0,0,_nine_,talker-p248_sex-f_text-_nine_.wav,p248,f,5,25,2.0,7.0,RX81,6,0.0,0.0,7.0,78.34149293193902,babble-reversed_n13_p318-three-p229-one-p256-eight-p245-five-p248-four-p284-nine.wav,0,RX81,1,0.0,0.0,2.0,84.40078082039427,mgb_normalisation,84.40078082039426,90.34149293193902,9,9.0,True,1.0624275207519531
,2024-07-09 14:47:38,sub_110,3,distance,cathedral,spatial_unmasking,5,190,0,0,_five_,talker-p248_sex-f_text-_five_.wav,p248,f,5,26,2.0,7.0,RX81,6,0.0,0.0,7.0,78.341492931939,babble-reversed_n13_p256-five-p229-one-p318-three-p248-nine-p284-eight-p268-two.wav,0,RX81,1,0.0,0.0,2.0,84.40078082039427,mgb_normalisation,84.40078082039426,90.34149293193902,5,5.0,True,0.8749392032623291
,2024-07-09 14:47:41,sub_110,3,distance,cathedral,spatial_unmasking,5,191,0,0,_nine_,talker-p248_sex-f_text-_nine_.wav,p248,f,5,27,2.0,7.0,RX81,6,0.0,0.0,7.0,77.34149293193902,babble-reversed_n13_p229-nine-p256-four-p318-three-p268-eight-p248-two-p284-five.wav,0,RX81,1,0.0,0.0,2.0,84.40078082039426,mgb_normalisation,84.40078082039426,90.34149293193902,9,9.0,True,1.3124089241027832
,2024-07-09 14:47:45,sub_110,3,distance,cathedral,spatial_unmasking,5,192,0,0,_one_,talker-p248_sex-f_text-_one_.wav,p248,f,5,28,2.0,7.0,RX81,6,0.0,0.0,7.0,77.34149293193903,babble-reversed_n13_p307-nine-p229-one-p256-eight-p248-four-p284-two-p268-three.wav,0,RX81,1,0.0,0.0,2.0,84.40078082039426,mgb_normalisation,84.40078082039426,90.34149293193902,1,1.0,True,1.499894618988037
,2024-07-09 14:47:49,sub_110,3,distance,cathedral,spatial_unmasking,5,193,0,0,_eight_,talker-p248_sex-f_text-_eight_.wav,p248,f,5,29,2.0,7.0,RX81,6,0.0,0.0,7.0,76.34149293193902,babble-reversed_n13_p256-five-p307-nine-p318-three-p284-eight-p268-one-p248-two.wav,0,RX81,1,0.0,0.0,2.0,84.40078082039426,mgb_normalisation,84.40078082039426,90.34149293193902,8,3.0,False,1.312408208847046
,2024-07-09 14:47:52,sub_110,3,distance,cathedral,spatial_unmasking,5,194,0,0,_eight_,talker-p248_sex-f_text-_eight_.wav,p248,f,5,30,2.0,7.0,RX81,6,0.0,0.0,7.0,77.34149293193903,babble-reversed_n13_p229-nine-p256-four-p318-three-p268-eight-p248-two-p284-five.wav,0,RX81,1,0.0,0.0,2.0,84.40078082039426,mgb_normalisation,84.40078082039426,90.34149293193902,8,4.0,False,0.9374339580535888
,2024-07-09 14:47:55,sub_110,3,distance,cathedral,spatial_unmasking,5,195,0,0,_two_,talker-p248_sex-f_text-_two_.wav,p248,f,5,31,2.0,7.0,RX81,6,0.0,0.0,7.0,78.34149293193902,babble-reversed_n13_p307-four-p318-three-p256-eight-p284-two-p245-nine-p248-five.wav,0,RX81,1,0.0,0.0,2.0,84.40078082039426,mgb_normalisation,84.40078082039426,90.34149293193902,2,2.0,True,0.8749384880065918
,2024-07-09 14:47:59,sub_110,3,distance,cathedral,spatial_unmasking,5,196,0,0,_four_,talker-p248_sex-f_text-_four_.wav,p248,f,5,32,2.0,7.0,RX81,6,0.0,0.0,7.0,78.34149293193902,babble-reversed_n13_p318-three-p307-one-p256-five-p248-nine-p245-two-p284-eight.wav,0,RX81,1,0.0,0.0,2.0,84.40078082039426,mgb_normalisation,84.40078082039426,90.34149293193902,4,1.0,False,1.2499127388000488
,2024-07-09 14:48:02,sub_110,3,distance,cathedral,spatial_unmasking,5,197,0,0,_nine_,talker-p248_sex-f_text-_nine_.wav,p248,f,5,33,2.0,7.0,RX81,6,0.0,0.0,7.0,79.341492931939,babble-reversed_n13_p229-eight-p256-nine-p318-four-p245-three-p268-five-p284-two.wav,0,RX81,1,0.0,0.0,2.0,84.40078082039426,mgb_normalisation,84.40078082039426,90.34149293193902,9,5.0,False,0.9374346733093262
,2024-07-09 14:48:06,sub_110,3,distance,cathedral,spatial_unmasking,5,198,0,0,_nine_,talker-p248_sex-f_text-_nine_.wav,p248,f,5,34,2.0,7.0,RX81,6,0.0,0.0,7.0,80.341492931939,babble-reversed_n13_p256-four-p307-eight-p318-two-p248-three-p284-nine-p268-one.wav,0,RX81,1,0.0,0.0,2.0,84.40078082039427,mgb_normalisation,84.40078082039426,90.34149293193902,9,9.0,True,1.4998948574066162
,2024-07-09 14:48:10,sub_110,3,distance,cathedral,spatial_unmasking,5,199,0,0,_nine_,talker-p248_sex-f_text-_nine_.wav,p248,f,5,35,2.0,7.0,RX81,6,0.0,0.0,7.0,80.341492931939,babble-reversed_n13_p256-nine-p307-four-p229-one-p284-three-p248-two-p245-five.wav,0,RX81,1,0.0,0.0,2.0,84.40078082039427,mgb_normalisation,84.40078082039426,90.34149293193902,9,9.0,True,1.0624258518218994
,2024-07-09 14:49:51,sub_110,3,distance,cathedral,spatial_unmasking,6,200,0,0,_three_,talker-p248_sex-f_text-_three_.wav,p248,f,5,1,10.0,7.0,RX81,6,0.0,0.0,7.0,92.34149293193902,babble-reversed_n13_p256-eight-p318-five-p307-four-p245-three-p268-one-p284-nine.wav,8,RX81,9,0.0,0.0,10.0,92.0152836843556,mgb_normalisation,92.0152836843556,90.34149293193902,3,3.0,True,0.937434196472168
,2024-07-09 14:49:54,sub_110,3,distance,cathedral,spatial_unmasking,6,201,0,0,_six_,talker-p248_sex-f_text-_six_.wav,p248,f,5,2,10.0,7.0,RX81,6,0.0,0.0,7.0,88.34149293193902,babble-reversed_n13_p256-eight-p318-five-p307-four-p245-three-p268-one-p284-nine.wav,8,RX81,9,0.0,0.0,10.0,92.0152836843556,mgb_normalisation,92.0152836843556,90.34149293193902,6,6.0,True,0.8124420642852783
,2024-07-09 14:49:58,sub_110,3,distance,cathedral,spatial_unmasking,6,202,0,0,_nine_,talker-p248_sex-f_text-_nine_.wav,p248,f,5,3,10.0,7.0,RX81,6,0.0,0.0,7.0,84.341492931939,babble-reversed_n13_p229-two-p318-eight-p256-three-p268-one-p248-nine-p284-five.wav,8,RX81,9,0.0,0.0,10.0,92.0152836843556,mgb_normalisation,92.0152836843556,90.34149293193902,9,9.0,True,0.8125083446502686
,2024-07-09 14:50:01,sub_110,3,distance,cathedral,spatial_unmasking,6,203,0,0,_eight_,talker-p248_sex-f_text-_eight_.wav,p248,f,5,4,10.0,7.0,RX81,6,0.0,0.0,7.0,80.34149293193903,babble-reversed_n13_p256-four-p229-two-p318-five-p268-one-p248-eight-p245-three.wav,8,RX81,9,0.0,0.0,10.0,92.0152836843556,mgb_normalisation,92.0152836843556,90.34149293193902,8,3.0,False,1.4998953342437744
,2024-07-09 14:50:05,sub_110,3,distance,cathedral,spatial_unmasking,6,204,0,0,_three_,talker-p248_sex-f_text-_three_.wav,p248,f,5,5,10.0,7.0,RX81,6,0.0,0.0,7.0,82.34149293193902,babble-reversed_n13_p318-five-p229-three-p256-four-p268-eight-p248-one-p245-nine.wav,8,RX81,9,0.0,0.0,10.0,92.0152836843556,mgb_normalisation,92.0152836843556,90.34149293193902,3,3.0,True,0.8124430179595947
,2024-07-09 14:50:08,sub_110,3,distance,cathedral,spatial_unmasking,6,205,0,0,_six_,talker-p248_sex-f_text-_six_.wav,p248,f,5,6,10.0,7.0,RX81,6,0.0,0.0,7.0,82.34149293193902,babble-reversed_n13_p229-two-p256-three-p318-eight-p284-five-p268-four-p245-one.wav,8,RX81,9,0.0,0.0,10.0,92.0152836843556,mgb_normalisation,92.0152836843556,90.34149293193902,6,6.0,True,0.8749406337738037
,2024-07-09 14:50:11,sub_110,3,distance,cathedral,spatial_unmasking,6,206,0,0,_three_,talker-p248_sex-f_text-_three_.wav,p248,f,5,7,10.0,7.0,RX81,6,0.0,0.0,7.0,80.341492931939,babble-reversed_n13_p256-eight-p318-two-p307-five-p245-four-p268-nine-p284-one.wav,8,RX81,9,0.0,0.0,10.0,92.0152836843556,mgb_normalisation,92.0152836843556,90.34149293193902,3,3.0,True,0.937432050704956
,2024-07-09 14:50:14,sub_110,3,distance,cathedral,spatial_unmasking,6,207,0,0,_four_,talker-p248_sex-f_text-_four_.wav,p248,f,5,8,10.0,7.0,RX81,6,0.0,0.0,7.0,80.341492931939,babble-reversed_n13_p307-five-p229-two-p318-four-p248-three-p245-nine-p268-eight.wav,8,RX81,9,0.0,0.0,10.0,92.0152836843556,mgb_normalisation,92.0152836843556,90.34149293193902,4,2.0,False,0.7499477863311768
,2024-07-09 14:50:18,sub_110,3,distance,cathedral,spatial_unmasking,6,208,0,0,_five_,talker-p248_sex-f_text-_five_.wav,p248,f,5,9,10.0,7.0,RX81,6,0.0,0.0,7.0,81.341492931939,babble-reversed_n13_p229-two-p307-five-p318-four-p284-one-p248-nine-p268-eight.wav,8,RX81,9,0.0,0.0,10.0,92.0152836843556,mgb_normalisation,92.0152836843556,90.34149293193902,5,5.0,True,0.8749392032623291
,2024-07-09 14:50:21,sub_110,3,distance,cathedral,spatial_unmasking,6,209,0,0,_nine_,talker-p248_sex-f_text-_nine_.wav,p248,f,5,10,10.0,7.0,RX81,6,0.0,0.0,7.0,81.34149293193902,babble-reversed_n13_p229-three-p307-one-p318-two-p245-eight-p268-five-p284-four.wav,8,RX81,9,0.0,0.0,10.0,92.0152836843556,mgb_normalisation,92.0152836843556,90.34149293193902,9,9.0,True,0.7499473094940186
,2024-07-09 14:50:24,sub_110,3,distance,cathedral,spatial_unmasking,6,210,0,0,_three_,talker-p248_sex-f_text-_three_.wav,p248,f,5,11,10.0,7.0,RX81,6,0.0,0.0,7.0,80.341492931939,babble-reversed_n13_p318-five-p256-nine-p307-eight-p248-two-p245-four-p284-three.wav,8,RX81,9,0.0,0.0,10.0,92.0152836843556,mgb_normalisation,92.0152836843556,90.34149293193902,3,3.0,True,0.9374344348907472
,2024-07-09 14:50:28,sub_110,3,distance,cathedral,spatial_unmasking,6,211,0,0,_four_,talker-p248_sex-f_text-_four_.wav,p248,f,5,12,10.0,7.0,RX81,6,0.0,0.0,7.0,80.341492931939,babble-reversed_n13_p307-two-p229-one-p256-five-p248-nine-p284-three-p268-eight.wav,8,RX81,9,0.0,0.0,10.0,92.0152836843556,mgb_normalisation,92.0152836843556,90.34149293193902,4,4.0,True,1.6248862743377686
,2024-07-09 14:50:31,sub_110,3,distance,cathedral,spatial_unmasking,6,212,0,0,_six_,talker-p248_sex-f_text-_six_.wav,p248,f,5,13,10.0,7.0,RX81,6,0.0,0.0,7.0,79.34149293193902,babble-reversed_n13_p307-two-p229-one-p256-five-p248-nine-p284-three-p268-eight.wav,8,RX81,9,0.0,0.0,10.0,92.0152836843556,mgb_normalisation,92.0152836843556,90.34149293193902,6,6.0,True,0.8124430179595947
,2024-07-09 14:50:35,sub_110,3,distance,cathedral,spatial_unmasking,6,213,0,0,_four_,talker-p248_sex-f_text-_four_.wav,p248,f,5,14,10.0,7.0,RX81,6,0.0,0.0,7.0,79.341492931939,babble-reversed_n13_p229-five-p256-three-p318-nine-p248-two-p284-four-p268-one.wav,8,RX81,9,0.0,0.0,10.0,92.0152836843556,mgb_normalisation,92.0152836843556,90.34149293193902,4,1.0,False,0.9999027252197266
,2024-07-09 14:50:38,sub_110,3,distance,cathedral,spatial_unmasking,6,214,0,0,_nine_,talker-p248_sex-f_text-_nine_.wav,p248,f,5,15,10.0,7.0,RX81,6,0.0,0.0,7.0,80.341492931939,babble-reversed_n13_p256-four-p229-two-p318-five-p268-one-p248-eight-p245-three.wav,8,RX81,9,0.0,0.0,10.0,92.0152836843556,mgb_normalisation,92.0152836843556,90.34149293193902,9,9.0,True,0.8124434947967529
,2024-07-09 14:50:41,sub_110,3,distance,cathedral,spatial_unmasking,6,215,0,0,_one_,talker-p248_sex-f_text-_one_.wav,p248,f,5,16,10.0,7.0,RX81,6,0.0,0.0,7.0,80.34149293193903,babble-reversed_n13_p229-three-p256-one-p307-two-p284-eight-p268-five-p248-nine.wav,8,RX81,9,0.0,0.0,10.0,92.0152836843556,mgb_normalisation,92.0152836843556,90.34149293193902,1,1.0,True,0.8749251365661621
,2024-07-09 14:50:45,sub_110,3,distance,cathedral,spatial_unmasking,6,216,0,0,_two_,talker-p248_sex-f_text-_two_.wav,p248,f,5,17,10.0,7.0,RX81,6,0.0,0.0,7.0,79.34149293193902,babble-reversed_n13_p318-nine-p307-eight-p229-two-p284-one-p248-three-p245-five.wav,8,RX81,9,0.0,0.0,10.0,92.0152836843556,mgb_normalisation,92.0152836843556,90.34149293193902,2,2.0,True,0.8749668598175049
,2024-07-09 14:50:48,sub_110,3,distance,cathedral,spatial_unmasking,6,217,0,0,_four_,talker-p248_sex-f_text-_four_.wav,p248,f,5,18,10.0,7.0,RX81,6,0.0,0.0,7.0,79.341492931939,babble-reversed_n13_p256-five-p307-nine-p318-three-p284-eight-p268-one-p248-two.wav,8,RX81,9,0.0,0.0,10.0,92.0152836843556,mgb_normalisation,92.0152836843556,90.34149293193902,4,3.0,False,1.4998283386230469
,2024-07-09 14:50:52,sub_110,3,distance,cathedral,spatial_unmasking,6,218,0,0,_four_,talker-p248_sex-f_text-_four_.wav,p248,f,5,19,10.0,7.0,RX81,6,0.0,0.0,7.0,80.341492931939,babble-reversed_n13_p229-two-p307-five-p318-four-p284-one-p248-nine-p268-eight.wav,8,RX81,9,0.0,0.0,10.0,92.0152836843556,mgb_normalisation,92.0152836843556,90.34149293193902,4,9.0,False,1.1874170303344729
,2024-07-09 14:50:56,sub_110,3,distance,cathedral,spatial_unmasking,6,219,0,0,_eight_,talker-p248_sex-f_text-_eight_.wav,p248,f,5,20,10.0,7.0,RX81,6,0.0,0.0,7.0,81.34149293193902,babble-reversed_n13_p229-five-p256-one-p318-three-p248-nine-p268-four-p284-eight.wav,8,RX81,9,0.0,0.0,10.0,92.0152836843556,mgb_normalisation,92.0152836843556,90.34149293193902,8,8.0,True,1.5623893737792969
,2024-07-09 14:50:59,sub_110,3,distance,cathedral,spatial_unmasking,6,220,0,0,_five_,talker-p248_sex-f_text-_five_.wav,p248,f,5,21,10.0,7.0,RX81,6,0.0,0.0,7.0,81.341492931939,babble-reversed_n13_p229-five-p256-one-p318-three-p248-nine-p268-four-p284-eight.wav,8,RX81,9,0.0,0.0,10.0,92.0152836843556,mgb_normalisation,92.0152836843556,90.34149293193902,5,5.0,True,1.1248564720153809
,2024-07-09 14:51:03,sub_110,3,distance,cathedral,spatial_unmasking,6,221,0,0,_five_,talker-p248_sex-f_text-_five_.wav,p248,f,5,22,10.0,7.0,RX81,6,0.0,0.0,7.0,80.341492931939,babble-reversed_n13_p256-four-p229-eight-p307-five-p248-three-p245-one-p284-two.wav,8,RX81,9,0.0,0.0,10.0,92.0152836843556,mgb_normalisation,92.0152836843556,90.34149293193902,5,5.0,True,0.8124432563781738
,2024-07-09 14:51:07,sub_110,3,distance,cathedral,spatial_unmasking,6,222,0,0,_eight_,talker-p248_sex-f_text-_eight_.wav,p248,f,5,23,10.0,7.0,RX81,6,0.0,0.0,7.0,80.34149293193903,babble-reversed_n13_p229-eight-p256-nine-p318-four-p245-three-p268-five-p284-two.wav,8,RX81,9,0.0,0.0,10.0,92.0152836843556,mgb_normalisation,92.0152836843556,90.34149293193902,8,4.0,False,1.8748681545257568
,2024-07-09 14:51:10,sub_110,3,distance,cathedral,spatial_unmasking,6,223,0,0,_one_,talker-p248_sex-f_text-_one_.wav,p248,f,5,24,10.0,7.0,RX81,6,0.0,0.0,7.0,81.34149293193902,babble-reversed_n13_p229-eight-p256-nine-p318-four-p245-three-p268-five-p284-two.wav,8,RX81,9,0.0,0.0,10.0,92.0152836843556,mgb_normalisation,92.0152836843556,90.34149293193902,1,1.0,True,0.8749384880065918
,2024-07-09 14:51:14,sub_110,3,distance,cathedral,spatial_unmasking,6,224,0,0,_four_,talker-p248_sex-f_text-_four_.wav,p248,f,5,25,10.0,7.0,RX81,6,0.0,0.0,7.0,81.341492931939,babble-reversed_n13_p256-eight-p229-three-p307-nine-p245-five-p248-four-p268-two.wav,8,RX81,9,0.0,0.0,10.0,92.0152836843556,mgb_normalisation,92.0152836843556,90.34149293193902,4,2.0,False,1.374903678894043
,2024-07-09 14:51:17,sub_110,3,distance,cathedral,spatial_unmasking,6,225,0,0,_five_,talker-p248_sex-f_text-_five_.wav,p248,f,5,26,10.0,7.0,RX81,6,0.0,0.0,7.0,82.341492931939,babble-reversed_n13_p229-nine-p318-one-p307-two-p248-eight-p245-five-p284-four.wav,8,RX81,9,0.0,0.0,10.0,92.0152836843556,mgb_normalisation,92.0152836843556,90.34149293193902,5,5.0,True,0.8124427795410156
,2024-07-09 14:51:21,sub_110,3,distance,cathedral,spatial_unmasking,6,226,0,0,_two_,talker-p248_sex-f_text-_two_.wav,p248,f,5,27,10.0,7.0,RX81,6,0.0,0.0,7.0,82.34149293193902,babble-reversed_n13_p307-four-p318-three-p256-eight-p284-two-p245-nine-p248-five.wav,8,RX81,9,0.0,0.0,10.0,92.0152836843556,mgb_normalisation,92.0152836843556,90.34149293193902,2,2.0,True,0.9374828338623048
,2024-07-09 14:51:24,sub_110,3,distance,cathedral,spatial_unmasking,6,227,0,0,_nine_,talker-p248_sex-f_text-_nine_.wav,p248,f,5,28,10.0,7.0,RX81,6,0.0,0.0,7.0,81.34149293193902,babble-reversed_n13_p307-nine-p229-one-p256-eight-p248-four-p284-two-p268-three.wav,8,RX81,9,0.0,0.0,10.0,92.0152836843556,mgb_normalisation,92.0152836843556,90.34149293193902,9,9.0,True,0.9374065399169922
,2024-07-09 14:51:27,sub_110,3,distance,cathedral,spatial_unmasking,6,228,0,0,_one_,talker-p248_sex-f_text-_one_.wav,p248,f,5,29,10.0,7.0,RX81,6,0.0,0.0,7.0,81.34149293193902,babble-reversed_n13_p256-two-p307-five-p318-nine-p248-eight-p245-four-p284-one.wav,8,RX81,9,0.0,0.0,10.0,92.0152836843556,mgb_normalisation,92.0152836843556,90.34149293193902,1,1.0,True,0.9374344348907472
,2024-07-09 14:51:31,sub_110,3,distance,cathedral,spatial_unmasking,6,229,0,0,_nine_,talker-p248_sex-f_text-_nine_.wav,p248,f,5,30,10.0,7.0,RX81,6,0.0,0.0,7.0,80.341492931939,babble-reversed_n13_p229-three-p256-one-p307-two-p284-eight-p268-five-p248-nine.wav,8,RX81,9,0.0,0.0,10.0,92.0152836843556,mgb_normalisation,92.0152836843556,90.34149293193902,9,9.0,True,0.9373829364776612
,2024-07-09 14:51:34,sub_110,3,distance,cathedral,spatial_unmasking,6,230,0,0,_three_,talker-p248_sex-f_text-_three_.wav,p248,f,5,31,10.0,7.0,RX81,6,0.0,0.0,7.0,80.341492931939,babble-reversed_n13_p256-five-p307-nine-p318-three-p284-eight-p268-one-p248-two.wav,8,RX81,9,0.0,0.0,10.0,92.0152836843556,mgb_normalisation,92.0152836843556,90.34149293193902,3,3.0,True,1.062425136566162
,2024-07-09 14:51:37,sub_110,3,distance,cathedral,spatial_unmasking,6,231,0,0,_five_,talker-p248_sex-f_text-_five_.wav,p248,f,5,32,10.0,7.0,RX81,6,0.0,0.0,7.0,79.341492931939,babble-reversed_n13_p256-eight-p318-five-p307-four-p245-three-p268-one-p284-nine.wav,8,RX81,9,0.0,0.0,10.0,92.0152836843556,mgb_normalisation,92.0152836843556,90.34149293193902,5,5.0,True,0.9999308586120604
,2024-07-09 14:51:41,sub_110,3,distance,cathedral,spatial_unmasking,6,232,0,0,_nine_,talker-p248_sex-f_text-_nine_.wav,p248,f,5,33,10.0,7.0,RX81,6,0.0,0.0,7.0,79.341492931939,babble-reversed_n13_p256-three-p318-two-p229-nine-p248-four-p284-one-p268-eight.wav,8,RX81,9,0.0,0.0,10.0,92.0152836843556,mgb_normalisation,92.0152836843556,90.34149293193902,9,3.0,False,1.1874167919158936
,2024-07-09 14:51:44,sub_110,3,distance,cathedral,spatial_unmasking,6,233,0,0,_two_,talker-p248_sex-f_text-_two_.wav,p248,f,5,34,10.0,7.0,RX81,6,0.0,0.0,7.0,80.34149293193903,babble-reversed_n13_p256-five-p307-nine-p318-three-p284-eight-p268-one-p248-two.wav,8,RX81,9,0.0,0.0,10.0,92.0152836843556,mgb_normalisation,92.0152836843556,90.34149293193902,2,2.0,True,0.8749392032623291
,2024-07-09 14:51:47,sub_110,3,distance,cathedral,spatial_unmasking,6,234,0,0,_two_,talker-p248_sex-f_text-_two_.wav,p248,f,5,35,10.0,7.0,RX81,6,0.0,0.0,7.0,80.34149293193903,babble-reversed_n13_p256-three-p318-one-p307-two-p284-nine-p268-four-p245-eight.wav,8,RX81,9,0.0,0.0,10.0,92.0152836843556,mgb_normalisation,92.0152836843556,90.34149293193902,2,2.0,True,0.8749387264251709
,2024-07-09 14:53:34,sub_110,3,distance,cathedral,spatial_unmasking,7,235,0,0,_nine_,talker-p248_sex-f_text-_nine_.wav,p248,f,5,1,8.0,7.0,RX81,6,0.0,0.0,7.0,92.34149293193902,babble-reversed_n13_p307-nine-p318-two-p256-one-p245-three-p268-four-p248-eight.wav,6,RX81,7,0.0,0.0,8.0,91.58892582949886,mgb_normalisation,91.58892582949886,90.34149293193902,9,9.0,True,1.3124077320098877
,2024-07-09 14:53:38,sub_110,3,distance,cathedral,spatial_unmasking,7,236,0,0,_three_,talker-p248_sex-f_text-_three_.wav,p248,f,5,2,8.0,7.0,RX81,6,0.0,0.0,7.0,88.34149293193902,babble-reversed_n13_p256-three-p318-one-p307-two-p284-nine-p268-four-p245-eight.wav,6,RX81,7,0.0,0.0,8.0,91.58892582949888,mgb_normalisation,91.58892582949886,90.34149293193902,3,3.0,True,0.9999301433563232
,2024-07-09 14:53:41,sub_110,3,distance,cathedral,spatial_unmasking,7,237,0,0,_five_,talker-p248_sex-f_text-_five_.wav,p248,f,5,3,8.0,7.0,RX81,6,0.0,0.0,7.0,84.341492931939,babble-reversed_n13_p256-four-p307-eight-p318-two-p248-three-p284-nine-p268-one.wav,6,RX81,7,0.0,0.0,8.0,91.58892582949888,mgb_normalisation,91.58892582949886,90.34149293193902,5,5.0,True,0.8124432563781738
,2024-07-09 14:53:44,sub_110,3,distance,cathedral,spatial_unmasking,7,238,0,0,_six_,talker-p248_sex-f_text-_six_.wav,p248,f,5,4,8.0,7.0,RX81,6,0.0,0.0,7.0,80.34149293193903,babble-reversed_n13_p229-five-p318-two-p307-eight-p268-three-p248-four-p245-one.wav,6,RX81,7,0.0,0.0,8.0,91.58892582949888,mgb_normalisation,91.58892582949886,90.34149293193902,6,6.0,True,0.6249561309814453
,2024-07-09 14:53:48,sub_110,3,distance,cathedral,spatial_unmasking,7,239,0,0,_one_,talker-p248_sex-f_text-_one_.wav,p248,f,5,5,8.0,7.0,RX81,6,0.0,0.0,7.0,76.34149293193902,babble-reversed_n13_p307-one-p318-five-p229-four-p268-eight-p284-two-p245-three.wav,6,RX81,7,0.0,0.0,8.0,91.58892582949886,mgb_normalisation,91.58892582949886,90.34149293193902,1,1.0,True,1.4998958110809326
,2024-07-09 14:53:51,sub_110,3,distance,cathedral,spatial_unmasking,7,240,0,0,_four_,talker-p248_sex-f_text-_four_.wav,p248,f,5,6,8.0,7.0,RX81,6,0.0,0.0,7.0,72.34149293193902,babble-reversed_n13_p318-three-p307-one-p256-five-p248-nine-p245-two-p284-eight.wav,6,RX81,7,0.0,0.0,8.0,91.58892582949888,mgb_normalisation,91.58892582949886,90.34149293193902,4,9.0,False,1.3749070167541504
,2024-07-09 14:53:55,sub_110,3,distance,cathedral,spatial_unmasking,7,241,0,0,_three_,talker-p248_sex-f_text-_three_.wav,p248,f,5,7,8.0,7.0,RX81,6,0.0,0.0,7.0,74.34149293193902,babble-reversed_n13_p229-three-p256-one-p307-two-p284-eight-p268-five-p248-nine.wav,6,RX81,7,0.0,0.0,8.0,91.58892582949888,mgb_normalisation,91.58892582949886,90.34149293193902,3,4.0,False,1.499894618988037
,2024-07-09 14:54:00,sub_110,3,distance,cathedral,spatial_unmasking,7,242,0,0,_one_,talker-p248_sex-f_text-_one_.wav,p248,f,5,8,8.0,7.0,RX81,6,0.0,0.0,7.0,76.34149293193902,babble-reversed_n13_p256-nine-p307-four-p229-one-p284-three-p248-two-p245-five.wav,6,RX81,7,0.0,0.0,8.0,91.58892582949888,mgb_normalisation,91.58892582949886,90.34149293193902,1,8.0,False,1.7498769760131836
,2024-07-09 14:54:03,sub_110,3,distance,cathedral,spatial_unmasking,7,243,0,0,_nine_,talker-p248_sex-f_text-_nine_.wav,p248,f,5,9,8.0,7.0,RX81,6,0.0,0.0,7.0,78.34149293193902,babble-reversed_n13_p307-two-p229-one-p256-five-p248-nine-p284-three-p268-eight.wav,6,RX81,7,0.0,0.0,8.0,91.58892582949888,mgb_normalisation,91.58892582949886,90.34149293193902,9,9.0,True,1.0624256134033203
,2024-07-09 14:54:07,sub_110,3,distance,cathedral,spatial_unmasking,7,244,0,0,_three_,talker-p248_sex-f_text-_three_.wav,p248,f,5,10,8.0,7.0,RX81,6,0.0,0.0,7.0,78.34149293193902,babble-reversed_n13_p229-two-p307-five-p318-four-p284-one-p248-nine-p268-eight.wav,6,RX81,7,0.0,0.0,8.0,91.58892582949888,mgb_normalisation,91.58892582949886,90.34149293193902,3,9.0,False,1.562388896942139
,2024-07-09 14:54:10,sub_110,3,distance,cathedral,spatial_unmasking,7,245,0,0,_six_,talker-p248_sex-f_text-_six_.wav,p248,f,5,11,8.0,7.0,RX81,6,0.0,0.0,7.0,80.34149293193903,babble-reversed_n13_p229-two-p256-three-p318-eight-p284-five-p268-four-p245-one.wav,6,RX81,7,0.0,0.0,8.0,91.58892582949888,mgb_normalisation,91.58892582949886,90.34149293193902,6,6.0,True,0.8749394416809082
,2024-07-09 14:54:14,sub_110,3,distance,cathedral,spatial_unmasking,7,246,0,0,_nine_,talker-p248_sex-f_text-_nine_.wav,p248,f,5,12,8.0,7.0,RX81,6,0.0,0.0,7.0,80.341492931939,babble-reversed_n13_p318-five-p229-three-p256-four-p268-eight-p248-one-p245-nine.wav,6,RX81,7,0.0,0.0,8.0,91.58892582949888,mgb_normalisation,91.58892582949886,90.34149293193902,9,9.0,True,1.2499046325683594
,2024-07-09 14:54:18,sub_110,3,distance,cathedral,spatial_unmasking,7,247,0,0,_five_,talker-p248_sex-f_text-_five_.wav,p248,f,5,13,8.0,7.0,RX81,6,0.0,0.0,7.0,78.341492931939,babble-reversed_n13_p318-five-p229-three-p256-four-p268-eight-p248-one-p245-nine.wav,6,RX81,7,0.0,0.0,8.0,91.58892582949888,mgb_normalisation,91.58892582949886,90.34149293193902,5,9.0,False,1.6873817443847656
,2024-07-09 14:54:21,sub_110,3,distance,cathedral,spatial_unmasking,7,248,0,0,_three_,talker-p248_sex-f_text-_three_.wav,p248,f,5,14,8.0,7.0,RX81,6,0.0,0.0,7.0,79.341492931939,babble-reversed_n13_p307-nine-p318-two-p256-one-p245-three-p268-four-p248-eight.wav,6,RX81,7,0.0,0.0,8.0,91.58892582949886,mgb_normalisation,91.58892582949886,90.34149293193902,3,3.0,True,1.1249208450317385
,2024-07-09 14:54:25,sub_110,3,distance,cathedral,spatial_unmasking,7,249,0,0,_four_,talker-p248_sex-f_text-_four_.wav,p248,f,5,15,8.0,7.0,RX81,6,0.0,0.0,7.0,79.341492931939,babble-reversed_n13_p256-eight-p229-three-p307-nine-p245-five-p248-four-p268-two.wav,6,RX81,7,0.0,0.0,8.0,91.58892582949886,mgb_normalisation,91.58892582949886,90.34149293193902,4,2.0,False,1.3749003410339355
,2024-07-09 14:54:29,sub_110,3,distance,cathedral,spatial_unmasking,7,250,0,0,_nine_,talker-p248_sex-f_text-_nine_.wav,p248,f,5,16,8.0,7.0,RX81,6,0.0,0.0,7.0,80.341492931939,babble-reversed_n13_p256-four-p307-eight-p318-two-p248-three-p284-nine-p268-one.wav,6,RX81,7,0.0,0.0,8.0,91.58892582949888,mgb_normalisation,91.58892582949886,90.34149293193902,9,3.0,False,1.249912977218628
,2024-07-09 14:54:33,sub_110,3,distance,cathedral,spatial_unmasking,7,251,0,0,_eight_,talker-p248_sex-f_text-_eight_.wav,p248,f,5,17,8.0,7.0,RX81,6,0.0,0.0,7.0,81.34149293193902,babble-reversed_n13_p229-nine-p256-four-p318-three-p268-eight-p248-two-p284-five.wav,6,RX81,7,0.0,0.0,8.0,91.58892582949888,mgb_normalisation,91.58892582949886,90.34149293193902,8,2.0,False,1.374903678894043
,2024-07-09 14:54:36,sub_110,3,distance,cathedral,spatial_unmasking,7,252,0,0,_three_,talker-p248_sex-f_text-_three_.wav,p248,f,5,18,8.0,7.0,RX81,6,0.0,0.0,7.0,82.34149293193902,babble-reversed_n13_p256-four-p229-two-p318-five-p268-one-p248-eight-p245-three.wav,6,RX81,7,0.0,0.0,8.0,91.58892582949886,mgb_normalisation,91.58892582949886,90.34149293193902,3,3.0,True,0.9374167919158936
,2024-07-09 14:54:39,sub_110,3,distance,cathedral,spatial_unmasking,7,253,0,0,_nine_,talker-p248_sex-f_text-_nine_.wav,p248,f,5,19,8.0,7.0,RX81,6,0.0,0.0,7.0,82.34149293193902,babble-reversed_n13_p307-five-p229-three-p318-nine-p245-four-p268-eight-p284-two.wav,6,RX81,7,0.0,0.0,8.0,91.58892582949886,mgb_normalisation,91.58892582949886,90.34149293193902,9,9.0,True,0.9374337196350098
,2024-07-09 14:54:43,sub_110,3,distance,cathedral,spatial_unmasking,7,254,0,0,_one_,talker-p248_sex-f_text-_one_.wav,p248,f,5,20,8.0,7.0,RX81,6,0.0,0.0,7.0,81.34149293193902,babble-reversed_n13_p229-one-p318-eight-p256-three-p268-two-p245-five-p248-nine.wav,6,RX81,7,0.0,0.0,8.0,91.58892582949886,mgb_normalisation,91.58892582949886,90.34149293193902,1,1.0,True,1.374903678894043
,2024-07-09 14:54:47,sub_110,3,distance,cathedral,spatial_unmasking,7,255,0,0,_two_,talker-p248_sex-f_text-_two_.wav,p248,f,5,21,8.0,7.0,RX81,6,0.0,0.0,7.0,81.34149293193902,babble-reversed_n13_p318-three-p229-one-p256-eight-p245-five-p248-four-p284-nine.wav,6,RX81,7,0.0,0.0,8.0,91.58892582949888,mgb_normalisation,91.58892582949886,90.34149293193902,2,2.0,True,1.1249210834503174
,2024-07-09 14:54:50,sub_110,3,distance,cathedral,spatial_unmasking,7,256,0,0,_three_,talker-p248_sex-f_text-_three_.wav,p248,f,5,22,8.0,7.0,RX81,6,0.0,0.0,7.0,80.341492931939,babble-reversed_n13_p318-five-p229-three-p256-four-p268-eight-p248-one-p245-nine.wav,6,RX81,7,0.0,0.0,8.0,91.58892582949888,mgb_normalisation,91.58892582949886,90.34149293193902,3,3.0,True,1.1249206066131592
,2024-07-09 14:54:54,sub_110,3,distance,cathedral,spatial_unmasking,7,257,0,0,_eight_,talker-p248_sex-f_text-_eight_.wav,p248,f,5,23,8.0,7.0,RX81,6,0.0,0.0,7.0,80.34149293193903,babble-reversed_n13_p307-five-p229-two-p318-four-p248-three-p245-nine-p268-eight.wav,6,RX81,7,0.0,0.0,8.0,91.58892582949886,mgb_normalisation,91.58892582949886,90.34149293193902,8,8.0,True,1.9374196529388428
,2024-07-09 14:54:58,sub_110,3,distance,cathedral,spatial_unmasking,7,258,0,0,_two_,talker-p248_sex-f_text-_two_.wav,p248,f,5,24,8.0,7.0,RX81,6,0.0,0.0,7.0,79.34149293193902,babble-reversed_n13_p307-two-p256-four-p318-three-p284-eight-p248-five-p245-nine.wav,6,RX81,7,0.0,0.0,8.0,91.58892582949888,mgb_normalisation,91.58892582949886,90.34149293193902,2,2.0,True,0.9999279975891112
