,event_id,timestamp,subject_id,session_index,plane,setup,task,block,trial_index,stim_type,headpose_offset_azi,headpose_offset_ele,stim_filename,stim_level,mgb_level,fluctuation,speaker_id,speaker_proc,speaker_chan,stim_azi,stim_ele,stim_dist,resp_azi,resp_ele,resp_dist,reaction_time
0,,2024-07-25 13:23:09,sub_120,3,distance,cathedral,localisation_accuracy,1,0,pinknoise,,,pinknoise_6.wav,87.37980471267187,30,-0.27482446750685563,2,RX81,3,0.0,0.0,4.0,0,0,10.991202346041057,17.828328609466553
0,,2024-07-25 13:23:10,sub_120,3,distance,cathedral,localisation_accuracy,1,1,pinknoise,,,pinknoise_5.wav,85.87496786060939,30,-0.4773876953968518,1,RX81,2,0.0,0.0,3.0,0,0,10.991202346041057,0.015594244003295898
0,,2024-07-25 13:23:25,sub_120,3,distance,cathedral,localisation_accuracy,1,2,pinknoise,,,pinknoise_3.wav,89.28808311915492,30,0.19859715601043004,3,RX81,4,0.0,0.0,5.0,0,0,10.991202346041057,13.968848705291748
0,,2024-07-25 13:25:35,sub_120,3,distance,cathedral,localisation_accuracy,1,0,pinknoise,,,pinknoise_0.wav,84.73267567213654,30,0.49745189955187585,0,RX81,1,0.0,0.0,2.0,0,0,8.703812316715544,7.200502157211304
0,,2024-07-25 13:25:44,sub_120,3,distance,cathedral,localisation_accuracy,1,1,pinknoise,,,pinknoise_9.wav,90.67356079143076,30,0.47854013613050306,5,RX81,6,0.0,0.0,7.0,0,0,9.187683284457478,7.688131093978882
0,,2024-07-25 13:25:52,sub_120,3,distance,cathedral,localisation_accuracy,1,2,pinknoise,,,pinknoise_3.wav,89.4269992154843,30,0.3984342429986567,3,RX81,4,0.0,0.0,5.0,0,0,10.111436950146627,6.983509540557861
0,,2024-07-25 13:26:01,sub_120,3,distance,cathedral,localisation_accuracy,1,3,pinknoise,,,pinknoise_6.wav,91.51058773280874,30,-0.11145187191359307,6,RX81,7,0.0,0.0,8.0,0,0,11.093841642228739,7.810448884963989
0,,2024-07-25 13:26:11,sub_120,3,distance,cathedral,localisation_accuracy,1,4,pinknoise,,,pinknoise_8.wav,86.17293722830308,30,-0.045208217374093085,1,RX81,2,0.0,0.0,3.0,0,0,10.521994134897362,8.968169927597046
0,,2024-07-25 13:26:18,sub_120,3,distance,cathedral,localisation_accuracy,1,5,pinknoise,,,pinknoise_9.wav,87.53312232971146,30,-0.054059298341977535,2,RX81,3,0.0,0.0,4.0,0,0,11.665689149560118,5.264700889587402
0,,2024-07-25 13:26:25,sub_120,3,distance,cathedral,localisation_accuracy,1,6,pinknoise,,,pinknoise_3.wav,91.63965282441322,30,-0.13583414792796722,7,RX81,8,0.0,0.0,9.0,0,0,11.885630498533725,6.279257774353027
0,,2024-07-25 13:26:33,sub_120,3,distance,cathedral,localisation_accuracy,1,7,pinknoise,,,pinknoise_4.wav,92.83770748624681,30,-0.22734003940485126,10,RX81,11,0.0,0.0,12.0,0,0,12.193548387096776,6.435947895050049
0,,2024-07-25 13:26:39,sub_120,3,distance,cathedral,localisation_accuracy,1,8,pinknoise,,,pinknoise_9.wav,92.1659964806799,30,0.22562005074768698,9,RX81,10,0.0,0.0,11.0,0,0,12.486803519061585,4.826457500457764
0,,2024-07-25 13:26:47,sub_120,3,distance,cathedral,localisation_accuracy,1,9,pinknoise,,,pinknoise_6.wav,92.33734242521146,30,0.45838696760034237,8,RX81,9,0.0,0.0,10.0,0,0,12.648093841642229,7.125452756881714
0,,2024-07-25 13:26:59,sub_120,3,distance,cathedral,localisation_accuracy,1,10,pinknoise,,,pinknoise_9.wav,89.10454775180696,30,-0.27796012209475507,4,RX81,5,0.0,0.0,6.0,0,0,12.765395894428153,11.097268342971802
0,,2024-07-25 13:27:11,sub_120,3,distance,cathedral,localisation_accuracy,1,11,pinknoise,,,pinknoise_1.wav,91.78671324095889,30,-0.321133330248199,8,RX81,9,0.0,0.0,10.0,0,0,12.296187683284458,10.156290054321289
0,,2024-07-25 13:27:21,sub_120,3,distance,cathedral,localisation_accuracy,1,12,pinknoise,,,pinknoise_9.wav,91.77009116901145,30,0.2593390183809502,6,RX81,7,0.0,0.0,8.0,0,0,11.73900293255132,9.51594090461731
0,,2024-07-25 13:27:30,sub_120,3,distance,cathedral,localisation_accuracy,1,13,pinknoise,,,pinknoise_1.wav,84.48697250704996,30,0.12840077807237193,0,RX81,1,0.0,0.0,2.0,0,0,3.131964809384164,7.439533233642578
0,,2024-07-25 13:27:36,sub_120,3,distance,cathedral,localisation_accuracy,1,14,pinknoise,,,pinknoise_6.wav,89.57503214985047,30,0.3510135121958874,4,RX81,5,0.0,0.0,6.0,0,0,8.29325513196481,4.953921794891357
0,,2024-07-25 13:27:41,sub_120,3,distance,cathedral,localisation_accuracy,1,15,pinknoise,,,pinknoise_4.wav,86.00397200865598,30,-0.2910487648234523,1,RX81,2,0.0,0.0,3.0,0,0,5.463343108504399,3.5150105953216553
0,,2024-07-25 13:27:46,sub_120,3,distance,cathedral,localisation_accuracy,1,16,pinknoise,,,pinknoise_9.wav,91.53552644045715,30,-0.27869023036249707,7,RX81,8,0.0,0.0,9.0,0,0,9.700879765395895,4.000709295272827
0,,2024-07-25 13:27:52,sub_120,3,distance,cathedral,localisation_accuracy,1,17,pinknoise,,,pinknoise_2.wav,87.63872992492836,30,0.09896015944638603,2,RX81,3,0.0,0.0,4.0,0,0,10.712609970674487,4.452805280685425
0,,2024-07-25 13:27:58,sub_120,3,distance,cathedral,localisation_accuracy,1,18,pinknoise,,,pinknoise_0.wav,93.18687941835651,30,0.2638307014400396,10,RX81,11,0.0,0.0,12.0,0,0,11.137829912023461,5.628777027130127
0,,2024-07-25 13:28:04,sub_120,3,distance,cathedral,localisation_accuracy,1,19,pinknoise,,,pinknoise_8.wav,90.41463854214372,30,0.10476011974903787,5,RX81,6,0.0,0.0,7.0,0,0,11.372434017595308,4.093842506408691
0,,2024-07-25 13:28:09,sub_120,3,distance,cathedral,localisation_accuracy,1,20,pinknoise,,,pinknoise_8.wav,91.95740154727447,30,-0.06839445292430413,9,RX81,10,0.0,0.0,11.0,0,0,11.72434017595308,4.264814376831055
0,,2024-07-25 13:28:16,sub_120,3,distance,cathedral,localisation_accuracy,1,21,pinknoise,,,pinknoise_0.wav,89.30848075994433,30,0.2278575901354153,3,RX81,4,0.0,0.0,5.0,0,0,11.885630498533725,5.484888076782227
0,,2024-07-25 13:28:20,sub_120,3,distance,cathedral,localisation_accuracy,1,22,pinknoise,,,pinknoise_3.wav,91.75855570822296,30,-0.3460046070659051,9,RX81,10,0.0,0.0,11.0,0,0,12.193548387096776,3.1716225147247314
0,,2024-07-25 13:28:25,sub_120,3,distance,cathedral,localisation_accuracy,1,23,pinknoise,,,pinknoise_9.wav,86.22672173329264,30,0.03347305720475169,1,RX81,2,0.0,0.0,3.0,0,0,3.8944281524926687,3.54744291305542
0,,2024-07-25 13:28:31,sub_120,3,distance,cathedral,localisation_accuracy,1,24,pinknoise,,,pinknoise_7.wav,91.47710617869893,30,-0.15895980175785973,6,RX81,7,0.0,0.0,8.0,0,0,9.52492668621701,4.468380451202393
0,,2024-07-25 13:28:37,sub_120,3,distance,cathedral,localisation_accuracy,1,25,pinknoise,,,pinknoise_6.wav,84.35671442771269,30,-0.06543467815416149,0,RX81,1,0.0,0.0,2.0,0,0,3.131964809384164,4.782052278518677
0,,2024-07-25 13:28:43,sub_120,3,distance,cathedral,localisation_accuracy,1,26,pinknoise,,,pinknoise_4.wav,89.5606098850444,30,0.33153657554324933,4,RX81,5,0.0,0.0,6.0,0,0,10.214076246334312,5.509085655212402
0,,2024-07-25 13:28:48,sub_120,3,distance,cathedral,localisation_accuracy,1,27,pinknoise,,,pinknoise_2.wav,92.93250883850857,30,-0.09477934742777161,10,RX81,11,0.0,0.0,12.0,0,0,10.565982404692082,3.325409412384033
0,,2024-07-25 13:28:51,sub_120,3,distance,cathedral,localisation_accuracy,1,28,pinknoise,,,pinknoise_3.wav,91.85423711351633,30,-0.22662411573201613,8,RX81,9,0.0,0.0,10.0,0,0,11.093841642228739,2.406412363052368
0,,2024-07-25 13:28:57,sub_120,3,distance,cathedral,localisation_accuracy,1,29,pinknoise,,,pinknoise_7.wav,87.7622649550777,30,0.2789480201558703,2,RX81,3,0.0,0.0,4.0,0,0,11.372434017595308,4.078150749206543
0,,2024-07-25 13:29:05,sub_120,3,distance,cathedral,localisation_accuracy,1,30,pinknoise,,,pinknoise_2.wav,90.36699203222844,30,0.036478696048792725,5,RX81,6,0.0,0.0,7.0,0,0,10.536656891495602,6.8157265186309814
0,,2024-07-25 13:29:10,sub_120,3,distance,cathedral,localisation_accuracy,1,31,pinknoise,,,pinknoise_9.wav,91.52421028107467,30,-0.2941741965622344,7,RX81,8,0.0,0.0,9.0,0,0,11.035190615835777,4.22028112411499
0,,2024-07-25 13:29:15,sub_120,3,distance,cathedral,localisation_accuracy,1,32,pinknoise,,,pinknoise_1.wav,88.88046731579641,30,-0.3802258542279229,3,RX81,4,0.0,0.0,5.0,0,0,11.460410557184751,3.375119209289551
0,,2024-07-25 13:29:19,sub_120,3,distance,cathedral,localisation_accuracy,1,33,pinknoise,,,pinknoise_8.wav,90.54607064875896,30,0.2939190200733339,5,RX81,6,0.0,0.0,7.0,0,0,11.826979472140764,3.188931465148926
0,,2024-07-25 13:29:25,sub_120,3,distance,cathedral,localisation_accuracy,1,34,pinknoise,,,pinknoise_0.wav,87.27612160901829,30,-0.42319668300860414,2,RX81,3,0.0,0.0,4.0,0,0,3.29325513196481,4.8285605907440186
0,,2024-07-25 13:29:32,sub_120,3,distance,cathedral,localisation_accuracy,1,35,pinknoise,,,pinknoise_9.wav,92.03049329548962,30,0.021491850688948766,8,RX81,9,0.0,0.0,10.0,0,0,8.557184750733139,6.204523086547852
0,,2024-07-25 13:29:36,sub_120,3,distance,cathedral,localisation_accuracy,1,36,pinknoise,,,pinknoise_8.wav,89.09380768921237,30,-0.07867544155084916,3,RX81,4,0.0,0.0,5.0,0,0,7.66275659824047,2.725452184677124
0,,2024-07-25 13:29:40,sub_120,3,distance,cathedral,localisation_accuracy,1,37,pinknoise,,,pinknoise_0.wav,92.75072983903094,30,-0.34844392246912503,10,RX81,11,0.0,0.0,12.0,0,0,10.096774193548388,2.5938146114349365
0,,2024-07-25 13:29:45,sub_120,3,distance,cathedral,localisation_accuracy,1,38,pinknoise,,,pinknoise_7.wav,92.18572029482536,30,0.2535697728227502,9,RX81,10,0.0,0.0,11.0,0,0,10.565982404692082,4.329561948776245
0,,2024-07-25 13:29:51,sub_120,3,distance,cathedral,localisation_accuracy,1,39,pinknoise,,,pinknoise_8.wav,84.72727381450389,30,0.48928980078471296,0,RX81,1,0.0,0.0,2.0,0,0,3.513196480938417,4.265874862670898
0,,2024-07-25 13:29:55,sub_120,3,distance,cathedral,localisation_accuracy,1,40,pinknoise,,,pinknoise_8.wav,89.3604060728587,30,0.062453384197894035,4,RX81,5,0.0,0.0,6.0,0,0,8.850439882697948,3.4232070446014404
0,,2024-07-25 13:29:58,sub_120,3,distance,cathedral,localisation_accuracy,1,41,pinknoise,,,pinknoise_4.wav,91.292310978226,30,-0.4198156412986106,6,RX81,7,0.0,0.0,8.0,0,0,9.275659824046922,1.8657445907592773
0,,2024-07-25 13:30:03,sub_120,3,distance,cathedral,localisation_accuracy,1,42,pinknoise,,,pinknoise_9.wav,86.28612301129877,30,0.12061129342517574,1,RX81,2,0.0,0.0,3.0,0,0,3.513196480938417,2.9377803802490234
0,,2024-07-25 13:30:07,sub_120,3,distance,cathedral,localisation_accuracy,1,43,pinknoise,,,pinknoise_4.wav,91.81886099214141,30,0.1116399773622262,7,RX81,8,0.0,0.0,9.0,0,0,9.334310850439884,3.3278307914733887
0,,2024-07-25 13:30:15,sub_120,3,distance,cathedral,localisation_accuracy,1,44,pinknoise,,,pinknoise_4.wav,91.38936314950092,30,-0.28310293743303594,6,RX81,7,0.0,0.0,8.0,0,0,9.319648093841643,6.4368507862091064
0,,2024-07-25 13:30:20,sub_120,3,distance,cathedral,localisation_accuracy,1,45,pinknoise,,,pinknoise_1.wav,92.33780592070075,30,0.46995317714802354,9,RX81,10,0.0,0.0,11.0,0,0,10.096774193548388,4.000436544418335
0,,2024-07-25 13:30:25,sub_120,3,distance,cathedral,localisation_accuracy,1,46,pinknoise,,,pinknoise_8.wav,90.65703210267672,30,0.454541265159203,5,RX81,6,0.0,0.0,7.0,0,0,9.744868035190617,3.8334715366363525
0,,2024-07-25 13:30:30,sub_120,3,distance,cathedral,localisation_accuracy,1,47,pinknoise,,,pinknoise_5.wav,93.27384980690061,30,0.38742492074035917,10,RX81,11,0.0,0.0,12.0,0,0,10.50733137829912,3.621469497680664
0,,2024-07-25 13:30:35,sub_120,3,distance,cathedral,localisation_accuracy,1,48,pinknoise,,,pinknoise_6.wav,86.3125791346695,30,0.1595022269480577,1,RX81,2,0.0,0.0,3.0,0,0,3.777126099706745,4.329217195510864
0,,2024-07-25 13:30:43,sub_120,3,distance,cathedral,localisation_accuracy,1,49,pinknoise,,,pinknoise_8.wav,91.70237329254569,30,-0.43875776395801014,8,RX81,9,0.0,0.0,10.0,0,0,8.073313782991203,6.744091033935547
0,,2024-07-25 13:30:47,sub_120,3,distance,cathedral,localisation_accuracy,1,50,pinknoise,,,pinknoise_5.wav,87.75841178203855,30,0.27331780198966393,2,RX81,3,0.0,0.0,4.0,0,0,4.9501466275659824,2.593949794769287
0,,2024-07-25 13:30:52,sub_120,3,distance,cathedral,localisation_accuracy,1,51,pinknoise,,,pinknoise_2.wav,89.37704745569947,30,0.3264245684419682,3,RX81,4,0.0,0.0,5.0,0,0,8.102639296187684,4.513079404830933
0,,2024-07-25 13:30:57,sub_120,3,distance,cathedral,localisation_accuracy,1,52,pinknoise,,,pinknoise_6.wav,89.46631282359712,30,0.20449821792118061,4,RX81,5,0.0,0.0,6.0,0,0,8.747800586510264,2.954771041870117
0,,2024-07-25 13:31:01,sub_120,3,distance,cathedral,localisation_accuracy,1,53,pinknoise,,,pinknoise_6.wav,91.95889249718422,30,0.30644024286828175,7,RX81,8,0.0,0.0,9.0,0,0,9.158357771260997,3.3908631801605225
0,,2024-07-25 13:31:05,sub_120,3,distance,cathedral,localisation_accuracy,1,54,pinknoise,,,pinknoise_0.wav,84.3042877511144,30,-0.14309775280314907,0,RX81,1,0.0,0.0,2.0,0,0,4.407624633431086,3.1420226097106934
0,,2024-07-25 13:32:41,sub_120,3,distance,cathedral,localisation_accuracy,2,0,pinknoise,,,pinknoise_4.wav,90.12845616561188,30,-0.3030416521337299,5,RX81,6,0.0,0.0,7.0,0,0,8.997067448680353,4.2974231243133545
0,,2024-07-25 13:32:44,sub_120,3,distance,cathedral,localisation_accuracy,2,1,pinknoise,,,pinknoise_0.wav,91.28799121282574,30,-0.42588604446032163,6,RX81,7,0.0,0.0,8.0,0,0,9.52492668621701,2.203216791152954
0,,2024-07-25 13:32:48,sub_120,3,distance,cathedral,localisation_accuracy,2,2,pinknoise,,,pinknoise_9.wav,91.98082067454266,30,-0.04864084140149594,8,RX81,9,0.0,0.0,10.0,0,0,9.8475073313783,2.8198885917663574
0,,2024-07-25 13:32:54,sub_120,3,distance,cathedral,localisation_accuracy,2,3,pinknoise,,,pinknoise_0.wav,93.00200067564552,30,0.0027658036066466885,10,RX81,11,0.0,0.0,12.0,0,0,10.023460410557185,4.499024391174316
0,,2024-07-25 13:33:00,sub_120,3,distance,cathedral,localisation_accuracy,2,4,pinknoise,,,pinknoise_7.wav,91.96746492565835,30,-0.05427600761501006,9,RX81,10,0.0,0.0,11.0,0,0,10.228739002932553,4.876518249511719
0,,2024-07-25 13:33:05,sub_120,3,distance,cathedral,localisation_accuracy,2,5,pinknoise,,,pinknoise_3.wav,87.3580672138574,30,-0.30599272474293804,2,RX81,3,0.0,0.0,4.0,0,0,3.351906158357772,3.828404664993286
0,,2024-07-25 13:33:09,sub_120,3,distance,cathedral,localisation_accuracy,2,6,pinknoise,,,pinknoise_0.wav,91.37820609489728,30,-0.4932305937142205,7,RX81,8,0.0,0.0,9.0,0,0,8.967741935483872,3.0949747562408447
0,,2024-07-25 13:33:13,sub_120,3,distance,cathedral,localisation_accuracy,2,7,pinknoise,,,pinknoise_3.wav,84.18980859445352,30,-0.311983595888364,0,RX81,1,0.0,0.0,2.0,0,0,3.058651026392962,2.6585042476654053
0,,2024-07-25 13:33:18,sub_120,3,distance,cathedral,localisation_accuracy,2,8,pinknoise,,,pinknoise_9.wav,86.48233349403941,30,0.4102414932755166,1,RX81,2,0.0,0.0,3.0,0,0,3.7331378299120237,3.4221558570861816
0,,2024-07-25 13:33:23,sub_120,3,distance,cathedral,localisation_accuracy,2,9,pinknoise,,,pinknoise_3.wav,89.28390477762645,30,-0.039736380062433074,4,RX81,5,0.0,0.0,6.0,0,0,6.12316715542522,4.156286716461182
0,,2024-07-25 13:33:29,sub_120,3,distance,cathedral,localisation_accuracy,2,10,pinknoise,,,pinknoise_1.wav,89.14030405323756,30,-0.012547803084217768,3,RX81,4,0.0,0.0,5.0,0,0,7.897360703812318,4.449882984161377
0,,2024-07-25 13:33:36,sub_120,3,distance,cathedral,localisation_accuracy,2,11,pinknoise,,,pinknoise_2.wav,87.22865402735931,30,-0.49087620520380615,2,RX81,3,0.0,0.0,4.0,0,0,8.219941348973608,5.796706914901733
0,,2024-07-25 13:33:43,sub_120,3,distance,cathedral,localisation_accuracy,2,12,pinknoise,,,pinknoise_6.wav,88.99495332492782,30,-0.21878301609825146,3,RX81,4,0.0,0.0,5.0,0,0,8.58651026392962,6.345016717910767
0,,2024-07-25 13:33:48,sub_120,3,distance,cathedral,localisation_accuracy,2,13,pinknoise,,,pinknoise_1.wav,91.47850202007558,30,-0.15698071200357144,6,RX81,7,0.0,0.0,8.0,0,0,8.92375366568915,3.531522512435913
0,,2024-07-25 13:33:52,sub_120,3,distance,cathedral,localisation_accuracy,2,14,pinknoise,,,pinknoise_3.wav,92.65553608426598,30,-0.48042302650714097,10,RX81,11,0.0,0.0,12.0,0,0,9.378299120234605,2.422041654586792
0,,2024-07-25 13:33:57,sub_120,3,distance,cathedral,localisation_accuracy,2,15,pinknoise,,,pinknoise_2.wav,91.66933458194762,30,-0.4847079156079366,8,RX81,9,0.0,0.0,10.0,0,0,9.730205278592376,4.51569128036499
0,,2024-07-25 13:34:01,sub_120,3,distance,cathedral,localisation_accuracy,2,16,pinknoise,,,pinknoise_3.wav,91.91877784011197,30,0.25050760397933425,7,RX81,8,0.0,0.0,9.0,0,0,10.038123167155426,2.5623531341552734
0,,2024-07-25 13:34:09,sub_120,3,distance,cathedral,localisation_accuracy,2,17,pinknoise,,,pinknoise_7.wav,90.53310296241355,30,0.27520301937631164,5,RX81,6,0.0,0.0,7.0,0,0,10.140762463343108,7.235263109207153
0,,2024-07-25 13:34:15,sub_120,3,distance,cathedral,localisation_accuracy,2,18,pinknoise,,,pinknoise_6.wav,86.44510203298725,30,0.35507011305441916,1,RX81,2,0.0,0.0,3.0,0,0,3.513196480938417,4.548332929611206
0,,2024-07-25 13:34:22,sub_120,3,distance,cathedral,localisation_accuracy,2,19,pinknoise,,,pinknoise_2.wav,89.54844638758794,30,0.31511976833450184,4,RX81,5,0.0,0.0,6.0,0,0,5.448680351906159,5.484642028808594
0,,2024-07-25 13:34:26,sub_120,3,distance,cathedral,localisation_accuracy,2,20,pinknoise,,,pinknoise_7.wav,91.96172499751363,30,-0.06232967186932725,9,RX81,10,0.0,0.0,11.0,0,0,6.489736070381232,3.126131057739258
0,,2024-07-25 13:34:32,sub_120,3,distance,cathedral,localisation_accuracy,2,21,pinknoise,,,pinknoise_8.wav,84.08032044440066,30,-0.47261262364497114,0,RX81,1,0.0,0.0,2.0,0,0,2.618768328445748,4.203491926193237
0,,2024-07-25 13:34:36,sub_120,3,distance,cathedral,localisation_accuracy,2,22,pinknoise,,,pinknoise_1.wav,91.8960036326095,30,0.4409026724981272,6,RX81,7,0.0,0.0,8.0,0,0,6.284457478005866,3.204385280609131
0,,2024-07-25 13:34:41,sub_120,3,distance,cathedral,localisation_accuracy,2,23,pinknoise,,,pinknoise_7.wav,87.57413636695873,30,0.005275119840430942,2,RX81,3,0.0,0.0,4.0,0,0,4.964809384164223,3.6566028594970703
0,,2024-07-25 13:34:44,sub_120,3,distance,cathedral,localisation_accuracy,2,24,pinknoise,,,pinknoise_5.wav,91.51352580271336,30,-0.30878642606380813,7,RX81,8,0.0,0.0,9.0,0,0,7.67741935483871,2.532371997833252
0,,2024-07-25 13:34:50,sub_120,3,distance,cathedral,localisation_accuracy,2,25,pinknoise,,,pinknoise_8.wav,89.25683698057537,30,-0.07581005009141994,4,RX81,5,0.0,0.0,6.0,0,0,8.337243401759531,4.812840700149536
0,,2024-07-25 13:34:55,sub_120,3,distance,cathedral,localisation_accuracy,2,26,pinknoise,,,pinknoise_9.wav,92.0183142757625,30,0.017165137858574098,9,RX81,10,0.0,0.0,11.0,0,0,8.87976539589443,3.4075112342834473
0,,2024-07-25 13:34:59,sub_120,3,distance,cathedral,localisation_accuracy,2,27,pinknoise,,,pinknoise_8.wav,88.83396383219699,30,-0.44555268787944957,3,RX81,4,0.0,0.0,5.0,0,0,9.627565982404693,3.141052484512329
0,,2024-07-25 13:35:04,sub_120,3,distance,cathedral,localisation_accuracy,2,28,pinknoise,,,pinknoise_2.wav,86.36225062899103,30,0.23265583004381907,1,RX81,2,0.0,0.0,3.0,0,0,6.357771260997067,3.3790621757507324
0,,2024-07-25 13:35:09,sub_120,3,distance,cathedral,localisation_accuracy,2,29,pinknoise,,,pinknoise_3.wav,93.0380973852102,30,0.053559968378491196,10,RX81,11,0.0,0.0,12.0,0,0,9.187683284457478,3.6866073608398438
0,,2024-07-25 13:35:13,sub_120,3,distance,cathedral,localisation_accuracy,2,30,pinknoise,,,pinknoise_0.wav,84.35440461919782,30,-0.06886059927817945,0,RX81,1,0.0,0.0,2.0,0,0,3.586510263929619,2.7970962524414062
0,,2024-07-25 13:35:17,sub_120,3,distance,cathedral,localisation_accuracy,2,31,pinknoise,,,pinknoise_6.wav,90.64111921165157,30,0.43145435725932935,5,RX81,6,0.0,0.0,7.0,0,0,6.44574780058651,2.9380252361297607
0,,2024-07-25 13:35:21,sub_120,3,distance,cathedral,localisation_accuracy,2,32,pinknoise,,,pinknoise_9.wav,92.31082307728214,30,0.4203787450329529,8,RX81,9,0.0,0.0,10.0,0,0,7.061583577712611,3.329209566116333
0,,2024-07-25 13:35:25,sub_120,3,distance,cathedral,localisation_accuracy,2,33,pinknoise,,,pinknoise_8.wav,91.58063688167408,30,-0.011812347368350795,6,RX81,7,0.0,0.0,8.0,0,0,7.442815249266863,2.6407246589660645
0,,2024-07-25 13:35:29,sub_120,3,distance,cathedral,localisation_accuracy,2,34,pinknoise,,,pinknoise_8.wav,89.55130641886777,30,0.3189790909833027,4,RX81,5,0.0,0.0,6.0,0,0,8.146627565982405,2.819093942642212
0,,2024-07-25 13:35:33,sub_120,3,distance,cathedral,localisation_accuracy,2,35,pinknoise,,,pinknoise_5.wav,87.63822443568672,30,0.09822587484536383,2,RX81,3,0.0,0.0,4.0,0,0,6.8269794721407635,2.4845454692840576
0,,2024-07-25 13:35:37,sub_120,3,distance,cathedral,localisation_accuracy,2,36,pinknoise,,,pinknoise_7.wav,86.17854124213125,30,-0.03701974267573993,1,RX81,2,0.0,0.0,3.0,0,0,6.167155425219942,3.1401309967041016
0,,2024-07-25 13:35:41,sub_120,3,distance,cathedral,localisation_accuracy,2,37,pinknoise,,,pinknoise_8.wav,84.60734737196901,30,0.3086448685515849,0,RX81,1,0.0,0.0,2.0,0,0,3.395894428152493,3.032728433609009
0,,2024-07-25 13:35:45,sub_120,3,distance,cathedral,localisation_accuracy,2,38,pinknoise,,,pinknoise_9.wav,90.59878191024197,30,0.37011529859264636,5,RX81,6,0.0,0.0,7.0,0,0,5.903225806451613,2.2966575622558594
0,,2024-07-25 13:35:48,sub_120,3,distance,cathedral,localisation_accuracy,2,39,pinknoise,,,pinknoise_1.wav,91.70593606809918,30,-0.04453946521631702,7,RX81,8,0.0,0.0,9.0,0,0,6.988269794721408,2.1720359325408936
0,,2024-07-25 13:35:52,sub_120,3,distance,cathedral,localisation_accuracy,2,40,pinknoise,,,pinknoise_2.wav,89.37988187296311,30,0.33050605113421994,3,RX81,4,0.0,0.0,5.0,0,0,7.340175953079179,3.0636239051818848
0,,2024-07-25 13:35:57,sub_120,3,distance,cathedral,localisation_accuracy,2,41,pinknoise,,,pinknoise_0.wav,92.65421095732918,30,-0.4822560653860746,10,RX81,11,0.0,0.0,12.0,0,0,8.117302052785924,3.7355403900146484
0,,2024-07-25 13:36:01,sub_120,3,distance,cathedral,localisation_accuracy,2,42,pinknoise,,,pinknoise_1.wav,92.11507750737992,30,0.1412942760411101,8,RX81,9,0.0,0.0,10.0,0,0,8.29325513196481,2.251727819442749
0,,2024-07-25 13:36:04,sub_120,3,distance,cathedral,localisation_accuracy,2,43,pinknoise,,,pinknoise_0.wav,92.26882733299688,30,0.3716211433864801,9,RX81,10,0.0,0.0,11.0,0,0,8.777126099706745,2.108536720275879
0,,2024-07-25 13:36:09,sub_120,3,distance,cathedral,localisation_accuracy,2,44,pinknoise,,,pinknoise_5.wav,86.00990689026233,30,-0.28244793424225045,1,RX81,2,0.0,0.0,3.0,0,0,5.536656891495602,3.6016626358032227
0,,2024-07-25 13:36:13,sub_120,3,distance,cathedral,localisation_accuracy,2,45,pinknoise,,,pinknoise_2.wav,89.59848553415875,30,0.3827134778532214,4,RX81,5,0.0,0.0,6.0,0,0,8.234604105571847,3.565242052078247
0,,2024-07-25 13:36:17,sub_120,3,distance,cathedral,localisation_accuracy,2,46,pinknoise,,,pinknoise_5.wav,90.31472360031236,30,-0.03824820618394453,5,RX81,6,0.0,0.0,7.0,0,0,8.718475073313783,2.1876437664031982
0,,2024-07-25 13:36:22,sub_120,3,distance,cathedral,localisation_accuracy,2,47,pinknoise,,,pinknoise_2.wav,92.16932356614183,30,0.2303329014853872,9,RX81,10,0.0,0.0,11.0,0,0,9.099706744868035,4.124114990234375
0,,2024-07-25 13:36:27,sub_120,3,distance,cathedral,localisation_accuracy,2,48,pinknoise,,,pinknoise_0.wav,89.07889380691857,30,-0.09985522493588983,3,RX81,4,0.0,0.0,5.0,0,0,9.612903225806452,4.032456159591675
0,,2024-07-25 13:36:35,sub_120,3,distance,cathedral,localisation_accuracy,2,49,pinknoise,,,pinknoise_7.wav,91.83133301794497,30,-0.25871531912691914,8,RX81,9,0.0,0.0,10.0,0,0,8.95307917888563,6.219651699066162
0,,2024-07-25 13:36:38,sub_120,3,distance,cathedral,localisation_accuracy,2,50,pinknoise,,,pinknoise_9.wav,87.7197368703961,30,0.21686436212717697,2,RX81,3,0.0,0.0,4.0,0,0,9.422287390029327,2.453291416168213
0,,2024-07-25 13:36:42,sub_120,3,distance,cathedral,localisation_accuracy,2,51,pinknoise,,,pinknoise_5.wav,91.74014157718922,30,0.21631188090818965,6,RX81,7,0.0,0.0,8.0,0,0,9.686217008797655,2.2032902240753174
0,,2024-07-25 13:36:46,sub_120,3,distance,cathedral,localisation_accuracy,2,52,pinknoise,,,pinknoise_3.wav,84.61780967083376,30,0.32436150102972117,0,RX81,1,0.0,0.0,2.0,0,0,3.909090909090909,2.7488672733306885
0,,2024-07-25 13:36:55,sub_120,3,distance,cathedral,localisation_accuracy,2,53,pinknoise,,,pinknoise_6.wav,92.9589036122259,30,-0.05776661728313415,10,RX81,11,0.0,0.0,12.0,0,0,8.205278592375366,7.861159801483154
0,,2024-07-25 13:36:59,sub_120,3,distance,cathedral,localisation_accuracy,2,54,pinknoise,,,pinknoise_0.wav,91.92244235363775,30,0.25561281862791296,7,RX81,8,0.0,0.0,9.0,0,0,8.87976539589443,3.328261375427246
0,,2024-07-25 13:38:59,sub_120,3,distance,cathedral,localisation_accuracy,3,0,babble,,,babble-reversed_n13_p318-five-p229-three-p256-four-p268-eight-p248-one-p245-nine.wav,87.2405619653998,30,-0.4739123721190516,2,RX81,3,0.0,0.0,4.0,0,0,3.6011730205278596,7.454078435897827
0,,2024-07-25 13:39:05,sub_120,3,distance,cathedral,localisation_accuracy,3,1,babble,,,babble-reversed_n13_p318-four-p256-five-p229-three-p284-one-p245-eight-p248-nine.wav,91.97238914665134,30,0.32528212277344126,7,RX81,8,0.0,0.0,9.0,0,0,6.035190615835777,4.6977293491363525
0,,2024-07-25 13:39:09,sub_120,3,distance,cathedral,localisation_accuracy,3,2,babble,,,babble-reversed_n13_p256-five-p229-one-p318-three-p248-nine-p284-eight-p268-two.wav,86.19422807383074,30,-0.014086548483675854,1,RX81,2,0.0,0.0,3.0,0,0,3.6598240469208214,3.1351664066314697
0,,2024-07-25 13:39:13,sub_120,3,distance,cathedral,localisation_accuracy,3,3,babble,,,babble-reversed_n13_p318-five-p256-nine-p307-two-p245-eight-p248-one-p284-four.wav,92.70027363110061,30,-0.41847104982246697,10,RX81,11,0.0,0.0,12.0,0,0,7.853372434017595,3.3909034729003906
0,,2024-07-25 13:39:17,sub_120,3,distance,cathedral,localisation_accuracy,3,4,babble,,,babble-reversed_n13_p318-three-p307-one-p256-five-p248-nine-p245-two-p284-eight.wav,84.51167274306974,30,0.16529822022036111,0,RX81,1,0.0,0.0,2.0,0,0,3.6158357771261,2.875886917114258
0,,2024-07-25 13:39:25,sub_120,3,distance,cathedral,localisation_accuracy,3,5,babble,,,babble-reversed_n13_p229-one-p318-eight-p256-three-p268-nine-p248-five-p284-four.wav,91.59890726271291,30,0.014230436011449576,6,RX81,7,0.0,0.0,8.0,0,0,6.460410557184751,6.454614639282227
0,,2024-07-25 13:39:29,sub_120,3,distance,cathedral,localisation_accuracy,3,6,babble,,,babble-reversed_n13_p229-two-p307-five-p318-four-p284-one-p248-nine-p268-eight.wav,92.32320970614914,30,0.44911910514052344,9,RX81,10,0.0,0.0,11.0,0,0,8.058651026392962,3.430593490600586
0,,2024-07-25 13:39:35,sub_120,3,distance,cathedral,localisation_accuracy,3,7,babble,,,babble-reversed_n13_p229-three-p256-nine-p318-five-p248-one-p245-eight-p284-two.wav,89.04411891341707,30,-0.3577949348089017,4,RX81,5,0.0,0.0,6.0,0,0,5.624633431085044,4.075904130935669
0,,2024-07-25 13:39:40,sub_120,3,distance,cathedral,localisation_accuracy,3,8,babble,,,babble-reversed_n13_p318-five-p229-four-p256-eight-p284-one-p245-three-p248-two.wav,89.35297815527065,30,0.29178756691134866,3,RX81,4,0.0,0.0,5.0,0,0,7.07624633431085,4.670874357223511
0,,2024-07-25 13:39:45,sub_120,3,distance,cathedral,localisation_accuracy,3,9,babble,,,babble-reversed_n13_p256-two-p307-five-p318-nine-p248-eight-p245-four-p284-one.wav,92.09958855308682,30,0.11932050606229039,8,RX81,9,0.0,0.0,10.0,0,0,7.8240469208211145,3.423424482345581
0,,2024-07-25 13:39:51,sub_120,3,distance,cathedral,localisation_accuracy,3,10,babble,,,babble-reversed_n13_p256-eight-p229-three-p307-nine-p245-five-p248-four-p268-two.wav,90.37669275914624,30,0.050368079747650674,5,RX81,6,0.0,0.0,7.0,0,0,8.146627565982405,4.547199010848999
0,,2024-07-25 13:39:55,sub_120,3,distance,cathedral,localisation_accuracy,3,11,babble,,,babble-reversed_n13_p256-four-p229-eight-p307-five-p248-three-p245-one-p284-two.wav,87.56672053654037,30,-0.0054619554074827326,2,RX81,3,0.0,0.0,4.0,0,0,3.234604105571848,2.9808642864227295
0,,2024-07-25 13:39:58,sub_120,3,distance,cathedral,localisation_accuracy,3,12,babble,,,babble-reversed_n13_p256-eight-p229-three-p307-nine-p245-five-p248-four-p268-two.wav,89.3950678898622,30,0.3523828539832411,3,RX81,4,0.0,0.0,5.0,0,0,4.202346041055719,2.281420946121216
0,,2024-07-25 13:40:02,sub_120,3,distance,cathedral,localisation_accuracy,3,13,babble,,,babble-reversed_n13_p307-five-p229-three-p318-nine-p245-four-p268-eight-p284-two.wav,91.67655385274324,30,-0.45973679362556175,9,RX81,10,0.0,0.0,11.0,0,0,5.5659824046920825,2.3923637866973877
0,,2024-07-25 13:40:07,sub_120,3,distance,cathedral,localisation_accuracy,3,14,babble,,,babble-reversed_n13_p307-five-p229-two-p318-four-p248-three-p245-nine-p268-eight.wav,92.80922824575131,30,-0.26704765603417424,10,RX81,11,0.0,0.0,12.0,0,0,6.269794721407624,3.9857027530670166
0,,2024-07-25 13:40:13,sub_120,3,distance,cathedral,localisation_accuracy,3,15,babble,,,babble-reversed_n13_p307-five-p229-two-p318-four-p248-three-p245-nine-p268-eight.wav,91.70913813937477,30,-0.42934041316195115,8,RX81,9,0.0,0.0,10.0,0,0,6.284457478005866,4.9536004066467285
0,,2024-07-25 13:40:18,sub_120,3,distance,cathedral,localisation_accuracy,3,16,babble,,,babble-reversed_n13_p318-five-p229-four-p256-eight-p284-one-p245-three-p248-two.wav,84.32271294416623,30,-0.11582629587802606,0,RX81,1,0.0,0.0,2.0,0,0,3.1173020527859236,3.8421592712402344
0,,2024-07-25 13:40:23,sub_120,3,distance,cathedral,localisation_accuracy,3,17,babble,,,babble-reversed_n13_p318-nine-p307-eight-p229-two-p284-one-p248-three-p245-five.wav,92.01928164583495,30,0.3908370873527728,7,RX81,8,0.0,0.0,9.0,0,0,4.935483870967742,3.64107608795166
0,,2024-07-25 13:40:26,sub_120,3,distance,cathedral,localisation_accuracy,3,18,babble,,,babble-reversed_n13_p229-one-p318-eight-p256-three-p268-nine-p248-five-p284-four.wav,91.76564480239247,30,0.25294726665495537,6,RX81,7,0.0,0.0,8.0,0,0,4.9208211143695015,2.8128058910369873
0,,2024-07-25 13:40:31,sub_120,3,distance,cathedral,localisation_accuracy,3,19,babble,,,babble-reversed_n13_p229-five-p256-three-p318-nine-p248-two-p284-four-p268-one.wav,86.0540616901637,30,-0.2183805738767307,1,RX81,2,0.0,0.0,3.0,0,0,3.7917888563049855,3.0323314666748047
0,,2024-07-25 13:40:34,sub_120,3,distance,cathedral,localisation_accuracy,3,20,babble,,,babble-reversed_n13_p229-three-p256-nine-p318-five-p248-one-p245-eight-p284-two.wav,89.15207230605924,30,-0.2150226274987449,4,RX81,5,0.0,0.0,6.0,0,0,5.859237536656892,2.643488645553589
0,,2024-07-25 13:40:40,sub_120,3,distance,cathedral,localisation_accuracy,3,21,babble,,,babble-reversed_n13_p307-two-p256-four-p318-three-p284-eight-p248-five-p245-nine.wav,90.30229581233482,30,-0.0559885372006913,5,RX81,6,0.0,0.0,7.0,0,0,4.935483870967742,4.639636754989624
0,,2024-07-25 13:40:47,sub_120,3,distance,cathedral,localisation_accuracy,3,22,babble,,,babble-reversed_n13_p229-three-p307-one-p318-two-p245-eight-p268-five-p284-four.wav,91.8828996898356,30,0.20056946424024225,7,RX81,8,0.0,0.0,9.0,0,0,6.533724340175954,5.345123767852783
0,,2024-07-25 13:40:54,sub_120,3,distance,cathedral,localisation_accuracy,3,23,babble,,,babble-reversed_n13_p318-five-p229-four-p256-eight-p284-one-p245-three-p248-two.wav,91.36668269581996,30,-0.31510826578075757,6,RX81,7,0.0,0.0,8.0,0,0,6.093841642228739,6.322450160980225
0,,2024-07-25 13:40:58,sub_120,3,distance,cathedral,localisation_accuracy,3,24,babble,,,babble-reversed_n13_p229-one-p318-nine-p256-four-p284-eight-p268-five-p245-two.wav,92.3508278574013,30,0.48855221742946287,9,RX81,10,0.0,0.0,11.0,0,0,7.325513196480939,2.906482219696045
0,,2024-07-25 13:41:05,sub_120,3,distance,cathedral,localisation_accuracy,3,25,babble,,,babble-reversed_n13_p229-two-p318-eight-p256-three-p268-one-p248-nine-p284-five.wav,89.57088729008595,30,0.3454146941541646,4,RX81,5,0.0,0.0,6.0,0,0,7.560117302052786,5.730312347412109
0,,2024-07-25 13:41:09,sub_120,3,distance,cathedral,localisation_accuracy,3,26,babble,,,babble-reversed_n13_p256-four-p229-eight-p307-five-p248-three-p245-one-p284-two.wav,89.44907908503778,30,0.43031870708054365,3,RX81,4,0.0,0.0,5.0,0,0,6.12316715542522,3.214744806289673
0,,2024-07-25 13:41:14,sub_120,3,distance,cathedral,localisation_accuracy,3,27,babble,,,babble-reversed_n13_p256-three-p318-one-p307-two-p284-nine-p268-four-p245-eight.wav,93.11630531932136,30,0.16390692598235457,10,RX81,11,0.0,0.0,12.0,0,0,7.457478005865104,3.789750814437866
0,,2024-07-25 13:41:20,sub_120,3,distance,cathedral,localisation_accuracy,3,28,babble,,,babble-reversed_n13_p318-three-p229-one-p256-eight-p245-five-p248-four-p284-nine.wav,87.76817030410419,30,0.2875788896920888,2,RX81,3,0.0,0.0,4.0,0,0,4.730205278592376,5.062350749969482
0,,2024-07-25 13:41:25,sub_120,3,distance,cathedral,localisation_accuracy,3,29,babble,,,babble-reversed_n13_p318-four-p256-five-p229-three-p284-one-p245-eight-p248-nine.wav,84.22814727300326,30,-0.255530965214803,0,RX81,1,0.0,0.0,2.0,0,0,3.0733137829912023,3.4628820419311523
0,,2024-07-25 13:41:29,sub_120,3,distance,cathedral,localisation_accuracy,3,30,babble,,,babble-reversed_n13_p229-nine-p256-four-p318-three-p268-eight-p248-two-p284-five.wav,90.29200666536161,30,-0.07066806761010669,5,RX81,6,0.0,0.0,7.0,0,0,3.454545454545455,3.164170742034912
0,,2024-07-25 13:41:34,sub_120,3,distance,cathedral,localisation_accuracy,3,31,babble,,,babble-reversed_n13_p256-eight-p318-two-p307-five-p245-four-p268-nine-p284-one.wav,85.95331145729176,30,-0.3643647978810035,1,RX81,2,0.0,0.0,3.0,0,0,2.838709677419355,3.5784199237823486
0,,2024-07-25 13:41:41,sub_120,3,distance,cathedral,localisation_accuracy,3,32,babble,,,babble-reversed_n13_p256-three-p318-one-p307-two-p284-nine-p268-four-p245-eight.wav,91.7542702931191,30,-0.36643507093671557,8,RX81,9,0.0,0.0,10.0,0,0,6.299120234604105,6.122743368148804
0,,2024-07-25 13:41:46,sub_120,3,distance,cathedral,localisation_accuracy,3,33,babble,,,babble-reversed_n13_p229-two-p318-eight-p256-three-p268-one-p248-nine-p284-five.wav,89.4030949863857,30,0.3639529717524719,3,RX81,4,0.0,0.0,5.0,0,0,6.768328445747802,3.3452789783477783
0,,2024-07-25 13:41:50,sub_120,3,distance,cathedral,localisation_accuracy,3,34,babble,,,babble-reversed_n13_p229-five-p256-three-p318-nine-p248-two-p284-four-p268-one.wav,91.77142806569222,30,0.045939507999425255,7,RX81,8,0.0,0.0,9.0,0,0,7.193548387096774,3.164339065551758
0,,2024-07-25 13:41:55,sub_120,3,distance,cathedral,localisation_accuracy,3,35,babble,,,babble-reversed_n13_p229-five-p318-two-p307-eight-p268-three-p248-four-p245-one.wav,89.1502916365624,30,-0.21738319681347817,4,RX81,5,0.0,0.0,6.0,0,0,7.574780058651028,4.016804218292236
0,,2024-07-25 13:42:00,sub_120,3,distance,cathedral,localisation_accuracy,3,36,babble,,,babble-reversed_n13_p229-three-p256-nine-p318-five-p248-one-p245-eight-p284-two.wav,84.07273508469788,30,-0.4837087876092502,0,RX81,1,0.0,0.0,2.0,0,0,3.2785923753665696,3.4062466621398926
0,,2024-07-25 13:42:05,sub_120,3,distance,cathedral,localisation_accuracy,3,37,babble,,,babble-reversed_n13_p229-two-p307-five-p318-four-p284-one-p248-nine-p268-eight.wav,92.73707467974201,30,-0.36741198021832877,10,RX81,11,0.0,0.0,12.0,0,0,5.653958944281525,4.001588344573975
0,,2024-07-25 13:42:08,sub_120,3,distance,cathedral,localisation_accuracy,3,38,babble,,,babble-reversed_n13_p307-nine-p318-two-p256-one-p245-three-p268-four-p248-eight.wav,87.68709890838858,30,0.16930492169090727,2,RX81,3,0.0,0.0,4.0,0,0,5.008797653958944,2.687711000442505
0,,2024-07-25 13:42:12,sub_120,3,distance,cathedral,localisation_accuracy,3,39,babble,,,babble-reversed_n13_p256-nine-p307-four-p229-one-p284-three-p248-two-p245-five.wav,92.28428864971994,30,0.3823963798570179,8,RX81,9,0.0,0.0,10.0,0,0,6.328445747800586,2.0967259407043457
0,,2024-07-25 13:42:16,sub_120,3,distance,cathedral,localisation_accuracy,3,40,babble,,,babble-reversed_n13_p307-five-p229-two-p318-four-p248-three-p245-nine-p268-eight.wav,91.75329468316434,30,-0.35331449479056476,9,RX81,10,0.0,0.0,11.0,0,0,6.797653958944283,2.7667806148529053
0,,2024-07-25 13:42:20,sub_120,3,distance,cathedral,localisation_accuracy,3,41,babble,,,babble-reversed_n13_p229-nine-p318-one-p307-two-p248-eight-p245-five-p284-four.wav,86.17161653364442,30,-0.04713766455644974,1,RX81,2,0.0,0.0,3.0,0,0,3.6158357771261,3.097517490386963
0,,2024-07-25 13:42:23,sub_120,3,distance,cathedral,localisation_accuracy,3,42,babble,,,babble-reversed_n13_p318-nine-p307-eight-p229-two-p284-one-p248-three-p245-five.wav,91.5165494118749,30,-0.10298474665735868,6,RX81,7,0.0,0.0,8.0,0,0,4.304985337243402,2.37515926361084
0,,2024-07-25 13:42:28,sub_120,3,distance,cathedral,localisation_accuracy,3,43,babble,,,babble-reversed_n13_p307-two-p256-four-p318-three-p284-eight-p248-five-p245-nine.wav,90.35019383294659,30,0.012442418769542218,5,RX81,6,0.0,0.0,7.0,0,0,5.302052785923754,3.7471981048583984
0,,2024-07-25 13:42:32,sub_120,3,distance,cathedral,localisation_accuracy,3,44,babble,,,babble-reversed_n13_p229-nine-p256-four-p318-three-p268-eight-p248-two-p284-five.wav,84.30311873528956,30,-0.14482719414618883,0,RX81,1,0.0,0.0,2.0,0,0,3.6891495601173023,2.8152081966400146
0,,2024-07-25 13:42:37,sub_120,3,distance,cathedral,localisation_accuracy,3,45,babble,,,babble-reversed_n13_p256-four-p229-two-p318-five-p268-one-p248-eight-p245-three.wav,91.42920264304799,30,-0.22680021132254846,6,RX81,7,0.0,0.0,8.0,0,0,5.683284457478006,3.6567282676696777
0,,2024-07-25 13:42:42,sub_120,3,distance,cathedral,localisation_accuracy,3,46,babble,,,babble-reversed_n13_p229-nine-p256-four-p318-three-p268-eight-p248-two-p284-five.wav,86.26374947632718,30,0.08776097302126895,1,RX81,2,0.0,0.0,3.0,0,0,3.263929618768329,3.9231808185577393
0,,2024-07-25 13:42:49,sub_120,3,distance,cathedral,localisation_accuracy,3,47,babble,,,babble-reversed_n13_p318-three-p307-one-p256-five-p248-nine-p245-two-p284-eight.wav,92.6548769544014,30,-0.48133481049436977,10,RX81,11,0.0,0.0,12.0,0,0,5.829912023460411,6.031820297241211
0,,2024-07-25 13:42:54,sub_120,3,distance,cathedral,localisation_accuracy,3,48,babble,,,babble-reversed_n13_p229-five-p318-two-p307-eight-p268-three-p248-four-p245-one.wav,91.85908729205586,30,-0.21982403092081582,8,RX81,9,0.0,0.0,10.0,0,0,8.322580645161292,4.065896272659302
0,,2024-07-25 13:43:01,sub_120,3,distance,cathedral,localisation_accuracy,3,49,babble,,,babble-reversed_n13_p307-five-p229-three-p318-nine-p245-four-p268-eight-p284-two.wav,91.72528793130942,30,-0.01783273750391945,7,RX81,8,0.0,0.0,9.0,0,0,8.043988269794722,5.9362359046936035
0,,2024-07-25 13:43:06,sub_120,3,distance,cathedral,localisation_accuracy,3,50,babble,,,babble-reversed_n13_p229-five-p256-three-p318-nine-p248-two-p284-four-p268-one.wav,87.82466558558619,30,0.37027312744292373,2,RX81,3,0.0,0.0,4.0,0,0,5.331378299120235,3.8137919902801514
0,,2024-07-25 13:43:11,sub_120,3,distance,cathedral,localisation_accuracy,3,51,babble,,,babble-reversed_n13_p307-five-p229-three-p318-nine-p245-four-p268-eight-p284-two.wav,88.8478832000547,30,-0.42601426019802724,3,RX81,4,0.0,0.0,5.0,0,0,6.475073313782993,4.0160558223724365
0,,2024-07-25 13:43:18,sub_120,3,distance,cathedral,localisation_accuracy,3,52,babble,,,babble-reversed_n13_p256-eight-p229-three-p307-nine-p245-five-p248-four-p268-two.wav,89.49840842576025,30,0.2476780324369191,4,RX81,5,0.0,0.0,6.0,0,0,8.161290322580646,5.814036846160889
0,,2024-07-25 13:43:23,sub_120,3,distance,cathedral,localisation_accuracy,3,53,babble,,,babble-reversed_n13_p256-nine-p307-four-p229-one-p284-three-p248-two-p245-five.wav,90.22067762015668,30,-0.1722355692077021,5,RX81,6,0.0,0.0,7.0,0,0,7.574780058651028,3.438918352127075
0,,2024-07-25 13:43:28,sub_120,3,distance,cathedral,localisation_accuracy,3,54,babble,,,babble-reversed_n13_p256-four-p229-two-p318-five-p268-one-p248-eight-p245-three.wav,92.32691553375693,30,0.4544073104682732,9,RX81,10,0.0,0.0,11.0,0,0,8.674486803519063,4.110698699951172
0,,2024-07-25 13:45:40,sub_120,3,distance,cathedral,localisation_accuracy,4,0,babble,,,babble-reversed_n13_p256-two-p307-five-p318-nine-p248-eight-p245-four-p284-one.wav,87.83538534016725,30,0.3859894957243458,2,RX81,3,0.0,0.0,4.0,0,0,4.407624633431086,4.8326170444488525
0,,2024-07-25 13:45:44,sub_120,3,distance,cathedral,localisation_accuracy,4,1,babble,,,babble-reversed_n13_p318-five-p229-three-p256-four-p268-eight-p248-one-p245-nine.wav,92.86707160298079,30,-0.18634314418164644,10,RX81,11,0.0,0.0,12.0,0,0,8.513196480938417,3.015867233276367
0,,2024-07-25 13:45:49,sub_120,3,distance,cathedral,localisation_accuracy,4,2,babble,,,babble-reversed_n13_p256-eight-p229-three-p307-nine-p245-five-p248-four-p268-two.wav,89.16803060077045,30,-0.19385893816759436,4,RX81,5,0.0,0.0,6.0,0,0,9.055718475073315,4.366337776184082
0,,2024-07-25 13:45:54,sub_120,3,distance,cathedral,localisation_accuracy,4,3,babble,,,babble-reversed_n13_p307-five-p229-three-p318-nine-p245-four-p268-eight-p284-two.wav,91.99858421212431,30,-0.010574964704752388,9,RX81,10,0.0,0.0,11.0,0,0,9.436950146627566,3.031327724456787
0,,2024-07-25 13:45:58,sub_120,3,distance,cathedral,localisation_accuracy,4,4,babble,,,babble-reversed_n13_p307-two-p256-four-p318-three-p284-eight-p248-five-p245-nine.wav,86.0411884611278,30,-0.23707351461156068,1,RX81,2,0.0,0.0,3.0,0,0,3.425219941348974,3.0278213024139404
0,,2024-07-25 13:46:01,sub_120,3,distance,cathedral,localisation_accuracy,4,5,babble,,,babble-reversed_n13_p229-one-p318-eight-p256-three-p268-two-p245-five-p248-nine.wav,91.47825098650054,30,-0.1573366489289102,6,RX81,7,0.0,0.0,8.0,0,0,4.392961876832845,2.563594341278076
0,,2024-07-25 13:46:07,sub_120,3,distance,cathedral,localisation_accuracy,4,6,babble,,,babble-reversed_n13_p318-four-p256-five-p229-three-p284-one-p245-eight-p248-nine.wav,90.2865045932024,30,-0.07851492307223684,5,RX81,6,0.0,0.0,7.0,0,0,4.158357771260998,4.484557867050171
0,,2024-07-25 13:46:12,sub_120,3,distance,cathedral,localisation_accuracy,4,7,babble,,,babble-reversed_n13_p318-three-p307-one-p256-five-p248-nine-p245-two-p284-eight.wav,92.31916385322268,30,0.43232784751003095,8,RX81,9,0.0,0.0,10.0,0,0,5.331378299120235,3.4229254722595215
0,,2024-07-25 13:46:15,sub_120,3,distance,cathedral,localisation_accuracy,4,8,babble,,,babble-reversed_n13_p256-eight-p229-three-p307-nine-p245-five-p248-four-p268-two.wav,91.58746407364895,30,-0.20752007315662035,7,RX81,8,0.0,0.0,9.0,0,0,5.80058651026393,2.221257209777832
0,,2024-07-25 13:46:19,sub_120,3,distance,cathedral,localisation_accuracy,4,9,babble,,,babble-reversed_n13_p307-one-p318-five-p229-four-p268-eight-p284-two-p245-three.wav,84.13413263898917,30,-0.39377416116169295,0,RX81,1,0.0,0.0,2.0,0,0,2.5894428152492672,2.7657124996185303
0,,2024-07-25 13:46:23,sub_120,3,distance,cathedral,localisation_accuracy,4,10,babble,,,babble-reversed_n13_p229-five-p256-three-p318-nine-p248-two-p284-four-p268-one.wav,89.37822431479725,30,0.3281191464037382,3,RX81,4,0.0,0.0,5.0,0,0,4.510263929618769,2.593024492263794
0,,2024-07-25 13:46:29,sub_120,3,distance,cathedral,localisation_accuracy,4,11,babble,,,babble-reversed_n13_p307-nine-p229-one-p256-eight-p248-four-p284-two-p268-three.wav,87.74356820543046,30,0.2516382982764115,2,RX81,3,0.0,0.0,4.0,0,0,4.994134897360704,5.172873258590698
0,,2024-07-25 13:46:33,sub_120,3,distance,cathedral,localisation_accuracy,4,12,babble,,,babble-reversed_n13_p318-five-p229-three-p256-four-p268-eight-p248-one-p245-nine.wav,89.28169919084552,30,-0.042677426199202784,4,RX81,5,0.0,0.0,6.0,0,0,6.416422287390029,2.8912580013275146
0,,2024-07-25 13:46:39,sub_120,3,distance,cathedral,localisation_accuracy,4,13,babble,,,babble-reversed_n13_p256-five-p307-nine-p318-three-p284-eight-p268-one-p248-two.wav,91.75513853201434,30,-0.35075277938678784,9,RX81,10,0.0,0.0,11.0,0,0,6.782991202346041,4.62635350227356
0,,2024-07-25 13:46:44,sub_120,3,distance,cathedral,localisation_accuracy,4,14,babble,,,babble-reversed_n13_p256-nine-p307-four-p229-one-p284-three-p248-two-p245-five.wav,89.44585834734741,30,0.4256657141581158,3,RX81,4,0.0,0.0,5.0,0,0,6.12316715542522,3.937941551208496
0,,2024-07-25 13:46:49,sub_120,3,distance,cathedral,localisation_accuracy,4,15,babble,,,babble-reversed_n13_p307-two-p256-four-p318-three-p284-eight-p248-five-p245-nine.wav,92.32669271029096,30,0.4431178150573756,8,RX81,9,0.0,0.0,10.0,0,0,6.460410557184751,4.3754189014434814
0,,2024-07-25 13:46:55,sub_120,3,distance,cathedral,localisation_accuracy,4,16,babble,,,babble-reversed_n13_p229-three-p256-nine-p318-five-p248-one-p245-eight-p284-two.wav,91.55666269545875,30,-0.0459511149294638,6,RX81,7,0.0,0.0,8.0,0,0,5.712609970674487,4.353365659713745
0,,2024-07-25 13:46:59,sub_120,3,distance,cathedral,localisation_accuracy,4,17,babble,,,babble-reversed_n13_p307-one-p318-five-p229-four-p268-eight-p284-two-p245-three.wav,84.09031710598387,30,-0.45798274047513854,0,RX81,1,0.0,0.0,2.0,0,0,2.457478005865103,3.0938539505004883
0,,2024-07-25 13:47:04,sub_120,3,distance,cathedral,localisation_accuracy,4,18,babble,,,babble-reversed_n13_p256-eight-p229-three-p307-nine-p245-five-p248-four-p268-two.wav,90.23388330504167,30,-0.1534576447017999,5,RX81,6,0.0,0.0,7.0,0,0,5.829912023460411,3.931913375854492
0,,2024-07-25 13:47:07,sub_120,3,distance,cathedral,localisation_accuracy,4,19,babble,,,babble-reversed_n13_p307-four-p318-three-p256-eight-p284-two-p245-nine-p248-five.wav,91.7019827860021,30,-0.04999230381338704,7,RX81,8,0.0,0.0,9.0,0,0,6.621700879765397,2.3430047035217285
0,,2024-07-25 13:47:11,sub_120,3,distance,cathedral,localisation_accuracy,4,20,babble,,,babble-reversed_n13_p307-five-p229-three-p318-nine-p245-four-p268-eight-p284-two.wav,92.92635469171837,30,-0.10340257383011986,10,RX81,11,0.0,0.0,12.0,0,0,7.516129032258066,2.6728506088256836
0,,2024-07-25 13:47:16,sub_120,3,distance,cathedral,localisation_accuracy,4,21,babble,,,babble-reversed_n13_p229-five-p256-three-p318-nine-p248-two-p284-four-p268-one.wav,86.48436980161159,30,0.41326188288018484,1,RX81,2,0.0,0.0,3.0,0,0,3.3372434017595314,4.016980409622192
0,,2024-07-25 13:47:20,sub_120,3,distance,cathedral,localisation_accuracy,4,22,babble,,,babble-reversed_n13_p256-nine-p307-four-p229-one-p284-three-p248-two-p245-five.wav,92.29343378863524,30,0.40666227330527593,9,RX81,10,0.0,0.0,11.0,0,0,5.463343108504399,2.686175584793091
0,,2024-07-25 13:47:24,sub_120,3,distance,cathedral,localisation_accuracy,4,23,babble,,,babble-reversed_n13_p307-four-p318-three-p256-eight-p284-two-p245-nine-p248-five.wav,87.50057511938475,30,-0.10106136890147888,2,RX81,3,0.0,0.0,4.0,0,0,4.055718475073314,2.6875839233398438
0,,2024-07-25 13:47:28,sub_120,3,distance,cathedral,localisation_accuracy,4,24,babble,,,babble-reversed_n13_p307-two-p229-one-p256-five-p248-nine-p284-three-p268-eight.wav,89.29634434869163,30,-0.023143390291668564,4,RX81,5,0.0,0.0,6.0,0,0,5.360703812316716,2.859147548675537
0,,2024-07-25 13:47:34,sub_120,3,distance,cathedral,localisation_accuracy,4,25,babble,,,babble-reversed_n13_p229-three-p256-nine-p318-five-p248-one-p245-eight-p284-two.wav,93.34859000428682,30,0.4940419205199881,10,RX81,11,0.0,0.0,12.0,0,0,7.780058651026394,5.141808986663818
0,,2024-07-25 13:47:38,sub_120,3,distance,cathedral,localisation_accuracy,4,26,babble,,,babble-reversed_n13_p318-five-p229-four-p256-eight-p284-one-p245-three-p248-two.wav,91.53301401828321,30,-0.07958828796146855,6,RX81,7,0.0,0.0,8.0,0,0,8.219941348973608,3.0660362243652344
0,,2024-07-25 13:47:43,sub_120,3,distance,cathedral,localisation_accuracy,4,27,babble,,,babble-reversed_n13_p318-four-p256-five-p229-three-p284-one-p245-eight-p248-nine.wav,88.98559471072474,30,-0.23201305869347488,3,RX81,4,0.0,0.0,5.0,0,0,7.325513196480939,3.5312602519989014
0,,2024-07-25 13:47:49,sub_120,3,distance,cathedral,localisation_accuracy,4,28,babble,,,babble-reversed_n13_p256-eight-p318-five-p307-four-p245-three-p268-one-p284-nine.wav,92.1801060137972,30,0.23372357286739165,8,RX81,9,0.0,0.0,10.0,0,0,8.894428152492669,5.0012640953063965
0,,2024-07-25 13:47:55,sub_120,3,distance,cathedral,localisation_accuracy,4,29,babble,,,babble-reversed_n13_p256-three-p318-one-p307-two-p284-nine-p268-four-p245-eight.wav,90.38445662329627,30,0.06148891373626453,5,RX81,6,0.0,0.0,7.0,0,0,8.219941348973608,4.325645685195923
0,,2024-07-25 13:47:59,sub_120,3,distance,cathedral,localisation_accuracy,4,30,babble,,,babble-reversed_n13_p256-three-p318-two-p229-nine-p248-four-p284-one-p268-eight.wav,91.70369507003065,30,-0.04763063913977317,7,RX81,8,0.0,0.0,9.0,0,0,8.850439882697948,3.2032337188720703
0,,2024-07-25 13:48:06,sub_120,3,distance,cathedral,localisation_accuracy,4,31,babble,,,babble-reversed_n13_p307-nine-p318-two-p256-one-p245-three-p268-four-p248-eight.wav,86.10245514490256,30,-0.1480043886174225,1,RX81,2,0.0,0.0,3.0,0,0,3.058651026392962,6.001855850219727
0,,2024-07-25 13:48:09,sub_120,3,distance,cathedral,localisation_accuracy,4,32,babble,,,babble-reversed_n13_p229-three-p307-one-p318-two-p245-eight-p268-five-p284-four.wav,84.71857505385884,30,0.47615073842997313,0,RX81,1,0.0,0.0,2.0,0,0,2.7214076246334313,2.3438165187835693
0,,2024-07-25 13:48:14,sub_120,3,distance,cathedral,localisation_accuracy,4,33,babble,,,babble-reversed_n13_p229-three-p256-nine-p318-five-p248-one-p245-eight-p284-two.wav,91.86896703544411,30,-0.19217798657380625,9,RX81,10,0.0,0.0,11.0,0,0,6.841642228739003,2.9512341022491455
0,,2024-07-25 13:48:18,sub_120,3,distance,cathedral,localisation_accuracy,4,34,babble,,,babble-reversed_n13_p229-one-p318-nine-p256-four-p284-eight-p268-five-p245-two.wav,89.45412622124354,30,0.43761172538702664,3,RX81,4,0.0,0.0,5.0,0,0,5.8885630498533725,3.0768823623657227
0,,2024-07-25 13:48:22,sub_120,3,distance,cathedral,localisation_accuracy,4,35,babble,,,babble-reversed_n13_p229-eight-p256-nine-p318-four-p245-three-p268-five-p284-two.wav,92.3369275245144,30,0.45779195555846464,8,RX81,9,0.0,0.0,10.0,0,0,6.812316715542522,2.797731399536133
0,,2024-07-25 13:48:25,sub_120,3,distance,cathedral,localisation_accuracy,4,36,babble,,,babble-reversed_n13_p256-eight-p318-two-p307-five-p245-four-p268-nine-p284-one.wav,84.15265957128457,30,-0.3665822831205304,0,RX81,1,0.0,0.0,2.0,0,0,2.516129032258065,2.6746268272399902
0,,2024-07-25 13:48:30,sub_120,3,distance,cathedral,localisation_accuracy,4,37,babble,,,babble-reversed_n13_p256-three-p318-two-p229-nine-p248-four-p284-one-p268-eight.wav,90.35951422877227,30,0.025776449132784318,5,RX81,6,0.0,0.0,7.0,0,0,5.785923753665689,3.00007963180542
0,,2024-07-25 13:48:34,sub_120,3,distance,cathedral,localisation_accuracy,4,38,babble,,,babble-reversed_n13_p229-three-p307-one-p318-two-p245-eight-p268-five-p284-four.wav,92.66451961442542,30,-0.46799316965514226,10,RX81,11,0.0,0.0,12.0,0,0,7.310850439882698,2.8125898838043213
0,,2024-07-25 13:48:38,sub_120,3,distance,cathedral,localisation_accuracy,4,39,babble,,,babble-reversed_n13_p229-five-p318-three-p307-two-p245-four-p284-nine-p248-eight.wav,91.44653168686457,30,-0.40024474902703155,7,RX81,8,0.0,0.0,9.0,0,0,8.102639296187684,3.358839988708496
0,,2024-07-25 13:48:42,sub_120,3,distance,cathedral,localisation_accuracy,4,40,babble,,,babble-reversed_n13_p256-four-p229-eight-p307-five-p248-three-p245-one-p284-two.wav,85.99593329336764,30,-0.30269450211768256,1,RX81,2,0.0,0.0,3.0,0,0,2.7947214076246336,2.485569477081299
0,,2024-07-25 13:48:44,sub_120,3,distance,cathedral,localisation_accuracy,4,41,babble,,,babble-reversed_n13_p229-one-p318-nine-p256-four-p284-eight-p268-five-p245-two.wav,87.78358751462238,30,0.31012326740816676,2,RX81,3,0.0,0.0,4.0,0,0,3.645161290322581,1.6719074249267578
0,,2024-07-25 13:48:49,sub_120,3,distance,cathedral,localisation_accuracy,4,42,babble,,,babble-reversed_n13_p229-eight-p256-nine-p318-four-p245-three-p268-five-p284-two.wav,89.48253498112442,30,0.22631498586605636,4,RX81,5,0.0,0.0,6.0,0,0,5.859237536656892,3.937159776687622
0,,2024-07-25 13:48:53,sub_120,3,distance,cathedral,localisation_accuracy,4,43,babble,,,babble-reversed_n13_p229-eight-p256-nine-p318-four-p245-three-p268-five-p284-two.wav,91.74401290607437,30,0.2218701878728605,6,RX81,7,0.0,0.0,8.0,0,0,6.944281524926687,2.5163397789001465
0,,2024-07-25 13:48:57,sub_120,3,distance,cathedral,localisation_accuracy,4,44,babble,,,babble-reversed_n13_p256-three-p318-two-p229-nine-p248-four-p284-one-p268-eight.wav,87.82593261559967,30,0.3721303125304285,2,RX81,3,0.0,0.0,4.0,0,0,5.360703812316716,2.8438045978546143
0,,2024-07-25 13:49:02,sub_120,3,distance,cathedral,localisation_accuracy,4,45,babble,,,babble-reversed_n13_p318-nine-p256-five-p307-eight-p268-three-p248-one-p245-four.wav,89.99065667080299,30,-0.4974270435262472,5,RX81,6,0.0,0.0,7.0,0,0,6.093841642228739,4.297954082489014
0,,2024-07-25 13:49:07,sub_120,3,distance,cathedral,localisation_accuracy,4,46,babble,,,babble-reversed_n13_p229-three-p256-one-p307-two-p284-eight-p268-five-p248-nine.wav,88.88722407844975,30,-0.37072213032276957,3,RX81,4,0.0,0.0,5.0,0,0,6.475073313782993,3.437587022781372
0,,2024-07-25 13:49:11,sub_120,3,distance,cathedral,localisation_accuracy,4,47,babble,,,babble-reversed_n13_p318-five-p229-four-p256-eight-p284-one-p245-three-p248-two.wav,91.87254849781527,30,-0.18717490325639097,9,RX81,10,0.0,0.0,11.0,0,0,8.043988269794722,2.7981998920440674
0,,2024-07-25 13:49:15,sub_120,3,distance,cathedral,localisation_accuracy,4,48,babble,,,babble-reversed_n13_p307-two-p229-one-p256-five-p248-nine-p284-three-p268-eight.wav,92.0254755722911,30,0.39950668639066633,7,RX81,8,0.0,0.0,9.0,0,0,8.29325513196481,3.0041799545288086
0,,2024-07-25 13:49:19,sub_120,3,distance,cathedral,localisation_accuracy,4,49,babble,,,babble-reversed_n13_p318-five-p256-nine-p307-eight-p248-two-p245-four-p284-three.wav,86.13695773034325,30,-0.09772747278299798,1,RX81,2,0.0,0.0,3.0,0,0,4.026392961876833,2.5157017707824707
0,,2024-07-25 13:49:22,sub_120,3,distance,cathedral,localisation_accuracy,4,50,babble,,,babble-reversed_n13_p229-two-p256-three-p318-eight-p284-five-p268-four-p245-one.wav,92.90175796296047,30,-0.1378428317386674,10,RX81,11,0.0,0.0,12.0,0,0,6.5043988269794735,2.3730034828186035
0,,2024-07-25 13:49:28,sub_120,3,distance,cathedral,localisation_accuracy,4,51,babble,,,babble-reversed_n13_p256-three-p318-two-p229-nine-p248-four-p284-one-p268-eight.wav,84.12236971809114,30,-0.4110255848497807,0,RX81,1,0.0,0.0,2.0,0,0,3.0146627565982405,4.250983476638794
0,,2024-07-25 13:49:32,sub_120,3,distance,cathedral,localisation_accuracy,4,52,babble,,,babble-reversed_n13_p318-three-p229-one-p256-eight-p245-five-p248-four-p284-nine.wav,91.7499857908756,30,0.2304478347291372,6,RX81,7,0.0,0.0,8.0,0,0,6.577712609970675,3.0425472259521484
0,,2024-07-25 13:49:36,sub_120,3,distance,cathedral,localisation_accuracy,4,53,babble,,,babble-reversed_n13_p318-five-p256-nine-p307-two-p245-eight-p248-one-p284-four.wav,89.31701295313783,30,0.00444652698894854,4,RX81,5,0.0,0.0,6.0,0,0,7.3695014662756595,3.094865322113037
0,,2024-07-25 13:49:39,sub_120,3,distance,cathedral,localisation_accuracy,4,54,babble,,,babble-reversed_n13_p307-nine-p229-one-p256-eight-p248-four-p284-two-p268-three.wav,91.92440061299942,30,-0.12810152476941605,8,RX81,9,0.0,0.0,10.0,0,0,7.794721407624634,2.1875598430633545
