event_id,timestamp,subject_id,session_index,plane,setup,task,block,trial_index,headpose_offset_azi,headpose_offset_ele,target_number,target_filename,target_talker,target_sex,target_speaker_id,step_number:,distance_masker,distance_target,target_speaker_proc,target_speaker_chan,target_speaker_azi,target_speaker_ele,target_speaker_dist,target_stim_level,masker_filename,masker_speaker_id,masker_speaker_proc,masker_speaker_chan,masker_speaker_azi,masker_speaker_ele,masker_speaker_dist,masker_stim_level,normalisation_method,normalisation_level_masker,normalisation_level_target,played_number,resp_number,is_correct,reaction_time
,2024-07-22 16:08:18,sub_117,3,distance,cathedral,spatial_unmasking,1,0,0,0,_four_,talker-p248_sex-f_text-_four_.wav,p248,f,5,1,8.0,7.0,RX81,6,0.0,0.0,7.0,92.34149293193902,babble-reversed_n13_p229-five-p256-one-p318-three-p248-nine-p268-four-p284-eight.wav,6,RX81,7,0.0,0.0,8.0,91.58892582949886,mgb_normalisation,91.58892582949886,90.34149293193902,4,4.0,True,1.1249213218688965
,2024-07-22 16:08:21,sub_117,3,distance,cathedral,spatial_unmasking,1,1,0,0,_four_,talker-p248_sex-f_text-_four_.wav,p248,f,5,2,8.0,7.0,RX81,6,0.0,0.0,7.0,88.34149293193902,babble-reversed_n13_p307-four-p318-three-p256-eight-p284-two-p245-nine-p248-five.wav,6,RX81,7,0.0,0.0,8.0,91.58892582949886,mgb_normalisation,91.58892582949886,90.34149293193902,4,4.0,True,1.1249208450317385
,2024-07-22 16:08:25,sub_117,3,distance,cathedral,spatial_unmasking,1,2,0,0,_nine_,talker-p248_sex-f_text-_nine_.wav,p248,f,5,3,8.0,7.0,RX81,6,0.0,0.0,7.0,84.341492931939,babble-reversed_n13_p307-two-p229-one-p256-five-p248-nine-p284-three-p268-eight.wav,6,RX81,7,0.0,0.0,8.0,91.58892582949888,mgb_normalisation,91.58892582949886,90.34149293193902,9,5.0,False,1.0624256134033203
,2024-07-22 16:08:28,sub_117,3,distance,cathedral,spatial_unmasking,1,3,0,0,_two_,talker-p248_sex-f_text-_two_.wav,p248,f,5,4,8.0,7.0,RX81,6,0.0,0.0,7.0,86.34149293193902,babble-reversed_n13_p229-eight-p256-nine-p318-four-p245-three-p268-five-p284-two.wav,6,RX81,7,0.0,0.0,8.0,91.58892582949886,mgb_normalisation,91.58892582949886,90.34149293193902,2,2.0,True,1.0624256134033203
,2024-07-22 16:08:32,sub_117,3,distance,cathedral,spatial_unmasking,1,4,0,0,_eight_,talker-p248_sex-f_text-_eight_.wav,p248,f,5,5,8.0,7.0,RX81,6,0.0,0.0,7.0,86.34149293193902,babble-reversed_n13_p256-four-p229-eight-p307-five-p248-three-p245-one-p284-two.wav,6,RX81,7,0.0,0.0,8.0,91.58892582949886,mgb_normalisation,91.58892582949886,90.34149293193902,8,3.0,False,1.12492036819458
,2024-07-22 16:08:35,sub_117,3,distance,cathedral,spatial_unmasking,1,5,0,0,_nine_,talker-p248_sex-f_text-_nine_.wav,p248,f,5,6,8.0,7.0,RX81,6,0.0,0.0,7.0,88.34149293193902,babble-reversed_n13_p256-three-p318-one-p307-two-p284-nine-p268-four-p245-eight.wav,6,RX81,7,0.0,0.0,8.0,91.58892582949888,mgb_normalisation,91.58892582949886,90.34149293193902,9,9.0,True,0.8748712539672852
,2024-07-22 16:08:39,sub_117,3,distance,cathedral,spatial_unmasking,1,6,0,0,_six_,talker-p248_sex-f_text-_six_.wav,p248,f,5,7,8.0,7.0,RX81,6,0.0,0.0,7.0,88.34149293193902,babble-reversed_n13_p307-five-p229-two-p318-four-p248-three-p245-nine-p268-eight.wav,6,RX81,7,0.0,0.0,8.0,91.58892582949886,mgb_normalisation,91.58892582949886,90.34149293193902,6,6.0,True,1.1249220371246338
,2024-07-22 16:08:42,sub_117,3,distance,cathedral,spatial_unmasking,1,7,0,0,_six_,talker-p248_sex-f_text-_six_.wav,p248,f,5,8,8.0,7.0,RX81,6,0.0,0.0,7.0,86.34149293193902,babble-reversed_n13_p229-five-p318-three-p307-two-p245-four-p284-nine-p248-eight.wav,6,RX81,7,0.0,0.0,8.0,91.58892582949886,mgb_normalisation,91.58892582949886,90.34149293193902,6,6.0,True,1.0624256134033203
,2024-07-22 16:08:46,sub_117,3,distance,cathedral,spatial_unmasking,1,8,0,0,_four_,talker-p248_sex-f_text-_four_.wav,p248,f,5,9,8.0,7.0,RX81,6,0.0,0.0,7.0,86.341492931939,babble-reversed_n13_p229-five-p318-three-p307-two-p245-four-p284-nine-p248-eight.wav,6,RX81,7,0.0,0.0,8.0,91.58892582949886,mgb_normalisation,91.58892582949886,90.34149293193902,4,4.0,True,1.0623679161071775
,2024-07-22 16:08:49,sub_117,3,distance,cathedral,spatial_unmasking,1,9,0,0,_nine_,talker-p248_sex-f_text-_nine_.wav,p248,f,5,10,8.0,7.0,RX81,6,0.0,0.0,7.0,84.341492931939,babble-reversed_n13_p307-one-p318-five-p229-four-p268-eight-p284-two-p245-three.wav,6,RX81,7,0.0,0.0,8.0,91.58892582949886,mgb_normalisation,91.58892582949886,90.34149293193902,9,9.0,True,0.8749387264251709
,2024-07-22 16:08:52,sub_117,3,distance,cathedral,spatial_unmasking,1,10,0,0,_two_,talker-p248_sex-f_text-_two_.wav,p248,f,5,11,8.0,7.0,RX81,6,0.0,0.0,7.0,84.34149293193903,babble-reversed_n13_p229-three-p256-one-p307-two-p284-eight-p268-five-p248-nine.wav,6,RX81,7,0.0,0.0,8.0,91.58892582949888,mgb_normalisation,91.58892582949886,90.34149293193902,2,2.0,True,1.062489032745361
,2024-07-22 16:08:56,sub_117,3,distance,cathedral,spatial_unmasking,1,11,0,0,_eight_,talker-p248_sex-f_text-_eight_.wav,p248,f,5,12,8.0,7.0,RX81,6,0.0,0.0,7.0,82.34149293193902,babble-reversed_n13_p307-two-p229-one-p256-five-p248-nine-p284-three-p268-eight.wav,6,RX81,7,0.0,0.0,8.0,91.58892582949888,mgb_normalisation,91.58892582949886,90.34149293193902,8,3.0,False,1.2499127388000488
,2024-07-22 16:08:59,sub_117,3,distance,cathedral,spatial_unmasking,1,12,0,0,_one_,talker-p248_sex-f_text-_one_.wav,p248,f,5,13,8.0,7.0,RX81,6,0.0,0.0,7.0,83.34149293193903,babble-reversed_n13_p307-two-p229-one-p256-five-p248-nine-p284-three-p268-eight.wav,6,RX81,7,0.0,0.0,8.0,91.58892582949888,mgb_normalisation,91.58892582949886,90.34149293193902,1,1.0,True,1.062424898147583
,2024-07-22 16:09:03,sub_117,3,distance,cathedral,spatial_unmasking,1,13,0,0,_three_,talker-p248_sex-f_text-_three_.wav,p248,f,5,14,8.0,7.0,RX81,6,0.0,0.0,7.0,83.34149293193902,babble-reversed_n13_p318-three-p229-one-p256-eight-p245-five-p248-four-p284-nine.wav,6,RX81,7,0.0,0.0,8.0,91.58892582949888,mgb_normalisation,91.58892582949886,90.34149293193902,3,3.0,True,1.0624256134033203
,2024-07-22 16:09:07,sub_117,3,distance,cathedral,spatial_unmasking,1,14,0,0,_eight_,talker-p248_sex-f_text-_eight_.wav,p248,f,5,15,8.0,7.0,RX81,6,0.0,0.0,7.0,82.34149293193902,babble-reversed_n13_p318-four-p256-five-p229-three-p284-one-p245-eight-p248-nine.wav,6,RX81,7,0.0,0.0,8.0,91.58892582949888,mgb_normalisation,91.58892582949886,90.34149293193902,8,1.0,False,2.124852418899536
,2024-07-22 16:09:11,sub_117,3,distance,cathedral,spatial_unmasking,1,15,0,0,_five_,talker-p248_sex-f_text-_five_.wav,p248,f,5,16,8.0,7.0,RX81,6,0.0,0.0,7.0,83.34149293193902,babble-reversed_n13_p229-three-p307-one-p318-two-p245-eight-p268-five-p284-four.wav,6,RX81,7,0.0,0.0,8.0,91.58892582949888,mgb_normalisation,91.58892582949886,90.34149293193902,5,5.0,True,0.8749392032623291
,2024-07-22 16:09:14,sub_117,3,distance,cathedral,spatial_unmasking,1,16,0,0,_eight_,talker-p248_sex-f_text-_eight_.wav,p248,f,5,17,8.0,7.0,RX81,6,0.0,0.0,7.0,83.34149293193902,babble-reversed_n13_p256-four-p229-two-p318-five-p268-one-p248-eight-p245-three.wav,6,RX81,7,0.0,0.0,8.0,91.58892582949886,mgb_normalisation,91.58892582949886,90.34149293193902,8,3.0,False,1.5623905658721924
,2024-07-22 16:09:18,sub_117,3,distance,cathedral,spatial_unmasking,1,17,0,0,_eight_,talker-p248_sex-f_text-_eight_.wav,p248,f,5,18,8.0,7.0,RX81,6,0.0,0.0,7.0,84.34149293193903,babble-reversed_n13_p318-three-p307-one-p256-five-p248-nine-p245-two-p284-eight.wav,6,RX81,7,0.0,0.0,8.0,91.58892582949888,mgb_normalisation,91.58892582949886,90.34149293193902,8,8.0,True,1.2499120235443115
,2024-07-22 16:09:22,sub_117,3,distance,cathedral,spatial_unmasking,1,18,0,0,_two_,talker-p248_sex-f_text-_two_.wav,p248,f,5,19,8.0,7.0,RX81,6,0.0,0.0,7.0,84.34149293193903,babble-reversed_n13_p256-three-p318-two-p229-nine-p248-four-p284-one-p268-eight.wav,6,RX81,7,0.0,0.0,8.0,91.58892582949886,mgb_normalisation,91.58892582949886,90.34149293193902,2,2.0,True,1.0624263286590576
,2024-07-22 16:09:25,sub_117,3,distance,cathedral,spatial_unmasking,1,19,0,0,_five_,talker-p248_sex-f_text-_five_.wav,p248,f,5,20,8.0,7.0,RX81,6,0.0,0.0,7.0,83.34149293193902,babble-reversed_n13_p256-five-p307-nine-p318-three-p284-eight-p268-one-p248-two.wav,6,RX81,7,0.0,0.0,8.0,91.58892582949886,mgb_normalisation,91.58892582949886,90.34149293193902,5,5.0,True,1.1249215602874756
,2024-07-22 16:09:29,sub_117,3,distance,cathedral,spatial_unmasking,1,20,0,0,_nine_,talker-p248_sex-f_text-_nine_.wav,p248,f,5,21,8.0,7.0,RX81,6,0.0,0.0,7.0,83.34149293193902,babble-reversed_n13_p318-five-p229-four-p256-eight-p284-one-p245-three-p248-two.wav,6,RX81,7,0.0,0.0,8.0,91.58892582949888,mgb_normalisation,91.58892582949886,90.34149293193902,9,9.0,True,0.8124425411224365
,2024-07-22 16:09:32,sub_117,3,distance,cathedral,spatial_unmasking,1,21,0,0,_six_,talker-p248_sex-f_text-_six_.wav,p248,f,5,22,8.0,7.0,RX81,6,0.0,0.0,7.0,82.34149293193902,babble-reversed_n13_p229-one-p318-eight-p256-three-p268-two-p245-five-p248-nine.wav,6,RX81,7,0.0,0.0,8.0,91.58892582949886,mgb_normalisation,91.58892582949886,90.34149293193902,6,6.0,True,0.9374346733093262
,2024-07-22 16:09:36,sub_117,3,distance,cathedral,spatial_unmasking,1,22,0,0,_eight_,talker-p248_sex-f_text-_eight_.wav,p248,f,5,23,8.0,7.0,RX81,6,0.0,0.0,7.0,82.34149293193902,babble-reversed_n13_p229-one-p318-eight-p256-three-p268-nine-p248-five-p284-four.wav,6,RX81,7,0.0,0.0,8.0,91.58892582949886,mgb_normalisation,91.58892582949886,90.34149293193902,8,3.0,False,1.9998602867126465
,2024-07-22 16:09:40,sub_117,3,distance,cathedral,spatial_unmasking,1,23,0,0,_one_,talker-p248_sex-f_text-_one_.wav,p248,f,5,24,8.0,7.0,RX81,6,0.0,0.0,7.0,83.34149293193903,babble-reversed_n13_p318-five-p229-four-p256-eight-p284-one-p245-three-p248-two.wav,6,RX81,7,0.0,0.0,8.0,91.58892582949888,mgb_normalisation,91.58892582949886,90.34149293193902,1,1.0,True,1.1249258518218994
,2024-07-22 16:09:44,sub_117,3,distance,cathedral,spatial_unmasking,1,24,0,0,_three_,talker-p248_sex-f_text-_three_.wav,p248,f,5,25,8.0,7.0,RX81,6,0.0,0.0,7.0,83.34149293193902,babble-reversed_n13_p318-nine-p307-eight-p229-two-p284-one-p248-three-p245-five.wav,6,RX81,7,0.0,0.0,8.0,91.58892582949886,mgb_normalisation,91.58892582949886,90.34149293193902,3,3.0,True,1.4374005794525146
,2024-07-22 16:09:47,sub_117,3,distance,cathedral,spatial_unmasking,1,25,0,0,_eight_,talker-p248_sex-f_text-_eight_.wav,p248,f,5,26,8.0,7.0,RX81,6,0.0,0.0,7.0,82.34149293193902,babble-reversed_n13_p256-two-p307-five-p318-nine-p248-eight-p245-four-p284-one.wav,6,RX81,7,0.0,0.0,8.0,91.58892582949888,mgb_normalisation,91.58892582949886,90.34149293193902,8,8.0,True,0.87493896484375
,2024-07-22 16:09:50,sub_117,3,distance,cathedral,spatial_unmasking,1,26,0,0,_two_,talker-p248_sex-f_text-_two_.wav,p248,f,5,27,8.0,7.0,RX81,6,0.0,0.0,7.0,82.34149293193902,babble-reversed_n13_p256-four-p229-eight-p307-five-p248-three-p245-one-p284-two.wav,6,RX81,7,0.0,0.0,8.0,91.58892582949886,mgb_normalisation,91.58892582949886,90.34149293193902,2,2.0,True,1.0624263286590576
,2024-07-22 16:09:54,sub_117,3,distance,cathedral,spatial_unmasking,1,27,0,0,_two_,talker-p248_sex-f_text-_two_.wav,p248,f,5,28,8.0,7.0,RX81,6,0.0,0.0,7.0,81.34149293193902,babble-reversed_n13_p318-five-p256-nine-p307-eight-p248-two-p245-four-p284-three.wav,6,RX81,7,0.0,0.0,8.0,91.58892582949886,mgb_normalisation,91.58892582949886,90.34149293193902,2,2.0,True,1.1249642372131348
,2024-07-22 16:09:57,sub_117,3,distance,cathedral,spatial_unmasking,1,28,0,0,_five_,talker-p248_sex-f_text-_five_.wav,p248,f,5,29,8.0,7.0,RX81,6,0.0,0.0,7.0,81.341492931939,babble-reversed_n13_p307-four-p318-three-p256-eight-p284-two-p245-nine-p248-five.wav,6,RX81,7,0.0,0.0,8.0,91.58892582949886,mgb_normalisation,91.58892582949886,90.34149293193902,5,5.0,True,0.87493896484375
,2024-07-22 16:10:00,sub_117,3,distance,cathedral,spatial_unmasking,1,29,0,0,_two_,talker-p248_sex-f_text-_two_.wav,p248,f,5,30,8.0,7.0,RX81,6,0.0,0.0,7.0,80.34149293193903,babble-reversed_n13_p318-five-p256-nine-p307-two-p245-eight-p248-one-p284-four.wav,6,RX81,7,0.0,0.0,8.0,91.58892582949888,mgb_normalisation,91.58892582949886,90.34149293193902,2,2.0,True,1.0624020099639893
,2024-07-22 16:10:04,sub_117,3,distance,cathedral,spatial_unmasking,1,30,0,0,_five_,talker-p248_sex-f_text-_five_.wav,p248,f,5,31,8.0,7.0,RX81,6,0.0,0.0,7.0,80.341492931939,babble-reversed_n13_p229-one-p318-nine-p256-four-p284-eight-p268-five-p245-two.wav,6,RX81,7,0.0,0.0,8.0,91.58892582949886,mgb_normalisation,91.58892582949886,90.34149293193902,5,5.0,True,0.8749392032623291
,2024-07-22 16:10:08,sub_117,3,distance,cathedral,spatial_unmasking,1,31,0,0,_eight_,talker-p248_sex-f_text-_eight_.wav,p248,f,5,32,8.0,7.0,RX81,6,0.0,0.0,7.0,79.34149293193902,babble-reversed_n13_p256-five-p307-nine-p318-three-p284-eight-p268-one-p248-two.wav,6,RX81,7,0.0,0.0,8.0,91.58892582949886,mgb_normalisation,91.58892582949886,90.34149293193902,8,3.0,False,1.624887228012085
,2024-07-22 16:10:11,sub_117,3,distance,cathedral,spatial_unmasking,1,32,0,0,_six_,talker-p248_sex-f_text-_six_.wav,p248,f,5,33,8.0,7.0,RX81,6,0.0,0.0,7.0,80.34149293193903,babble-reversed_n13_p229-three-p256-one-p307-two-p284-eight-p268-five-p248-nine.wav,6,RX81,7,0.0,0.0,8.0,91.58892582949888,mgb_normalisation,91.58892582949886,90.34149293193902,6,6.0,True,0.8749382495880127
,2024-07-22 16:10:16,sub_117,3,distance,cathedral,spatial_unmasking,1,33,0,0,_one_,talker-p248_sex-f_text-_one_.wav,p248,f,5,34,8.0,7.0,RX81,6,0.0,0.0,7.0,80.34149293193903,babble-reversed_n13_p256-eight-p229-three-p307-nine-p245-five-p248-four-p268-two.wav,6,RX81,7,0.0,0.0,8.0,91.58892582949886,mgb_normalisation,91.58892582949886,90.34149293193902,1,8.0,False,2.624814748764038
,2024-07-22 16:10:20,sub_117,3,distance,cathedral,spatial_unmasking,1,34,0,0,_four_,talker-p248_sex-f_text-_four_.wav,p248,f,5,35,8.0,7.0,RX81,6,0.0,0.0,7.0,81.341492931939,babble-reversed_n13_p318-five-p256-nine-p307-two-p245-eight-p248-one-p284-four.wav,6,RX81,7,0.0,0.0,8.0,91.58892582949888,mgb_normalisation,91.58892582949886,90.34149293193902,4,1.0,False,1.874868392944336
,2024-07-22 16:10:24,sub_117,3,distance,cathedral,spatial_unmasking,1,35,0,0,_four_,talker-p248_sex-f_text-_four_.wav,p248,f,5,36,8.0,7.0,RX81,6,0.0,0.0,7.0,82.34149293193902,babble-reversed_n13_p229-nine-p256-four-p318-three-p268-eight-p248-two-p284-five.wav,6,RX81,7,0.0,0.0,8.0,91.58892582949888,mgb_normalisation,91.58892582949886,90.34149293193902,4,4.0,True,0.9999303817749025
,2024-07-22 16:10:27,sub_117,3,distance,cathedral,spatial_unmasking,1,36,0,0,_six_,talker-p248_sex-f_text-_six_.wav,p248,f,5,37,8.0,7.0,RX81,6,0.0,0.0,7.0,82.34149293193902,babble-reversed_n13_p229-five-p318-two-p307-eight-p268-three-p248-four-p245-one.wav,6,RX81,7,0.0,0.0,8.0,91.58892582949888,mgb_normalisation,91.58892582949886,90.34149293193902,6,6.0,True,0.8749642372131348
,2024-07-22 16:10:30,sub_117,3,distance,cathedral,spatial_unmasking,1,37,0,0,_nine_,talker-p248_sex-f_text-_nine_.wav,p248,f,5,38,8.0,7.0,RX81,6,0.0,0.0,7.0,81.34149293193902,babble-reversed_n13_p229-three-p256-nine-p318-five-p248-one-p245-eight-p284-two.wav,6,RX81,7,0.0,0.0,8.0,91.58892582949888,mgb_normalisation,91.58892582949886,90.34149293193902,9,9.0,True,0.93746018409729
,2024-07-22 16:10:34,sub_117,3,distance,cathedral,spatial_unmasking,1,38,0,0,_nine_,talker-p248_sex-f_text-_nine_.wav,p248,f,5,39,8.0,7.0,RX81,6,0.0,0.0,7.0,81.34149293193902,babble-reversed_n13_p229-eight-p256-nine-p318-four-p245-three-p268-five-p284-two.wav,6,RX81,7,0.0,0.0,8.0,91.58892582949886,mgb_normalisation,91.58892582949886,90.34149293193902,9,9.0,True,0.8124423027038574
,2024-07-22 16:10:37,sub_117,3,distance,cathedral,spatial_unmasking,1,39,0,0,_six_,talker-p248_sex-f_text-_six_.wav,p248,f,5,40,8.0,7.0,RX81,6,0.0,0.0,7.0,80.34149293193903,babble-reversed_n13_p229-three-p256-one-p307-two-p284-eight-p268-five-p248-nine.wav,6,RX81,7,0.0,0.0,8.0,91.58892582949888,mgb_normalisation,91.58892582949886,90.34149293193902,6,6.0,True,0.9374346733093262
,2024-07-22 16:10:40,sub_117,3,distance,cathedral,spatial_unmasking,1,40,0,0,_three_,talker-p248_sex-f_text-_three_.wav,p248,f,5,41,8.0,7.0,RX81,6,0.0,0.0,7.0,80.341492931939,babble-reversed_n13_p256-four-p307-eight-p318-two-p248-three-p284-nine-p268-one.wav,6,RX81,7,0.0,0.0,8.0,91.58892582949888,mgb_normalisation,91.58892582949886,90.34149293193902,3,3.0,True,0.9374339580535888
,2024-07-22 16:10:45,sub_117,3,distance,cathedral,spatial_unmasking,1,41,0,0,_eight_,talker-p248_sex-f_text-_eight_.wav,p248,f,5,42,8.0,7.0,RX81,6,0.0,0.0,7.0,79.34149293193902,babble-reversed_n13_p318-three-p229-one-p256-eight-p245-five-p248-four-p284-nine.wav,6,RX81,7,0.0,0.0,8.0,91.58892582949888,mgb_normalisation,91.58892582949886,90.34149293193902,8,2.0,False,2.124852180480957
,2024-07-22 16:10:48,sub_117,3,distance,cathedral,spatial_unmasking,1,42,0,0,_six_,talker-p248_sex-f_text-_six_.wav,p248,f,5,43,8.0,7.0,RX81,6,0.0,0.0,7.0,80.34149293193903,babble-reversed_n13_p256-nine-p307-four-p229-one-p284-three-p248-two-p245-five.wav,6,RX81,7,0.0,0.0,8.0,91.58892582949888,mgb_normalisation,91.58892582949886,90.34149293193902,6,6.0,True,0.8749382495880127
,2024-07-22 16:10:52,sub_117,3,distance,cathedral,spatial_unmasking,1,43,0,0,_three_,talker-p248_sex-f_text-_three_.wav,p248,f,5,44,8.0,7.0,RX81,6,0.0,0.0,7.0,80.341492931939,babble-reversed_n13_p229-three-p307-one-p318-two-p245-eight-p268-five-p284-four.wav,6,RX81,7,0.0,0.0,8.0,91.58892582949888,mgb_normalisation,91.58892582949886,90.34149293193902,3,3.0,True,1.0624258518218994
,2024-07-22 16:14:10,sub_117,3,distance,cathedral,spatial_unmasking,2,44,0,0,_one_,talker-p248_sex-f_text-_one_.wav,p248,f,5,1,12.0,7.0,RX81,6,0.0,0.0,7.0,92.34149293193902,babble-reversed_n13_p256-eight-p318-two-p307-five-p245-four-p268-nine-p284-one.wav,10,RX81,11,0.0,0.0,12.0,93.00003341222718,mgb_normalisation,93.00003341222715,90.34149293193902,1,1.0,True,2.249844551086426
,2024-07-22 16:14:14,sub_117,3,distance,cathedral,spatial_unmasking,2,45,0,0,_two_,talker-p248_sex-f_text-_two_.wav,p248,f,5,2,12.0,7.0,RX81,6,0.0,0.0,7.0,88.34149293193903,babble-reversed_n13_p256-nine-p307-four-p229-one-p284-three-p248-two-p245-five.wav,10,RX81,11,0.0,0.0,12.0,93.00003341222718,mgb_normalisation,93.00003341222715,90.34149293193902,2,2.0,True,1.6248862743377686
,2024-07-22 16:14:18,sub_117,3,distance,cathedral,spatial_unmasking,2,46,0,0,_five_,talker-p248_sex-f_text-_five_.wav,p248,f,5,3,12.0,7.0,RX81,6,0.0,0.0,7.0,84.341492931939,babble-reversed_n13_p229-five-p256-three-p318-nine-p248-two-p284-four-p268-one.wav,10,RX81,11,0.0,0.0,12.0,93.00003341222718,mgb_normalisation,93.00003341222715,90.34149293193902,5,5.0,True,1.4373996257781982
,2024-07-22 16:14:21,sub_117,3,distance,cathedral,spatial_unmasking,2,47,0,0,_one_,talker-p248_sex-f_text-_one_.wav,p248,f,5,4,12.0,7.0,RX81,6,0.0,0.0,7.0,80.34149293193903,babble-reversed_n13_p318-five-p229-three-p256-four-p268-eight-p248-one-p245-nine.wav,10,RX81,11,0.0,0.0,12.0,93.00003341222718,mgb_normalisation,93.00003341222715,90.34149293193902,1,1.0,True,1.249888896942139
,2024-07-22 16:14:25,sub_117,3,distance,cathedral,spatial_unmasking,2,48,0,0,_three_,talker-p248_sex-f_text-_three_.wav,p248,f,5,5,12.0,7.0,RX81,6,0.0,0.0,7.0,76.34149293193902,babble-reversed_n13_p256-eight-p229-three-p307-nine-p245-five-p248-four-p268-two.wav,10,RX81,11,0.0,0.0,12.0,93.00003341222715,mgb_normalisation,93.00003341222715,90.34149293193902,3,3.0,True,1.1874170303344729
,2024-07-22 16:14:31,sub_117,3,distance,cathedral,spatial_unmasking,2,49,0,0,_four_,talker-p248_sex-f_text-_four_.wav,p248,f,5,6,12.0,7.0,RX81,6,0.0,0.0,7.0,72.34149293193902,babble-reversed_n13_p256-five-p229-one-p318-three-p248-nine-p284-eight-p268-two.wav,10,RX81,11,0.0,0.0,12.0,93.00003341222718,mgb_normalisation,93.00003341222715,90.34149293193902,4,8.0,False,3.1873011589050293
,2024-07-22 16:14:36,sub_117,3,distance,cathedral,spatial_unmasking,2,50,0,0,_three_,talker-p248_sex-f_text-_three_.wav,p248,f,5,7,12.0,7.0,RX81,6,0.0,0.0,7.0,74.34149293193902,babble-reversed_n13_p229-five-p318-three-p307-two-p245-four-p284-nine-p248-eight.wav,10,RX81,11,0.0,0.0,12.0,93.00003341222715,mgb_normalisation,93.00003341222715,90.34149293193902,3,8.0,False,2.437390089035034
,2024-07-22 16:14:43,sub_117,3,distance,cathedral,spatial_unmasking,2,51,0,0,_eight_,talker-p248_sex-f_text-_eight_.wav,p248,f,5,8,12.0,7.0,RX81,6,0.0,0.0,7.0,76.34149293193902,babble-reversed_n13_p318-nine-p307-eight-p229-two-p284-one-p248-three-p245-five.wav,10,RX81,11,0.0,0.0,12.0,93.00003341222718,mgb_normalisation,93.00003341222715,90.34149293193902,8,8.0,True,4.874658823013306
,2024-07-22 16:14:51,sub_117,3,distance,cathedral,spatial_unmasking,2,52,0,0,_four_,talker-p248_sex-f_text-_four_.wav,p248,f,5,9,12.0,7.0,RX81,6,0.0,0.0,7.0,76.34149293193902,babble-reversed_n13_p229-three-p307-one-p318-two-p245-eight-p268-five-p284-four.wav,10,RX81,11,0.0,0.0,12.0,93.00003341222718,mgb_normalisation,93.00003341222715,90.34149293193902,4,3.0,False,5.687129020690918
,2024-07-22 16:14:54,sub_117,3,distance,cathedral,spatial_unmasking,2,53,0,0,_four_,talker-p248_sex-f_text-_four_.wav,p248,f,5,10,12.0,7.0,RX81,6,0.0,0.0,7.0,78.34149293193902,babble-reversed_n13_p318-five-p229-three-p256-four-p268-eight-p248-one-p245-nine.wav,10,RX81,11,0.0,0.0,12.0,93.00003341222718,mgb_normalisation,93.00003341222715,90.34149293193902,4,9.0,False,1.1874167919158936
,2024-07-22 16:14:58,sub_117,3,distance,cathedral,spatial_unmasking,2,54,0,0,_four_,talker-p248_sex-f_text-_four_.wav,p248,f,5,11,12.0,7.0,RX81,6,0.0,0.0,7.0,80.341492931939,babble-reversed_n13_p256-four-p229-two-p318-five-p268-one-p248-eight-p245-three.wav,10,RX81,11,0.0,0.0,12.0,93.00003341222715,mgb_normalisation,93.00003341222715,90.34149293193902,4,3.0,False,1.3124074935913086
,2024-07-22 16:15:03,sub_117,3,distance,cathedral,spatial_unmasking,2,55,0,0,_three_,talker-p248_sex-f_text-_three_.wav,p248,f,5,12,12.0,7.0,RX81,6,0.0,0.0,7.0,82.34149293193902,babble-reversed_n13_p256-four-p229-eight-p307-five-p248-three-p245-one-p284-two.wav,10,RX81,11,0.0,0.0,12.0,93.00003341222715,mgb_normalisation,93.00003341222715,90.34149293193902,3,3.0,True,2.124797344207764
,2024-07-22 16:15:06,sub_117,3,distance,cathedral,spatial_unmasking,2,56,0,0,_four_,talker-p248_sex-f_text-_four_.wav,p248,f,5,13,12.0,7.0,RX81,6,0.0,0.0,7.0,82.34149293193902,babble-reversed_n13_p318-three-p307-one-p256-five-p248-nine-p245-two-p284-eight.wav,10,RX81,11,0.0,0.0,12.0,93.00003341222718,mgb_normalisation,93.00003341222715,90.34149293193902,4,8.0,False,1.0624258518218994
,2024-07-22 16:15:10,sub_117,3,distance,cathedral,spatial_unmasking,2,57,0,0,_three_,talker-p248_sex-f_text-_three_.wav,p248,f,5,14,12.0,7.0,RX81,6,0.0,0.0,7.0,84.341492931939,babble-reversed_n13_p229-nine-p307-five-p256-two-p248-three-p245-one-p268-eight.wav,10,RX81,11,0.0,0.0,12.0,93.00003341222715,mgb_normalisation,93.00003341222715,90.34149293193902,3,3.0,True,1.0624253749847412
,2024-07-22 16:15:13,sub_117,3,distance,cathedral,spatial_unmasking,2,58,0,0,_three_,talker-p248_sex-f_text-_three_.wav,p248,f,5,15,12.0,7.0,RX81,6,0.0,0.0,7.0,84.341492931939,babble-reversed_n13_p307-nine-p229-one-p256-eight-p248-four-p284-two-p268-three.wav,10,RX81,11,0.0,0.0,12.0,93.00003341222718,mgb_normalisation,93.00003341222715,90.34149293193902,3,3.0,True,1.12492036819458
,2024-07-22 16:15:23,sub_117,3,distance,cathedral,spatial_unmasking,2,59,0,0,_eight_,talker-p248_sex-f_text-_eight_.wav,p248,f,5,16,12.0,7.0,RX81,6,0.0,0.0,7.0,82.34149293193902,babble-reversed_n13_p256-five-p307-nine-p318-three-p284-eight-p268-one-p248-two.wav,10,RX81,11,0.0,0.0,12.0,93.00003341222715,mgb_normalisation,93.00003341222715,90.34149293193902,8,8.0,True,7.499475479125977
,2024-07-22 16:15:26,sub_117,3,distance,cathedral,spatial_unmasking,2,60,0,0,_two_,talker-p248_sex-f_text-_two_.wav,p248,f,5,17,12.0,7.0,RX81,6,0.0,0.0,7.0,82.34149293193902,babble-reversed_n13_p256-eight-p229-three-p307-nine-p245-five-p248-four-p268-two.wav,10,RX81,11,0.0,0.0,12.0,93.00003341222715,mgb_normalisation,93.00003341222715,90.34149293193902,2,2.0,True,1.0624256134033203
,2024-07-22 16:15:30,sub_117,3,distance,cathedral,spatial_unmasking,2,61,0,0,_five_,talker-p248_sex-f_text-_five_.wav,p248,f,5,18,12.0,7.0,RX81,6,0.0,0.0,7.0,80.341492931939,babble-reversed_n13_p229-five-p256-one-p318-three-p248-nine-p268-four-p284-eight.wav,10,RX81,11,0.0,0.0,12.0,93.00003341222715,mgb_normalisation,93.00003341222715,90.34149293193902,5,5.0,True,0.8749403953552246
,2024-07-22 16:15:33,sub_117,3,distance,cathedral,spatial_unmasking,2,62,0,0,_five_,talker-p248_sex-f_text-_five_.wav,p248,f,5,19,12.0,7.0,RX81,6,0.0,0.0,7.0,80.341492931939,babble-reversed_n13_p229-two-p256-three-p318-eight-p284-five-p268-four-p245-one.wav,10,RX81,11,0.0,0.0,12.0,93.00003341222718,mgb_normalisation,93.00003341222715,90.34149293193902,5,5.0,True,0.8749387264251709
,2024-07-22 16:15:38,sub_117,3,distance,cathedral,spatial_unmasking,2,63,0,0,_two_,talker-p248_sex-f_text-_two_.wav,p248,f,5,20,12.0,7.0,RX81,6,0.0,0.0,7.0,78.34149293193902,babble-reversed_n13_p229-three-p256-nine-p318-five-p248-one-p245-eight-p284-two.wav,10,RX81,11,0.0,0.0,12.0,93.00003341222718,mgb_normalisation,93.00003341222715,90.34149293193902,2,2.0,True,2.7498066425323486
,2024-07-22 16:15:42,sub_117,3,distance,cathedral,spatial_unmasking,2,64,0,0,_two_,talker-p248_sex-f_text-_two_.wav,p248,f,5,21,12.0,7.0,RX81,6,0.0,0.0,7.0,78.34149293193902,babble-reversed_n13_p229-eight-p256-nine-p318-four-p245-three-p268-five-p284-two.wav,10,RX81,11,0.0,0.0,12.0,93.00003341222715,mgb_normalisation,93.00003341222715,90.34149293193902,2,2.0,True,1.0624265670776367
,2024-07-22 16:15:45,sub_117,3,distance,cathedral,spatial_unmasking,2,65,0,0,_nine_,talker-p248_sex-f_text-_nine_.wav,p248,f,5,22,12.0,7.0,RX81,6,0.0,0.0,7.0,76.34149293193902,babble-reversed_n13_p229-five-p256-three-p318-nine-p248-two-p284-four-p268-one.wav,10,RX81,11,0.0,0.0,12.0,93.00003341222718,mgb_normalisation,93.00003341222715,90.34149293193902,9,3.0,False,1.062408447265625
,2024-07-22 16:15:49,sub_117,3,distance,cathedral,spatial_unmasking,2,66,0,0,_nine_,talker-p248_sex-f_text-_nine_.wav,p248,f,5,23,12.0,7.0,RX81,6,0.0,0.0,7.0,77.34149293193902,babble-reversed_n13_p318-nine-p256-five-p307-eight-p268-three-p248-one-p245-four.wav,10,RX81,11,0.0,0.0,12.0,93.00003341222718,mgb_normalisation,93.00003341222715,90.34149293193902,9,5.0,False,1.4374215602874756
,2024-07-22 16:15:52,sub_117,3,distance,cathedral,spatial_unmasking,2,67,0,0,_eight_,talker-p248_sex-f_text-_eight_.wav,p248,f,5,24,12.0,7.0,RX81,6,0.0,0.0,7.0,78.34149293193902,babble-reversed_n13_p229-one-p318-nine-p256-four-p284-eight-p268-five-p245-two.wav,10,RX81,11,0.0,0.0,12.0,93.00003341222715,mgb_normalisation,93.00003341222715,90.34149293193902,8,8.0,True,0.9999287128448486
,2024-07-22 16:15:56,sub_117,3,distance,cathedral,spatial_unmasking,2,68,0,0,_nine_,talker-p248_sex-f_text-_nine_.wav,p248,f,5,25,12.0,7.0,RX81,6,0.0,0.0,7.0,78.34149293193902,babble-reversed_n13_p229-one-p318-eight-p256-three-p268-nine-p248-five-p284-four.wav,10,RX81,11,0.0,0.0,12.0,93.00003341222715,mgb_normalisation,93.00003341222715,90.34149293193902,9,9.0,True,1.1874175071716309
,2024-07-22 16:16:02,sub_117,3,distance,cathedral,spatial_unmasking,2,69,0,0,_eight_,talker-p248_sex-f_text-_eight_.wav,p248,f,5,26,12.0,7.0,RX81,6,0.0,0.0,7.0,77.34149293193903,babble-reversed_n13_p256-four-p307-eight-p318-two-p248-three-p284-nine-p268-one.wav,10,RX81,11,0.0,0.0,12.0,93.00003341222718,mgb_normalisation,93.00003341222715,90.34149293193902,8,8.0,True,3.687241792678833
,2024-07-22 16:16:05,sub_117,3,distance,cathedral,spatial_unmasking,2,70,0,0,_five_,talker-p248_sex-f_text-_five_.wav,p248,f,5,27,12.0,7.0,RX81,6,0.0,0.0,7.0,77.341492931939,babble-reversed_n13_p256-eight-p318-five-p307-four-p245-three-p268-one-p284-nine.wav,10,RX81,11,0.0,0.0,12.0,93.00003341222715,mgb_normalisation,93.00003341222715,90.34149293193902,5,5.0,True,1.124921798706055
,2024-07-22 16:16:09,sub_117,3,distance,cathedral,spatial_unmasking,2,71,0,0,_two_,talker-p248_sex-f_text-_two_.wav,p248,f,5,28,12.0,7.0,RX81,6,0.0,0.0,7.0,76.34149293193902,babble-reversed_n13_p307-two-p229-one-p256-five-p248-nine-p284-three-p268-eight.wav,10,RX81,11,0.0,0.0,12.0,93.00003341222718,mgb_normalisation,93.00003341222715,90.34149293193902,2,2.0,True,0.7499465942382812
,2024-07-22 16:16:13,sub_117,3,distance,cathedral,spatial_unmasking,2,72,0,0,_two_,talker-p248_sex-f_text-_two_.wav,p248,f,5,29,12.0,7.0,RX81,6,0.0,0.0,7.0,76.34149293193902,babble-reversed_n13_p256-four-p229-eight-p307-five-p248-three-p245-one-p284-two.wav,10,RX81,11,0.0,0.0,12.0,93.00003341222715,mgb_normalisation,93.00003341222715,90.34149293193902,2,2.0,True,2.31233811378479
,2024-07-22 16:16:17,sub_117,3,distance,cathedral,spatial_unmasking,2,73,0,0,_five_,talker-p248_sex-f_text-_five_.wav,p248,f,5,30,12.0,7.0,RX81,6,0.0,0.0,7.0,75.341492931939,babble-reversed_n13_p318-three-p229-one-p256-eight-p245-five-p248-four-p284-nine.wav,10,RX81,11,0.0,0.0,12.0,93.00003341222718,mgb_normalisation,93.00003341222715,90.34149293193902,5,8.0,False,1.5623903274536133
,2024-07-22 16:16:22,sub_117,3,distance,cathedral,spatial_unmasking,2,74,0,0,_two_,talker-p248_sex-f_text-_two_.wav,p248,f,5,31,12.0,7.0,RX81,6,0.0,0.0,7.0,76.34149293193902,babble-reversed_n13_p318-five-p256-nine-p307-eight-p248-two-p245-four-p284-three.wav,10,RX81,11,0.0,0.0,12.0,93.00003341222718,mgb_normalisation,93.00003341222715,90.34149293193902,2,2.0,True,1.8748691082000728
,2024-07-22 16:16:25,sub_117,3,distance,cathedral,spatial_unmasking,2,75,0,0,_nine_,talker-p248_sex-f_text-_nine_.wav,p248,f,5,32,12.0,7.0,RX81,6,0.0,0.0,7.0,76.34149293193902,babble-reversed_n13_p229-two-p318-eight-p256-three-p268-one-p248-nine-p284-five.wav,10,RX81,11,0.0,0.0,12.0,93.00003341222715,mgb_normalisation,93.00003341222715,90.34149293193902,9,9.0,True,1.1874349117279053
,2024-07-22 16:16:34,sub_117,3,distance,cathedral,spatial_unmasking,2,76,0,0,_one_,talker-p248_sex-f_text-_one_.wav,p248,f,5,33,12.0,7.0,RX81,6,0.0,0.0,7.0,75.34149293193903,babble-reversed_n13_p229-two-p318-eight-p256-three-p268-one-p248-nine-p284-five.wav,10,RX81,11,0.0,0.0,12.0,93.00003341222715,mgb_normalisation,93.00003341222715,90.34149293193902,1,3.0,False,6.437049865722656
,2024-07-22 16:16:38,sub_117,3,distance,cathedral,spatial_unmasking,2,77,0,0,_five_,talker-p248_sex-f_text-_five_.wav,p248,f,5,34,12.0,7.0,RX81,6,0.0,0.0,7.0,76.34149293193902,babble-reversed_n13_p318-one-p307-two-p256-eight-p284-three-p248-five-p245-four.wav,10,RX81,11,0.0,0.0,12.0,93.00003341222718,mgb_normalisation,93.00003341222715,90.34149293193902,5,5.0,True,1.1874172687530518
,2024-07-22 16:16:41,sub_117,3,distance,cathedral,spatial_unmasking,2,78,0,0,_four_,talker-p248_sex-f_text-_four_.wav,p248,f,5,35,12.0,7.0,RX81,6,0.0,0.0,7.0,76.34149293193902,babble-reversed_n13_p256-four-p229-eight-p307-five-p248-three-p245-one-p284-two.wav,10,RX81,11,0.0,0.0,12.0,93.00003341222715,mgb_normalisation,93.00003341222715,90.34149293193902,4,3.0,False,1.124921798706055
,2024-07-22 16:16:44,sub_117,3,distance,cathedral,spatial_unmasking,2,79,0,0,_two_,talker-p248_sex-f_text-_two_.wav,p248,f,5,36,12.0,7.0,RX81,6,0.0,0.0,7.0,77.34149293193903,babble-reversed_n13_p318-five-p229-four-p256-eight-p284-one-p245-three-p248-two.wav,10,RX81,11,0.0,0.0,12.0,93.00003341222718,mgb_normalisation,93.00003341222715,90.34149293193902,2,2.0,True,0.9374322891235352
,2024-07-22 16:16:50,sub_117,3,distance,cathedral,spatial_unmasking,2,80,0,0,_nine_,talker-p248_sex-f_text-_nine_.wav,p248,f,5,37,12.0,7.0,RX81,6,0.0,0.0,7.0,77.34149293193902,babble-reversed_n13_p229-two-p307-five-p318-four-p284-one-p248-nine-p268-eight.wav,10,RX81,11,0.0,0.0,12.0,93.00003341222718,mgb_normalisation,93.00003341222715,90.34149293193902,9,9.0,True,3.374763250350952
,2024-07-22 16:16:54,sub_117,3,distance,cathedral,spatial_unmasking,2,81,0,0,_six_,talker-p248_sex-f_text-_six_.wav,p248,f,5,38,12.0,7.0,RX81,6,0.0,0.0,7.0,76.34149293193902,babble-reversed_n13_p229-two-p318-eight-p256-three-p268-one-p248-nine-p284-five.wav,10,RX81,11,0.0,0.0,12.0,93.00003341222715,mgb_normalisation,93.00003341222715,90.34149293193902,6,6.0,True,1.6873819828033447
,2024-07-22 16:16:58,sub_117,3,distance,cathedral,spatial_unmasking,2,82,0,0,_five_,talker-p248_sex-f_text-_five_.wav,p248,f,5,39,12.0,7.0,RX81,6,0.0,0.0,7.0,76.34149293193902,babble-reversed_n13_p229-two-p256-three-p318-eight-p284-five-p268-four-p245-one.wav,10,RX81,11,0.0,0.0,12.0,93.00003341222718,mgb_normalisation,93.00003341222715,90.34149293193902,5,5.0,True,1.1249229907989502
,2024-07-22 16:17:02,sub_117,3,distance,cathedral,spatial_unmasking,2,83,0,0,_four_,talker-p248_sex-f_text-_four_.wav,p248,f,5,40,12.0,7.0,RX81,6,0.0,0.0,7.0,75.34149293193902,babble-reversed_n13_p318-five-p229-four-p256-eight-p284-one-p245-three-p248-two.wav,10,RX81,11,0.0,0.0,12.0,93.00003341222718,mgb_normalisation,93.00003341222715,90.34149293193902,4,4.0,True,1.3749041557312012
,2024-07-22 16:17:05,sub_117,3,distance,cathedral,spatial_unmasking,2,84,0,0,_six_,talker-p248_sex-f_text-_six_.wav,p248,f,5,41,12.0,7.0,RX81,6,0.0,0.0,7.0,75.34149293193902,babble-reversed_n13_p256-three-p318-one-p307-two-p284-nine-p268-four-p245-eight.wav,10,RX81,11,0.0,0.0,12.0,93.00003341222718,mgb_normalisation,93.00003341222715,90.34149293193902,6,6.0,True,1.187448263168335
,2024-07-22 16:17:09,sub_117,3,distance,cathedral,spatial_unmasking,2,85,0,0,_one_,talker-p248_sex-f_text-_one_.wav,p248,f,5,42,12.0,7.0,RX81,6,0.0,0.0,7.0,74.34149293193902,babble-reversed_n13_p318-three-p307-one-p256-five-p248-nine-p245-two-p284-eight.wav,10,RX81,11,0.0,0.0,12.0,93.00003341222718,mgb_normalisation,93.00003341222715,90.34149293193902,1,8.0,False,1.2499125003814695
,2024-07-22 16:17:13,sub_117,3,distance,cathedral,spatial_unmasking,2,86,0,0,_four_,talker-p248_sex-f_text-_four_.wav,p248,f,5,43,12.0,7.0,RX81,6,0.0,0.0,7.0,75.34149293193902,babble-reversed_n13_p229-nine-p307-five-p256-two-p248-three-p245-one-p268-eight.wav,10,RX81,11,0.0,0.0,12.0,93.00003341222715,mgb_normalisation,93.00003341222715,90.34149293193902,4,2.0,False,1.378994703292847
,2024-07-22 16:17:16,sub_117,3,distance,cathedral,spatial_unmasking,2,87,0,0,_two_,talker-p248_sex-f_text-_two_.wav,p248,f,5,44,12.0,7.0,RX81,6,0.0,0.0,7.0,76.34149293193902,babble-reversed_n13_p229-two-p318-eight-p256-three-p268-one-p248-nine-p284-five.wav,10,RX81,11,0.0,0.0,12.0,93.00003341222715,mgb_normalisation,93.00003341222715,90.34149293193902,2,2.0,True,1.3124101161956787
,2024-07-22 16:17:20,sub_117,3,distance,cathedral,spatial_unmasking,2,88,0,0,_nine_,talker-p248_sex-f_text-_nine_.wav,p248,f,5,45,12.0,7.0,RX81,6,0.0,0.0,7.0,76.34149293193902,babble-reversed_n13_p307-nine-p318-two-p256-one-p245-three-p268-four-p248-eight.wav,10,RX81,11,0.0,0.0,12.0,93.00003341222715,mgb_normalisation,93.00003341222715,90.34149293193902,9,9.0,True,1.2499122619628906
,2024-07-22 16:17:24,sub_117,3,distance,cathedral,spatial_unmasking,2,89,0,0,_two_,talker-p248_sex-f_text-_two_.wav,p248,f,5,46,12.0,7.0,RX81,6,0.0,0.0,7.0,75.34149293193903,babble-reversed_n13_p256-eight-p318-two-p307-five-p245-four-p268-nine-p284-one.wav,10,RX81,11,0.0,0.0,12.0,93.00003341222718,mgb_normalisation,93.00003341222715,90.34149293193902,2,2.0,True,1.5623908042907717
,2024-07-22 16:17:28,sub_117,3,distance,cathedral,spatial_unmasking,2,90,0,0,_two_,talker-p248_sex-f_text-_two_.wav,p248,f,5,47,12.0,7.0,RX81,6,0.0,0.0,7.0,75.34149293193903,babble-reversed_n13_p229-two-p307-five-p318-four-p284-one-p248-nine-p268-eight.wav,10,RX81,11,0.0,0.0,12.0,93.00003341222718,mgb_normalisation,93.00003341222715,90.34149293193902,2,8.0,False,2.062328100204468
,2024-07-22 16:17:32,sub_117,3,distance,cathedral,spatial_unmasking,2,91,0,0,_eight_,talker-p248_sex-f_text-_eight_.wav,p248,f,5,48,12.0,7.0,RX81,6,0.0,0.0,7.0,76.34149293193902,babble-reversed_n13_p229-five-p318-three-p307-two-p245-four-p284-nine-p248-eight.wav,10,RX81,11,0.0,0.0,12.0,93.00003341222715,mgb_normalisation,93.00003341222715,90.34149293193902,8,8.0,True,1.1249215602874756
,2024-07-22 16:17:35,sub_117,3,distance,cathedral,spatial_unmasking,2,92,0,0,_eight_,talker-p248_sex-f_text-_eight_.wav,p248,f,5,49,12.0,7.0,RX81,6,0.0,0.0,7.0,76.34149293193902,babble-reversed_n13_p318-three-p307-one-p256-five-p248-nine-p245-two-p284-eight.wav,10,RX81,11,0.0,0.0,12.0,93.00003341222718,mgb_normalisation,93.00003341222715,90.34149293193902,8,8.0,True,1.062401294708252
,2024-07-22 16:20:26,sub_117,3,distance,cathedral,spatial_unmasking,3,93,0,0,_eight_,talker-p248_sex-f_text-_eight_.wav,p248,f,5,1,6.0,7.0,RX81,6,0.0,0.0,7.0,92.34149293193902,babble-reversed_n13_p318-nine-p256-five-p307-eight-p268-three-p248-one-p245-four.wav,4,RX81,5,0.0,0.0,6.0,89.31368318402099,mgb_normalisation,89.31368318402099,90.34149293193902,8,3.0,False,2.0623555183410645
,2024-07-22 16:20:30,sub_117,3,distance,cathedral,spatial_unmasking,3,94,0,0,_four_,talker-p248_sex-f_text-_four_.wav,p248,f,5,2,6.0,7.0,RX81,6,0.0,0.0,7.0,94.341492931939,babble-reversed_n13_p318-five-p256-nine-p307-eight-p248-two-p245-four-p284-three.wav,4,RX81,5,0.0,0.0,6.0,89.31368318402099,mgb_normalisation,89.31368318402099,90.34149293193902,4,4.0,True,1.062424659729004
,2024-07-22 16:20:33,sub_117,3,distance,cathedral,spatial_unmasking,3,95,0,0,_six_,talker-p248_sex-f_text-_six_.wav,p248,f,5,3,6.0,7.0,RX81,6,0.0,0.0,7.0,94.341492931939,babble-reversed_n13_p256-five-p307-nine-p318-three-p284-eight-p268-one-p248-two.wav,4,RX81,5,0.0,0.0,6.0,89.31368318402099,mgb_normalisation,89.31368318402099,90.34149293193902,6,6.0,True,0.9374337196350098
,2024-07-22 16:20:37,sub_117,3,distance,cathedral,spatial_unmasking,3,96,0,0,_nine_,talker-p248_sex-f_text-_nine_.wav,p248,f,5,4,6.0,7.0,RX81,6,0.0,0.0,7.0,92.34149293193902,babble-reversed_n13_p229-five-p256-one-p318-three-p248-nine-p268-four-p284-eight.wav,4,RX81,5,0.0,0.0,6.0,89.31368318402099,mgb_normalisation,89.31368318402099,90.34149293193902,9,9.0,True,1.4998955726623535
,2024-07-22 16:20:40,sub_117,3,distance,cathedral,spatial_unmasking,3,97,0,0,_two_,talker-p248_sex-f_text-_two_.wav,p248,f,5,5,6.0,7.0,RX81,6,0.0,0.0,7.0,92.34149293193902,babble-reversed_n13_p229-two-p307-five-p318-four-p284-one-p248-nine-p268-eight.wav,4,RX81,5,0.0,0.0,6.0,89.31368318402099,mgb_normalisation,89.31368318402099,90.34149293193902,2,2.0,True,1.1874165534973145
,2024-07-22 16:20:44,sub_117,3,distance,cathedral,spatial_unmasking,3,98,0,0,_four_,talker-p248_sex-f_text-_four_.wav,p248,f,5,6,6.0,7.0,RX81,6,0.0,0.0,7.0,90.341492931939,babble-reversed_n13_p229-five-p318-two-p307-eight-p268-three-p248-four-p245-one.wav,4,RX81,5,0.0,0.0,6.0,89.313683184021,mgb_normalisation,89.31368318402099,90.34149293193902,4,4.0,True,0.8749382495880127
,2024-07-22 16:20:47,sub_117,3,distance,cathedral,spatial_unmasking,3,99,0,0,_two_,talker-p248_sex-f_text-_two_.wav,p248,f,5,7,6.0,7.0,RX81,6,0.0,0.0,7.0,90.34149293193904,babble-reversed_n13_p318-three-p307-one-p256-five-p248-nine-p245-two-p284-eight.wav,4,RX81,5,0.0,0.0,6.0,89.31368318402099,mgb_normalisation,89.31368318402099,90.34149293193902,2,2.0,True,0.9999301433563232
,2024-07-22 16:20:50,sub_117,3,distance,cathedral,spatial_unmasking,3,100,0,0,_four_,talker-p248_sex-f_text-_four_.wav,p248,f,5,8,6.0,7.0,RX81,6,0.0,0.0,7.0,88.34149293193902,babble-reversed_n13_p256-four-p229-eight-p307-five-p248-three-p245-one-p284-two.wav,4,RX81,5,0.0,0.0,6.0,89.31368318402099,mgb_normalisation,89.31368318402099,90.34149293193902,4,4.0,True,0.8124434947967529
,2024-07-22 16:20:54,sub_117,3,distance,cathedral,spatial_unmasking,3,101,0,0,_five_,talker-p248_sex-f_text-_five_.wav,p248,f,5,9,6.0,7.0,RX81,6,0.0,0.0,7.0,88.34149293193902,babble-reversed_n13_p256-eight-p318-two-p307-five-p245-four-p268-nine-p284-one.wav,4,RX81,5,0.0,0.0,6.0,89.31368318402099,mgb_normalisation,89.31368318402099,90.34149293193902,5,5.0,True,0.8749387264251709
,2024-07-22 16:20:57,sub_117,3,distance,cathedral,spatial_unmasking,3,102,0,0,_two_,talker-p248_sex-f_text-_two_.wav,p248,f,5,10,6.0,7.0,RX81,6,0.0,0.0,7.0,86.34149293193902,babble-reversed_n13_p229-one-p318-eight-p256-three-p268-two-p245-five-p248-nine.wav,4,RX81,5,0.0,0.0,6.0,89.31368318402099,mgb_normalisation,89.31368318402099,90.34149293193902,2,2.0,True,0.7499470710754395
,2024-07-22 16:21:00,sub_117,3,distance,cathedral,spatial_unmasking,3,103,0,0,_two_,talker-p248_sex-f_text-_two_.wav,p248,f,5,11,6.0,7.0,RX81,6,0.0,0.0,7.0,86.34149293193902,babble-reversed_n13_p307-four-p318-three-p256-eight-p284-two-p245-nine-p248-five.wav,4,RX81,5,0.0,0.0,6.0,89.31368318402099,mgb_normalisation,89.31368318402099,90.34149293193902,2,2.0,True,0.7499470710754395
,2024-07-22 16:21:03,sub_117,3,distance,cathedral,spatial_unmasking,3,104,0,0,_two_,talker-p248_sex-f_text-_two_.wav,p248,f,5,12,6.0,7.0,RX81,6,0.0,0.0,7.0,84.34149293193903,babble-reversed_n13_p307-five-p229-three-p318-nine-p245-four-p268-eight-p284-two.wav,4,RX81,5,0.0,0.0,6.0,89.31368318402099,mgb_normalisation,89.31368318402099,90.34149293193902,2,2.0,True,0.812443733215332
,2024-07-22 16:21:06,sub_117,3,distance,cathedral,spatial_unmasking,3,105,0,0,_six_,talker-p248_sex-f_text-_six_.wav,p248,f,5,13,6.0,7.0,RX81,6,0.0,0.0,7.0,84.341492931939,babble-reversed_n13_p229-five-p318-three-p307-two-p245-four-p284-nine-p248-eight.wav,4,RX81,5,0.0,0.0,6.0,89.31368318402099,mgb_normalisation,89.31368318402099,90.34149293193902,6,6.0,True,0.8124430179595947
,2024-07-22 16:21:10,sub_117,3,distance,cathedral,spatial_unmasking,3,106,0,0,_five_,talker-p248_sex-f_text-_five_.wav,p248,f,5,14,6.0,7.0,RX81,6,0.0,0.0,7.0,82.341492931939,babble-reversed_n13_p256-four-p229-two-p318-five-p268-one-p248-eight-p245-three.wav,4,RX81,5,0.0,0.0,6.0,89.31368318402099,mgb_normalisation,89.31368318402099,90.34149293193902,5,5.0,True,0.8749399185180664
,2024-07-22 16:21:13,sub_117,3,distance,cathedral,spatial_unmasking,3,107,0,0,_eight_,talker-p248_sex-f_text-_eight_.wav,p248,f,5,15,6.0,7.0,RX81,6,0.0,0.0,7.0,82.34149293193902,babble-reversed_n13_p229-three-p307-one-p318-two-p245-eight-p268-five-p284-four.wav,4,RX81,5,0.0,0.0,6.0,89.31368318402099,mgb_normalisation,89.31368318402099,90.34149293193902,8,8.0,True,1.3749051094055176
,2024-07-22 16:21:17,sub_117,3,distance,cathedral,spatial_unmasking,3,108,0,0,_four_,talker-p248_sex-f_text-_four_.wav,p248,f,5,16,6.0,7.0,RX81,6,0.0,0.0,7.0,80.341492931939,babble-reversed_n13_p318-five-p229-three-p256-four-p268-eight-p248-one-p245-nine.wav,4,RX81,5,0.0,0.0,6.0,89.31368318402099,mgb_normalisation,89.31368318402099,90.34149293193902,4,9.0,False,1.1874175071716309
,2024-07-22 16:21:20,sub_117,3,distance,cathedral,spatial_unmasking,3,109,0,0,_nine_,talker-p248_sex-f_text-_nine_.wav,p248,f,5,17,6.0,7.0,RX81,6,0.0,0.0,7.0,81.34149293193902,babble-reversed_n13_p318-three-p229-one-p256-eight-p245-five-p248-four-p284-nine.wav,4,RX81,5,0.0,0.0,6.0,89.313683184021,mgb_normalisation,89.31368318402099,90.34149293193902,9,9.0,True,1.0624427795410156
,2024-07-22 16:21:24,sub_117,3,distance,cathedral,spatial_unmasking,3,110,0,0,_two_,talker-p248_sex-f_text-_two_.wav,p248,f,5,18,6.0,7.0,RX81,6,0.0,0.0,7.0,81.34149293193902,babble-reversed_n13_p229-five-p256-three-p318-nine-p248-two-p284-four-p268-one.wav,4,RX81,5,0.0,0.0,6.0,89.313683184021,mgb_normalisation,89.31368318402099,90.34149293193902,2,2.0,True,0.9374349117279052
,2024-07-22 16:21:27,sub_117,3,distance,cathedral,spatial_unmasking,3,111,0,0,_three_,talker-p248_sex-f_text-_three_.wav,p248,f,5,19,6.0,7.0,RX81,6,0.0,0.0,7.0,80.341492931939,babble-reversed_n13_p229-three-p256-nine-p318-five-p248-one-p245-eight-p284-two.wav,4,RX81,5,0.0,0.0,6.0,89.31368318402099,mgb_normalisation,89.31368318402099,90.34149293193902,3,3.0,True,1.2499125003814695
,2024-07-22 16:21:32,sub_117,3,distance,cathedral,spatial_unmasking,3,112,0,0,_eight_,talker-p248_sex-f_text-_eight_.wav,p248,f,5,20,6.0,7.0,RX81,6,0.0,0.0,7.0,80.34149293193903,babble-reversed_n13_p318-five-p229-three-p256-four-p268-eight-p248-one-p245-nine.wav,4,RX81,5,0.0,0.0,6.0,89.31368318402099,mgb_normalisation,89.31368318402099,90.34149293193902,8,8.0,True,2.437354803085327
,2024-07-22 16:21:37,sub_117,3,distance,cathedral,spatial_unmasking,3,113,0,0,_four_,talker-p248_sex-f_text-_four_.wav,p248,f,5,21,6.0,7.0,RX81,6,0.0,0.0,7.0,79.341492931939,babble-reversed_n13_p318-one-p307-two-p256-eight-p284-three-p248-five-p245-four.wav,4,RX81,5,0.0,0.0,6.0,89.313683184021,mgb_normalisation,89.31368318402099,90.34149293193902,4,4.0,True,2.3123373985290527
,2024-07-22 16:21:41,sub_117,3,distance,cathedral,spatial_unmasking,3,114,0,0,_eight_,talker-p248_sex-f_text-_eight_.wav,p248,f,5,22,6.0,7.0,RX81,6,0.0,0.0,7.0,79.34149293193902,babble-reversed_n13_p256-eight-p318-two-p307-five-p245-four-p268-nine-p284-one.wav,4,RX81,5,0.0,0.0,6.0,89.31368318402099,mgb_normalisation,89.31368318402099,90.34149293193902,8,8.0,True,1.3124077320098877
,2024-07-22 16:21:49,sub_117,3,distance,cathedral,spatial_unmasking,3,115,0,0,_one_,talker-p248_sex-f_text-_one_.wav,p248,f,5,23,6.0,7.0,RX81,6,0.0,0.0,7.0,78.34149293193902,babble-reversed_n13_p318-nine-p307-eight-p229-two-p284-one-p248-three-p245-five.wav,4,RX81,5,0.0,0.0,6.0,89.31368318402099,mgb_normalisation,89.31368318402099,90.34149293193902,1,8.0,False,5.49961519241333
,2024-07-22 16:21:55,sub_117,3,distance,cathedral,spatial_unmasking,3,116,0,0,_one_,talker-p248_sex-f_text-_one_.wav,p248,f,5,24,6.0,7.0,RX81,6,0.0,0.0,7.0,79.34149293193902,babble-reversed_n13_p229-nine-p307-five-p256-two-p248-three-p245-one-p268-eight.wav,4,RX81,5,0.0,0.0,6.0,89.31368318402099,mgb_normalisation,89.31368318402099,90.34149293193902,1,3.0,False,4.499685525894165
,2024-07-22 16:21:59,sub_117,3,distance,cathedral,spatial_unmasking,3,117,0,0,_five_,talker-p248_sex-f_text-_five_.wav,p248,f,5,25,6.0,7.0,RX81,6,0.0,0.0,7.0,80.341492931939,babble-reversed_n13_p229-one-p318-eight-p256-three-p268-nine-p248-five-p284-four.wav,4,RX81,5,0.0,0.0,6.0,89.31368318402099,mgb_normalisation,89.31368318402099,90.34149293193902,5,5.0,True,0.9998624324798584
,2024-07-22 16:22:02,sub_117,3,distance,cathedral,spatial_unmasking,3,118,0,0,_six_,talker-p248_sex-f_text-_six_.wav,p248,f,5,26,6.0,7.0,RX81,6,0.0,0.0,7.0,80.34149293193903,babble-reversed_n13_p229-one-p318-eight-p256-three-p268-two-p245-five-p248-nine.wav,4,RX81,5,0.0,0.0,6.0,89.31368318402099,mgb_normalisation,89.31368318402099,90.34149293193902,6,6.0,True,0.8749384880065918
,2024-07-22 16:22:06,sub_117,3,distance,cathedral,spatial_unmasking,3,119,0,0,_six_,talker-p248_sex-f_text-_six_.wav,p248,f,5,27,6.0,7.0,RX81,6,0.0,0.0,7.0,79.34149293193902,babble-reversed_n13_p229-two-p307-five-p318-four-p284-one-p248-nine-p268-eight.wav,4,RX81,5,0.0,0.0,6.0,89.31368318402099,mgb_normalisation,89.31368318402099,90.34149293193902,6,6.0,True,1.0624253749847412
,2024-07-22 16:22:09,sub_117,3,distance,cathedral,spatial_unmasking,3,120,0,0,_six_,talker-p248_sex-f_text-_six_.wav,p248,f,5,28,6.0,7.0,RX81,6,0.0,0.0,7.0,79.34149293193902,babble-reversed_n13_p229-eight-p256-nine-p318-four-p245-three-p268-five-p284-two.wav,4,RX81,5,0.0,0.0,6.0,89.31368318402099,mgb_normalisation,89.31368318402099,90.34149293193902,6,6.0,True,0.8124434947967529
,2024-07-22 16:22:14,sub_117,3,distance,cathedral,spatial_unmasking,3,121,0,0,_eight_,talker-p248_sex-f_text-_eight_.wav,p248,f,5,29,6.0,7.0,RX81,6,0.0,0.0,7.0,78.34149293193902,babble-reversed_n13_p229-three-p307-one-p318-two-p245-eight-p268-five-p284-four.wav,4,RX81,5,0.0,0.0,6.0,89.31368318402099,mgb_normalisation,89.31368318402099,90.34149293193902,8,3.0,False,2.8747987747192383
,2024-07-22 16:22:18,sub_117,3,distance,cathedral,spatial_unmasking,3,122,0,0,_three_,talker-p248_sex-f_text-_three_.wav,p248,f,5,30,6.0,7.0,RX81,6,0.0,0.0,7.0,79.341492931939,babble-reversed_n13_p229-three-p256-one-p307-two-p284-eight-p268-five-p248-nine.wav,4,RX81,5,0.0,0.0,6.0,89.31368318402099,mgb_normalisation,89.31368318402099,90.34149293193902,3,3.0,True,1.499895095825195
,2024-07-22 16:22:21,sub_117,3,distance,cathedral,spatial_unmasking,3,123,0,0,_six_,talker-p248_sex-f_text-_six_.wav,p248,f,5,31,6.0,7.0,RX81,6,0.0,0.0,7.0,79.34149293193902,babble-reversed_n13_p307-five-p229-three-p318-nine-p245-four-p268-eight-p284-two.wav,4,RX81,5,0.0,0.0,6.0,89.31368318402099,mgb_normalisation,89.31368318402099,90.34149293193902,6,6.0,True,0.9999306201934814
,2024-07-22 16:22:25,sub_117,3,distance,cathedral,spatial_unmasking,3,124,0,0,_two_,talker-p248_sex-f_text-_two_.wav,p248,f,5,32,6.0,7.0,RX81,6,0.0,0.0,7.0,78.34149293193902,babble-reversed_n13_p229-two-p318-eight-p256-three-p268-one-p248-nine-p284-five.wav,4,RX81,5,0.0,0.0,6.0,89.31368318402099,mgb_normalisation,89.31368318402099,90.34149293193902,2,2.0,True,1.0624256134033203
,2024-07-22 16:22:28,sub_117,3,distance,cathedral,spatial_unmasking,3,125,0,0,_three_,talker-p248_sex-f_text-_three_.wav,p248,f,5,33,6.0,7.0,RX81,6,0.0,0.0,7.0,78.34149293193902,babble-reversed_n13_p307-five-p229-three-p318-nine-p245-four-p268-eight-p284-two.wav,4,RX81,5,0.0,0.0,6.0,89.31368318402099,mgb_normalisation,89.31368318402099,90.34149293193902,3,3.0,True,1.0624282360076904
,2024-07-22 16:22:32,sub_117,3,distance,cathedral,spatial_unmasking,3,126,0,0,_four_,talker-p248_sex-f_text-_four_.wav,p248,f,5,34,6.0,7.0,RX81,6,0.0,0.0,7.0,77.341492931939,babble-reversed_n13_p229-one-p318-eight-p256-three-p268-two-p245-five-p248-nine.wav,4,RX81,5,0.0,0.0,6.0,89.31368318402099,mgb_normalisation,89.31368318402099,90.34149293193902,4,2.0,False,0.999929904937744
,2024-07-22 16:22:35,sub_117,3,distance,cathedral,spatial_unmasking,3,127,0,0,_nine_,talker-p248_sex-f_text-_nine_.wav,p248,f,5,35,6.0,7.0,RX81,6,0.0,0.0,7.0,78.34149293193902,babble-reversed_n13_p229-five-p256-three-p318-nine-p248-two-p284-four-p268-one.wav,4,RX81,5,0.0,0.0,6.0,89.313683184021,mgb_normalisation,89.31368318402099,90.34149293193902,9,3.0,False,0.9374337196350098
,2024-07-22 16:22:38,sub_117,3,distance,cathedral,spatial_unmasking,3,128,0,0,_five_,talker-p248_sex-f_text-_five_.wav,p248,f,5,36,6.0,7.0,RX81,6,0.0,0.0,7.0,79.341492931939,babble-reversed_n13_p256-three-p318-one-p307-two-p284-nine-p268-four-p245-eight.wav,4,RX81,5,0.0,0.0,6.0,89.31368318402099,mgb_normalisation,89.31368318402099,90.34149293193902,5,9.0,False,0.8125073909759521
,2024-07-22 16:22:41,sub_117,3,distance,cathedral,spatial_unmasking,3,129,0,0,_six_,talker-p248_sex-f_text-_six_.wav,p248,f,5,37,6.0,7.0,RX81,6,0.0,0.0,7.0,80.34149293193903,babble-reversed_n13_p229-one-p318-eight-p256-three-p268-two-p245-five-p248-nine.wav,4,RX81,5,0.0,0.0,6.0,89.31368318402099,mgb_normalisation,89.31368318402099,90.34149293193902,6,6.0,True,0.93743634223938
,2024-07-22 16:22:45,sub_117,3,distance,cathedral,spatial_unmasking,3,130,0,0,_eight_,talker-p248_sex-f_text-_eight_.wav,p248,f,5,38,6.0,7.0,RX81,6,0.0,0.0,7.0,80.34149293193903,babble-reversed_n13_p256-eight-p229-three-p307-nine-p245-five-p248-four-p268-two.wav,4,RX81,5,0.0,0.0,6.0,89.31368318402099,mgb_normalisation,89.31368318402099,90.34149293193902,8,3.0,False,1.1249206066131592
,2024-07-22 16:22:48,sub_117,3,distance,cathedral,spatial_unmasking,3,131,0,0,_three_,talker-p248_sex-f_text-_three_.wav,p248,f,5,39,6.0,7.0,RX81,6,0.0,0.0,7.0,81.34149293193902,babble-reversed_n13_p318-nine-p256-five-p307-eight-p268-three-p248-one-p245-four.wav,4,RX81,5,0.0,0.0,6.0,89.31368318402099,mgb_normalisation,89.31368318402099,90.34149293193902,3,3.0,True,0.8749387264251709
,2024-07-22 16:22:52,sub_117,3,distance,cathedral,spatial_unmasking,3,132,0,0,_eight_,talker-p248_sex-f_text-_eight_.wav,p248,f,5,40,6.0,7.0,RX81,6,0.0,0.0,7.0,81.34149293193902,babble-reversed_n13_p229-three-p256-nine-p318-five-p248-one-p245-eight-p284-two.wav,4,RX81,5,0.0,0.0,6.0,89.31368318402099,mgb_normalisation,89.31368318402099,90.34149293193902,8,9.0,False,0.9374094009399414
,2024-07-22 16:22:56,sub_117,3,distance,cathedral,spatial_unmasking,3,133,0,0,_six_,talker-p248_sex-f_text-_six_.wav,p248,f,5,41,6.0,7.0,RX81,6,0.0,0.0,7.0,82.34149293193902,babble-reversed_n13_p256-four-p229-two-p318-five-p268-one-p248-eight-p245-three.wav,4,RX81,5,0.0,0.0,6.0,89.31368318402099,mgb_normalisation,89.31368318402099,90.34149293193902,6,6.0,True,2.0623552799224854
,2024-07-22 16:23:00,sub_117,3,distance,cathedral,spatial_unmasking,3,134,0,0,_two_,talker-p248_sex-f_text-_two_.wav,p248,f,5,42,6.0,7.0,RX81,6,0.0,0.0,7.0,82.34149293193902,babble-reversed_n13_p256-eight-p318-five-p307-four-p245-three-p268-one-p284-nine.wav,4,RX81,5,0.0,0.0,6.0,89.31368318402099,mgb_normalisation,89.31368318402099,90.34149293193902,2,2.0,True,1.1873891353607178
,2024-07-22 16:23:03,sub_117,3,distance,cathedral,spatial_unmasking,3,135,0,0,_six_,talker-p248_sex-f_text-_six_.wav,p248,f,5,43,6.0,7.0,RX81,6,0.0,0.0,7.0,81.34149293193902,babble-reversed_n13_p256-three-p318-two-p229-nine-p248-four-p284-one-p268-eight.wav,4,RX81,5,0.0,0.0,6.0,89.31368318402099,mgb_normalisation,89.31368318402099,90.34149293193902,6,6.0,True,1.2499120235443115
,2024-07-22 16:23:07,sub_117,3,distance,cathedral,spatial_unmasking,3,136,0,0,_four_,talker-p248_sex-f_text-_four_.wav,p248,f,5,44,6.0,7.0,RX81,6,0.0,0.0,7.0,81.341492931939,babble-reversed_n13_p256-four-p229-two-p318-five-p268-one-p248-eight-p245-three.wav,4,RX81,5,0.0,0.0,6.0,89.31368318402099,mgb_normalisation,89.31368318402099,90.34149293193902,4,3.0,False,0.999929904937744
,2024-07-22 16:23:10,sub_117,3,distance,cathedral,spatial_unmasking,3,137,0,0,_five_,talker-p248_sex-f_text-_five_.wav,p248,f,5,45,6.0,7.0,RX81,6,0.0,0.0,7.0,82.341492931939,babble-reversed_n13_p256-eight-p318-five-p307-four-p245-three-p268-one-p284-nine.wav,4,RX81,5,0.0,0.0,6.0,89.31368318402099,mgb_normalisation,89.31368318402099,90.34149293193902,5,5.0,True,0.8124446868896484
,2024-07-22 16:23:13,sub_117,3,distance,cathedral,spatial_unmasking,3,138,0,0,_six_,talker-p248_sex-f_text-_six_.wav,p248,f,5,46,6.0,7.0,RX81,6,0.0,0.0,7.0,82.34149293193902,babble-reversed_n13_p229-five-p318-two-p307-eight-p268-three-p248-four-p245-one.wav,4,RX81,5,0.0,0.0,6.0,89.313683184021,mgb_normalisation,89.31368318402099,90.34149293193902,6,6.0,True,1.0624263286590576
,2024-07-22 16:27:44,sub_117,3,distance,cathedral,spatial_unmasking,4,139,0,0,_four_,talker-p248_sex-f_text-_four_.wav,p248,f,5,1,7.0,7.0,RX81,6,0.0,0.0,7.0,92.34149293193902,babble-reversed_n13_p256-two-p307-five-p318-nine-p248-eight-p245-four-p284-one.wav,5,RX81,6,0.0,0.0,7.0,90.34149293193904,mgb_normalisation,90.34149293193902,90.34149293193902,4,4.0,True,1.687382459640503
,2024-07-22 16:27:47,sub_117,3,distance,cathedral,spatial_unmasking,4,140,0,0,_one_,talker-p248_sex-f_text-_one_.wav,p248,f,5,2,7.0,7.0,RX81,6,0.0,0.0,7.0,88.34149293193903,babble-reversed_n13_p318-one-p307-two-p256-eight-p284-three-p248-five-p245-four.wav,5,RX81,6,0.0,0.0,7.0,90.34149293193904,mgb_normalisation,90.34149293193902,90.34149293193902,1,1.0,True,0.8749370574951172
,2024-07-22 16:27:50,sub_117,3,distance,cathedral,spatial_unmasking,4,141,0,0,_six_,talker-p248_sex-f_text-_six_.wav,p248,f,5,3,7.0,7.0,RX81,6,0.0,0.0,7.0,84.341492931939,babble-reversed_n13_p256-four-p229-eight-p307-five-p248-three-p245-one-p284-two.wav,5,RX81,6,0.0,0.0,7.0,90.341492931939,mgb_normalisation,90.34149293193902,90.34149293193902,6,6.0,True,0.8749387264251709
,2024-07-22 16:27:54,sub_117,3,distance,cathedral,spatial_unmasking,4,142,0,0,_one_,talker-p248_sex-f_text-_one_.wav,p248,f,5,4,7.0,7.0,RX81,6,0.0,0.0,7.0,80.34149293193903,babble-reversed_n13_p256-four-p307-eight-p318-two-p248-three-p284-nine-p268-one.wav,5,RX81,6,0.0,0.0,7.0,90.34149293193904,mgb_normalisation,90.34149293193902,90.34149293193902,1,9.0,False,1.0624256134033203
,2024-07-22 16:27:57,sub_117,3,distance,cathedral,spatial_unmasking,4,143,0,0,_five_,talker-p248_sex-f_text-_five_.wav,p248,f,5,5,7.0,7.0,RX81,6,0.0,0.0,7.0,82.341492931939,babble-reversed_n13_p229-two-p307-five-p318-four-p284-one-p248-nine-p268-eight.wav,5,RX81,6,0.0,0.0,7.0,90.34149293193904,mgb_normalisation,90.34149293193902,90.34149293193902,5,5.0,True,1.0624258518218994
,2024-07-22 16:28:01,sub_117,3,distance,cathedral,spatial_unmasking,4,144,0,0,_three_,talker-p248_sex-f_text-_three_.wav,p248,f,5,6,7.0,7.0,RX81,6,0.0,0.0,7.0,82.34149293193902,babble-reversed_n13_p229-two-p307-five-p318-four-p284-one-p248-nine-p268-eight.wav,5,RX81,6,0.0,0.0,7.0,90.34149293193904,mgb_normalisation,90.34149293193902,90.34149293193902,3,3.0,True,1.4373996257781982
,2024-07-22 16:28:06,sub_117,3,distance,cathedral,spatial_unmasking,4,145,0,0,_eight_,talker-p248_sex-f_text-_eight_.wav,p248,f,5,7,7.0,7.0,RX81,6,0.0,0.0,7.0,80.34149293193903,babble-reversed_n13_p229-five-p256-three-p318-nine-p248-two-p284-four-p268-one.wav,5,RX81,6,0.0,0.0,7.0,90.34149293193904,mgb_normalisation,90.34149293193902,90.34149293193902,8,2.0,False,3.1872763633728027
,2024-07-22 16:28:10,sub_117,3,distance,cathedral,spatial_unmasking,4,146,0,0,_one_,talker-p248_sex-f_text-_one_.wav,p248,f,5,8,7.0,7.0,RX81,6,0.0,0.0,7.0,81.34149293193902,babble-reversed_n13_p318-nine-p307-eight-p229-two-p284-one-p248-three-p245-five.wav,5,RX81,6,0.0,0.0,7.0,90.34149293193904,mgb_normalisation,90.34149293193902,90.34149293193902,1,3.0,False,1.874868392944336
,2024-07-22 16:28:14,sub_117,3,distance,cathedral,spatial_unmasking,4,147,0,0,_nine_,talker-p248_sex-f_text-_nine_.wav,p248,f,5,9,7.0,7.0,RX81,6,0.0,0.0,7.0,82.34149293193902,babble-reversed_n13_p318-five-p256-nine-p307-two-p245-eight-p248-one-p284-four.wav,5,RX81,6,0.0,0.0,7.0,90.34149293193904,mgb_normalisation,90.34149293193902,90.34149293193902,9,9.0,True,1.1249208450317385
,2024-07-22 16:28:17,sub_117,3,distance,cathedral,spatial_unmasking,4,148,0,0,_three_,talker-p248_sex-f_text-_three_.wav,p248,f,5,10,7.0,7.0,RX81,6,0.0,0.0,7.0,82.34149293193902,babble-reversed_n13_p229-nine-p318-one-p307-two-p248-eight-p245-five-p284-four.wav,5,RX81,6,0.0,0.0,7.0,90.34149293193904,mgb_normalisation,90.34149293193902,90.34149293193902,3,3.0,True,1.1874182224273682
,2024-07-22 16:28:21,sub_117,3,distance,cathedral,spatial_unmasking,4,149,0,0,_three_,talker-p248_sex-f_text-_three_.wav,p248,f,5,11,7.0,7.0,RX81,6,0.0,0.0,7.0,81.34149293193902,babble-reversed_n13_p256-four-p229-two-p318-five-p268-one-p248-eight-p245-three.wav,5,RX81,6,0.0,0.0,7.0,90.341492931939,mgb_normalisation,90.34149293193902,90.34149293193902,3,3.0,True,1.1249213218688965
,2024-07-22 16:28:25,sub_117,3,distance,cathedral,spatial_unmasking,4,150,0,0,_nine_,talker-p248_sex-f_text-_nine_.wav,p248,f,5,12,7.0,7.0,RX81,6,0.0,0.0,7.0,81.34149293193902,babble-reversed_n13_p229-one-p318-eight-p256-three-p268-two-p245-five-p248-nine.wav,5,RX81,6,0.0,0.0,7.0,90.341492931939,mgb_normalisation,90.34149293193902,90.34149293193902,9,8.0,False,1.6873815059661863
,2024-07-22 16:28:28,sub_117,3,distance,cathedral,spatial_unmasking,4,151,0,0,_two_,talker-p248_sex-f_text-_two_.wav,p248,f,5,13,7.0,7.0,RX81,6,0.0,0.0,7.0,82.34149293193902,babble-reversed_n13_p256-nine-p307-four-p229-one-p284-three-p248-two-p245-five.wav,5,RX81,6,0.0,0.0,7.0,90.34149293193904,mgb_normalisation,90.34149293193902,90.34149293193902,2,2.0,True,1.1874167919158936
,2024-07-22 16:28:35,sub_117,3,distance,cathedral,spatial_unmasking,4,152,0,0,_eight_,talker-p248_sex-f_text-_eight_.wav,p248,f,5,14,7.0,7.0,RX81,6,0.0,0.0,7.0,82.34149293193902,babble-reversed_n13_p307-two-p229-one-p256-five-p248-nine-p284-three-p268-eight.wav,5,RX81,6,0.0,0.0,7.0,90.34149293193904,mgb_normalisation,90.34149293193902,90.34149293193902,8,3.0,False,4.437189102172852
,2024-07-22 16:28:38,sub_117,3,distance,cathedral,spatial_unmasking,4,153,0,0,_nine_,talker-p248_sex-f_text-_nine_.wav,p248,f,5,15,7.0,7.0,RX81,6,0.0,0.0,7.0,83.34149293193902,babble-reversed_n13_p318-three-p307-one-p256-five-p248-nine-p245-two-p284-eight.wav,5,RX81,6,0.0,0.0,7.0,90.34149293193904,mgb_normalisation,90.34149293193902,90.34149293193902,9,8.0,False,1.2499120235443115
,2024-07-22 16:28:42,sub_117,3,distance,cathedral,spatial_unmasking,4,154,0,0,_three_,talker-p248_sex-f_text-_three_.wav,p248,f,5,16,7.0,7.0,RX81,6,0.0,0.0,7.0,84.341492931939,babble-reversed_n13_p229-one-p318-eight-p256-three-p268-nine-p248-five-p284-four.wav,5,RX81,6,0.0,0.0,7.0,90.341492931939,mgb_normalisation,90.34149293193902,90.34149293193902,3,3.0,True,0.9374091625213624
,2024-07-22 16:28:45,sub_117,3,distance,cathedral,spatial_unmasking,4,155,0,0,_five_,talker-p248_sex-f_text-_five_.wav,p248,f,5,17,7.0,7.0,RX81,6,0.0,0.0,7.0,84.341492931939,babble-reversed_n13_p318-three-p229-one-p256-eight-p245-five-p248-four-p284-nine.wav,5,RX81,6,0.0,0.0,7.0,90.34149293193904,mgb_normalisation,90.34149293193902,90.34149293193902,5,5.0,True,0.999931573867798
,2024-07-22 16:28:49,sub_117,3,distance,cathedral,spatial_unmasking,4,156,0,0,_five_,talker-p248_sex-f_text-_five_.wav,p248,f,5,18,7.0,7.0,RX81,6,0.0,0.0,7.0,83.34149293193902,babble-reversed_n13_p307-five-p229-three-p318-nine-p245-four-p268-eight-p284-two.wav,5,RX81,6,0.0,0.0,7.0,90.341492931939,mgb_normalisation,90.34149293193902,90.34149293193902,5,5.0,True,1.624886989593506
,2024-07-22 16:28:52,sub_117,3,distance,cathedral,spatial_unmasking,4,157,0,0,_three_,talker-p248_sex-f_text-_three_.wav,p248,f,5,19,7.0,7.0,RX81,6,0.0,0.0,7.0,83.34149293193902,babble-reversed_n13_p229-five-p256-three-p318-nine-p248-two-p284-four-p268-one.wav,5,RX81,6,0.0,0.0,7.0,90.34149293193904,mgb_normalisation,90.34149293193902,90.34149293193902,3,3.0,True,1.249912977218628
,2024-07-22 16:28:56,sub_117,3,distance,cathedral,spatial_unmasking,4,158,0,0,_four_,talker-p248_sex-f_text-_four_.wav,p248,f,5,20,7.0,7.0,RX81,6,0.0,0.0,7.0,82.34149293193902,babble-reversed_n13_p318-five-p256-nine-p307-two-p245-eight-p248-one-p284-four.wav,5,RX81,6,0.0,0.0,7.0,90.34149293193904,mgb_normalisation,90.34149293193902,90.34149293193902,4,4.0,True,0.999929428100586
,2024-07-22 16:28:59,sub_117,3,distance,cathedral,spatial_unmasking,4,159,0,0,_nine_,talker-p248_sex-f_text-_nine_.wav,p248,f,5,21,7.0,7.0,RX81,6,0.0,0.0,7.0,82.34149293193902,babble-reversed_n13_p256-two-p307-five-p318-nine-p248-eight-p245-four-p284-one.wav,5,RX81,6,0.0,0.0,7.0,90.34149293193904,mgb_normalisation,90.34149293193902,90.34149293193902,9,9.0,True,0.9374346733093262
,2024-07-22 16:29:02,sub_117,3,distance,cathedral,spatial_unmasking,4,160,0,0,_five_,talker-p248_sex-f_text-_five_.wav,p248,f,5,22,7.0,7.0,RX81,6,0.0,0.0,7.0,81.341492931939,babble-reversed_n13_p229-three-p256-nine-p318-five-p248-one-p245-eight-p284-two.wav,5,RX81,6,0.0,0.0,7.0,90.34149293193904,mgb_normalisation,90.34149293193902,90.34149293193902,5,9.0,False,0.8124434947967529
,2024-07-22 16:29:05,sub_117,3,distance,cathedral,spatial_unmasking,4,161,0,0,_three_,talker-p248_sex-f_text-_three_.wav,p248,f,5,23,7.0,7.0,RX81,6,0.0,0.0,7.0,82.34149293193902,babble-reversed_n13_p229-five-p318-two-p307-eight-p268-three-p248-four-p245-one.wav,5,RX81,6,0.0,0.0,7.0,90.34149293193904,mgb_normalisation,90.34149293193902,90.34149293193902,3,3.0,True,1.0624256134033203
,2024-07-22 16:29:09,sub_117,3,distance,cathedral,spatial_unmasking,4,162,0,0,_six_,talker-p248_sex-f_text-_six_.wav,p248,f,5,24,7.0,7.0,RX81,6,0.0,0.0,7.0,82.34149293193902,babble-reversed_n13_p229-one-p318-eight-p256-three-p268-two-p245-five-p248-nine.wav,5,RX81,6,0.0,0.0,7.0,90.341492931939,mgb_normalisation,90.34149293193902,90.34149293193902,6,6.0,True,0.9999308586120604
,2024-07-22 16:29:12,sub_117,3,distance,cathedral,spatial_unmasking,4,163,0,0,_two_,talker-p248_sex-f_text-_two_.wav,p248,f,5,25,7.0,7.0,RX81,6,0.0,0.0,7.0,81.34149293193902,babble-reversed_n13_p318-nine-p256-five-p307-eight-p268-three-p248-one-p245-four.wav,5,RX81,6,0.0,0.0,7.0,90.34149293193904,mgb_normalisation,90.34149293193902,90.34149293193902,2,2.0,True,0.9999310970306396
,2024-07-22 16:29:18,sub_117,3,distance,cathedral,spatial_unmasking,4,164,0,0,_eight_,talker-p248_sex-f_text-_eight_.wav,p248,f,5,26,7.0,7.0,RX81,6,0.0,0.0,7.0,81.34149293193902,babble-reversed_n13_p229-five-p318-two-p307-eight-p268-three-p248-four-p245-one.wav,5,RX81,6,0.0,0.0,7.0,90.34149293193904,mgb_normalisation,90.34149293193902,90.34149293193902,8,4.0,False,3.812295198440552
,2024-07-22 16:29:26,sub_117,3,distance,cathedral,spatial_unmasking,4,165,0,0,_four_,talker-p248_sex-f_text-_four_.wav,p248,f,5,27,7.0,7.0,RX81,6,0.0,0.0,7.0,82.34149293193902,babble-reversed_n13_p229-two-p318-eight-p256-three-p268-one-p248-nine-p284-five.wav,5,RX81,6,0.0,0.0,7.0,90.341492931939,mgb_normalisation,90.34149293193902,90.34149293193902,4,8.0,False,5.312127113342285
,2024-07-22 16:29:29,sub_117,3,distance,cathedral,spatial_unmasking,4,166,0,0,_four_,talker-p248_sex-f_text-_four_.wav,p248,f,5,28,7.0,7.0,RX81,6,0.0,0.0,7.0,83.34149293193902,babble-reversed_n13_p318-three-p229-one-p256-eight-p245-five-p248-four-p284-nine.wav,5,RX81,6,0.0,0.0,7.0,90.34149293193904,mgb_normalisation,90.34149293193902,90.34149293193902,4,4.0,True,1.062450647354126
,2024-07-22 16:29:34,sub_117,3,distance,cathedral,spatial_unmasking,4,167,0,0,_nine_,talker-p248_sex-f_text-_nine_.wav,p248,f,5,29,7.0,7.0,RX81,6,0.0,0.0,7.0,83.34149293193902,babble-reversed_n13_p307-nine-p229-one-p256-eight-p248-four-p284-two-p268-three.wav,5,RX81,6,0.0,0.0,7.0,90.34149293193904,mgb_normalisation,90.34149293193902,90.34149293193902,9,8.0,False,2.187346935272217
,2024-07-22 16:29:37,sub_117,3,distance,cathedral,spatial_unmasking,4,168,0,0,_two_,talker-p248_sex-f_text-_two_.wav,p248,f,5,30,7.0,7.0,RX81,6,0.0,0.0,7.0,84.34149293193903,babble-reversed_n13_p229-five-p256-one-p318-three-p248-nine-p268-four-p284-eight.wav,5,RX81,6,0.0,0.0,7.0,90.341492931939,mgb_normalisation,90.34149293193902,90.34149293193902,2,2.0,True,0.9999308586120604
,2024-07-22 16:29:40,sub_117,3,distance,cathedral,spatial_unmasking,4,169,0,0,_five_,talker-p248_sex-f_text-_five_.wav,p248,f,5,31,7.0,7.0,RX81,6,0.0,0.0,7.0,84.341492931939,babble-reversed_n13_p229-two-p256-three-p318-eight-p284-five-p268-four-p245-one.wav,5,RX81,6,0.0,0.0,7.0,90.34149293193904,mgb_normalisation,90.34149293193902,90.34149293193902,5,5.0,True,0.999929904937744
,2024-07-22 16:29:47,sub_117,3,distance,cathedral,spatial_unmasking,4,170,0,0,_four_,talker-p248_sex-f_text-_four_.wav,p248,f,5,32,7.0,7.0,RX81,6,0.0,0.0,7.0,83.34149293193902,babble-reversed_n13_p229-one-p318-eight-p256-three-p268-two-p245-five-p248-nine.wav,5,RX81,6,0.0,0.0,7.0,90.341492931939,mgb_normalisation,90.34149293193902,90.34149293193902,4,2.0,False,4.312197923660278
,2024-07-22 16:29:53,sub_117,3,distance,cathedral,spatial_unmasking,4,171,0,0,_four_,talker-p248_sex-f_text-_four_.wav,p248,f,5,33,7.0,7.0,RX81,6,0.0,0.0,7.0,84.341492931939,babble-reversed_n13_p307-two-p229-one-p256-five-p248-nine-p284-three-p268-eight.wav,5,RX81,6,0.0,0.0,7.0,90.34149293193904,mgb_normalisation,90.34149293193902,90.34149293193902,4,3.0,False,3.874749422073364
,2024-07-22 16:29:57,sub_117,3,distance,cathedral,spatial_unmasking,4,172,0,0,_four_,talker-p248_sex-f_text-_four_.wav,p248,f,5,34,7.0,7.0,RX81,6,0.0,0.0,7.0,85.341492931939,babble-reversed_n13_p307-five-p229-two-p318-four-p248-three-p245-nine-p268-eight.wav,5,RX81,6,0.0,0.0,7.0,90.341492931939,mgb_normalisation,90.34149293193902,90.34149293193902,4,4.0,True,1.9998602867126465
,2024-07-22 16:30:01,sub_117,3,distance,cathedral,spatial_unmasking,4,173,0,0,_four_,talker-p248_sex-f_text-_four_.wav,p248,f,5,35,7.0,7.0,RX81,6,0.0,0.0,7.0,85.341492931939,babble-reversed_n13_p256-eight-p318-two-p307-five-p245-four-p268-nine-p284-one.wav,5,RX81,6,0.0,0.0,7.0,90.34149293193904,mgb_normalisation,90.34149293193902,90.34149293193902,4,4.0,True,1.249910831451416
,2024-07-22 16:31:55,sub_117,3,distance,cathedral,spatial_unmasking,5,174,0,0,_three_,talker-p248_sex-f_text-_three_.wav,p248,f,5,1,4.0,7.0,RX81,6,0.0,0.0,7.0,92.34149293193902,babble-reversed_n13_p318-one-p307-two-p256-eight-p284-three-p248-five-p245-four.wav,2,RX81,3,0.0,0.0,4.0,87.57049330475357,mgb_normalisation,87.57049330475357,90.34149293193902,3,3.0,True,1.312436580657959
,2024-07-22 16:31:58,sub_117,3,distance,cathedral,spatial_unmasking,5,175,0,0,_one_,talker-p248_sex-f_text-_one_.wav,p248,f,5,2,4.0,7.0,RX81,6,0.0,0.0,7.0,88.34149293193903,babble-reversed_n13_p318-five-p229-four-p256-eight-p284-one-p245-three-p248-two.wav,2,RX81,3,0.0,0.0,4.0,87.57049330475357,mgb_normalisation,87.57049330475357,90.34149293193902,1,1.0,True,0.937434196472168
,2024-07-22 16:32:02,sub_117,3,distance,cathedral,spatial_unmasking,5,176,0,0,_six_,talker-p248_sex-f_text-_six_.wav,p248,f,5,3,4.0,7.0,RX81,6,0.0,0.0,7.0,84.341492931939,babble-reversed_n13_p318-five-p229-three-p256-four-p268-eight-p248-one-p245-nine.wav,2,RX81,3,0.0,0.0,4.0,87.57049330475357,mgb_normalisation,87.57049330475357,90.34149293193902,6,6.0,True,1.062425136566162
,2024-07-22 16:32:05,sub_117,3,distance,cathedral,spatial_unmasking,5,177,0,0,_eight_,talker-p248_sex-f_text-_eight_.wav,p248,f,5,4,4.0,7.0,RX81,6,0.0,0.0,7.0,80.34149293193903,babble-reversed_n13_p318-three-p307-one-p256-five-p248-nine-p245-two-p284-eight.wav,2,RX81,3,0.0,0.0,4.0,87.57049330475357,mgb_normalisation,87.57049330475357,90.34149293193902,8,8.0,True,0.9374351501464844
,2024-07-22 16:32:10,sub_117,3,distance,cathedral,spatial_unmasking,5,178,0,0,_five_,talker-p248_sex-f_text-_five_.wav,p248,f,5,5,4.0,7.0,RX81,6,0.0,0.0,7.0,76.34149293193902,babble-reversed_n13_p307-two-p256-four-p318-three-p284-eight-p248-five-p245-nine.wav,2,RX81,3,0.0,0.0,4.0,87.57049330475357,mgb_normalisation,87.57049330475357,90.34149293193902,5,9.0,False,2.749783754348755
,2024-07-22 16:32:16,sub_117,3,distance,cathedral,spatial_unmasking,5,179,0,0,_eight_,talker-p248_sex-f_text-_eight_.wav,p248,f,5,6,4.0,7.0,RX81,6,0.0,0.0,7.0,78.34149293193902,babble-reversed_n13_p307-two-p256-four-p318-three-p284-eight-p248-five-p245-nine.wav,2,RX81,3,0.0,0.0,4.0,87.57049330475357,mgb_normalisation,87.57049330475357,90.34149293193902,8,9.0,False,3.562251091003418
,2024-07-22 16:32:19,sub_117,3,distance,cathedral,spatial_unmasking,5,180,0,0,_two_,talker-p248_sex-f_text-_two_.wav,p248,f,5,7,4.0,7.0,RX81,6,0.0,0.0,7.0,80.34149293193903,babble-reversed_n13_p229-five-p318-three-p307-two-p245-four-p284-nine-p248-eight.wav,2,RX81,3,0.0,0.0,4.0,87.57049330475357,mgb_normalisation,87.57049330475357,90.34149293193902,2,3.0,False,0.9999301433563232
,2024-07-22 16:32:23,sub_117,3,distance,cathedral,spatial_unmasking,5,181,0,0,_three_,talker-p248_sex-f_text-_three_.wav,p248,f,5,8,4.0,7.0,RX81,6,0.0,0.0,7.0,82.34149293193902,babble-reversed_n13_p229-nine-p318-one-p307-two-p248-eight-p245-five-p284-four.wav,2,RX81,3,0.0,0.0,4.0,87.57049330475357,mgb_normalisation,87.57049330475357,90.34149293193902,3,3.0,True,1.1249210834503174
,2024-07-22 16:32:29,sub_117,3,distance,cathedral,spatial_unmasking,5,182,0,0,_eight_,talker-p248_sex-f_text-_eight_.wav,p248,f,5,9,4.0,7.0,RX81,6,0.0,0.0,7.0,82.34149293193902,babble-reversed_n13_p229-five-p256-one-p318-three-p248-nine-p268-four-p284-eight.wav,2,RX81,3,0.0,0.0,4.0,87.57049330475355,mgb_normalisation,87.57049330475357,90.34149293193902,8,8.0,True,3.8746633529663086
,2024-07-22 16:32:33,sub_117,3,distance,cathedral,spatial_unmasking,5,183,0,0,_one_,talker-p248_sex-f_text-_one_.wav,p248,f,5,10,4.0,7.0,RX81,6,0.0,0.0,7.0,80.34149293193903,babble-reversed_n13_p229-nine-p318-one-p307-two-p248-eight-p245-five-p284-four.wav,2,RX81,3,0.0,0.0,4.0,87.57049330475357,mgb_normalisation,87.57049330475357,90.34149293193902,1,9.0,False,0.999929428100586
,2024-07-22 16:32:37,sub_117,3,distance,cathedral,spatial_unmasking,5,184,0,0,_two_,talker-p248_sex-f_text-_two_.wav,p248,f,5,11,4.0,7.0,RX81,6,0.0,0.0,7.0,81.34149293193902,babble-reversed_n13_p229-three-p307-one-p318-two-p245-eight-p268-five-p284-four.wav,2,RX81,3,0.0,0.0,4.0,87.57049330475357,mgb_normalisation,87.57049330475357,90.34149293193902,2,8.0,False,1.5623910427093506
,2024-07-22 16:32:41,sub_117,3,distance,cathedral,spatial_unmasking,5,185,0,0,_one_,talker-p248_sex-f_text-_one_.wav,p248,f,5,12,4.0,7.0,RX81,6,0.0,0.0,7.0,82.34149293193902,babble-reversed_n13_p256-eight-p318-two-p307-five-p245-four-p268-nine-p284-one.wav,2,RX81,3,0.0,0.0,4.0,87.57049330475357,mgb_normalisation,87.57049330475357,90.34149293193902,1,5.0,False,1.7498784065246582
,2024-07-22 16:32:46,sub_117,3,distance,cathedral,spatial_unmasking,5,186,0,0,_one_,talker-p248_sex-f_text-_one_.wav,p248,f,5,13,4.0,7.0,RX81,6,0.0,0.0,7.0,83.34149293193903,babble-reversed_n13_p307-two-p229-one-p256-five-p248-nine-p284-three-p268-eight.wav,2,RX81,3,0.0,0.0,4.0,87.57049330475357,mgb_normalisation,87.57049330475357,90.34149293193902,1,1.0,True,2.4373538494110107
,2024-07-22 16:32:50,sub_117,3,distance,cathedral,spatial_unmasking,5,187,0,0,_eight_,talker-p248_sex-f_text-_eight_.wav,p248,f,5,14,4.0,7.0,RX81,6,0.0,0.0,7.0,83.34149293193902,babble-reversed_n13_p318-three-p229-one-p256-eight-p245-five-p248-four-p284-nine.wav,2,RX81,3,0.0,0.0,4.0,87.57049330475357,mgb_normalisation,87.57049330475357,90.34149293193902,8,5.0,False,2.2498421669006348
,2024-07-22 16:32:54,sub_117,3,distance,cathedral,spatial_unmasking,5,188,0,0,_one_,talker-p248_sex-f_text-_one_.wav,p248,f,5,15,4.0,7.0,RX81,6,0.0,0.0,7.0,84.34149293193903,babble-reversed_n13_p229-one-p318-eight-p256-three-p268-nine-p248-five-p284-four.wav,2,RX81,3,0.0,0.0,4.0,87.57049330475357,mgb_normalisation,87.57049330475357,90.34149293193902,1,1.0,True,1.4373350143432615
,2024-07-22 16:32:58,sub_117,3,distance,cathedral,spatial_unmasking,5,189,0,0,_four_,talker-p248_sex-f_text-_four_.wav,p248,f,5,16,4.0,7.0,RX81,6,0.0,0.0,7.0,84.341492931939,babble-reversed_n13_p229-one-p318-eight-p256-three-p268-nine-p248-five-p284-four.wav,2,RX81,3,0.0,0.0,4.0,87.57049330475357,mgb_normalisation,87.57049330475357,90.34149293193902,4,4.0,True,1.1248958110809326
,2024-07-22 16:33:01,sub_117,3,distance,cathedral,spatial_unmasking,5,190,0,0,_five_,talker-p248_sex-f_text-_five_.wav,p248,f,5,17,4.0,7.0,RX81,6,0.0,0.0,7.0,83.34149293193902,babble-reversed_n13_p307-four-p318-three-p256-eight-p284-two-p245-nine-p248-five.wav,2,RX81,3,0.0,0.0,4.0,87.57049330475355,mgb_normalisation,87.57049330475357,90.34149293193902,5,5.0,True,0.9374356269836426
,2024-07-22 16:33:04,sub_117,3,distance,cathedral,spatial_unmasking,5,191,0,0,_nine_,talker-p248_sex-f_text-_nine_.wav,p248,f,5,18,4.0,7.0,RX81,6,0.0,0.0,7.0,83.34149293193902,babble-reversed_n13_p229-one-p318-eight-p256-three-p268-two-p245-five-p248-nine.wav,2,RX81,3,0.0,0.0,4.0,87.57049330475355,mgb_normalisation,87.57049330475357,90.34149293193902,9,9.0,True,1.062493085861206
,2024-07-22 16:33:08,sub_117,3,distance,cathedral,spatial_unmasking,5,192,0,0,_eight_,talker-p248_sex-f_text-_eight_.wav,p248,f,5,19,4.0,7.0,RX81,6,0.0,0.0,7.0,82.34149293193902,babble-reversed_n13_p307-nine-p229-one-p256-eight-p248-four-p284-two-p268-three.wav,2,RX81,3,0.0,0.0,4.0,87.57049330475357,mgb_normalisation,87.57049330475357,90.34149293193902,8,8.0,True,1.2499122619628906
,2024-07-22 16:33:11,sub_117,3,distance,cathedral,spatial_unmasking,5,193,0,0,_six_,talker-p248_sex-f_text-_six_.wav,p248,f,5,20,4.0,7.0,RX81,6,0.0,0.0,7.0,82.34149293193902,babble-reversed_n13_p307-one-p318-five-p229-four-p268-eight-p284-two-p245-three.wav,2,RX81,3,0.0,0.0,4.0,87.57049330475355,mgb_normalisation,87.57049330475357,90.34149293193902,6,6.0,True,0.9999303817749025
,2024-07-22 16:33:15,sub_117,3,distance,cathedral,spatial_unmasking,5,194,0,0,_six_,talker-p248_sex-f_text-_six_.wav,p248,f,5,21,4.0,7.0,RX81,6,0.0,0.0,7.0,81.34149293193902,babble-reversed_n13_p229-five-p318-three-p307-two-p245-four-p284-nine-p248-eight.wav,2,RX81,3,0.0,0.0,4.0,87.57049330475357,mgb_normalisation,87.57049330475357,90.34149293193902,6,6.0,True,0.9374339580535888
,2024-07-22 16:33:21,sub_117,3,distance,cathedral,spatial_unmasking,5,195,0,0,_one_,talker-p248_sex-f_text-_one_.wav,p248,f,5,22,4.0,7.0,RX81,6,0.0,0.0,7.0,81.34149293193902,babble-reversed_n13_p318-nine-p307-eight-p229-two-p284-one-p248-three-p245-five.wav,2,RX81,3,0.0,0.0,4.0,87.57049330475357,mgb_normalisation,87.57049330475357,90.34149293193902,1,8.0,False,3.4997541904449463
,2024-07-22 16:33:24,sub_117,3,distance,cathedral,spatial_unmasking,5,196,0,0,_three_,talker-p248_sex-f_text-_three_.wav,p248,f,5,23,4.0,7.0,RX81,6,0.0,0.0,7.0,82.34149293193902,babble-reversed_n13_p318-nine-p307-eight-p229-two-p284-one-p248-three-p245-five.wav,2,RX81,3,0.0,0.0,4.0,87.57049330475357,mgb_normalisation,87.57049330475357,90.34149293193902,3,3.0,True,1.2499125003814695
,2024-07-22 16:33:28,sub_117,3,distance,cathedral,spatial_unmasking,5,197,0,0,_three_,talker-p248_sex-f_text-_three_.wav,p248,f,5,24,4.0,7.0,RX81,6,0.0,0.0,7.0,82.34149293193902,babble-reversed_n13_p318-three-p229-one-p256-eight-p245-five-p248-four-p284-nine.wav,2,RX81,3,0.0,0.0,4.0,87.57049330475357,mgb_normalisation,87.57049330475357,90.34149293193902,3,3.0,True,0.8749392032623291
,2024-07-22 16:33:31,sub_117,3,distance,cathedral,spatial_unmasking,5,198,0,0,_three_,talker-p248_sex-f_text-_three_.wav,p248,f,5,25,4.0,7.0,RX81,6,0.0,0.0,7.0,81.34149293193902,babble-reversed_n13_p229-nine-p318-one-p307-two-p248-eight-p245-five-p284-four.wav,2,RX81,3,0.0,0.0,4.0,87.57049330475357,mgb_normalisation,87.57049330475357,90.34149293193902,3,3.0,True,1.1249208450317385
,2024-07-22 16:33:38,sub_117,3,distance,cathedral,spatial_unmasking,5,199,0,0,_two_,talker-p248_sex-f_text-_two_.wav,p248,f,5,26,4.0,7.0,RX81,6,0.0,0.0,7.0,81.34149293193902,babble-reversed_n13_p307-two-p256-four-p318-three-p284-eight-p248-five-p245-nine.wav,2,RX81,3,0.0,0.0,4.0,87.57049330475357,mgb_normalisation,87.57049330475357,90.34149293193902,2,8.0,False,4.062215805053711
,2024-07-22 16:33:41,sub_117,3,distance,cathedral,spatial_unmasking,5,200,0,0,_one_,talker-p248_sex-f_text-_one_.wav,p248,f,5,27,4.0,7.0,RX81,6,0.0,0.0,7.0,82.34149293193902,babble-reversed_n13_p256-nine-p307-four-p229-one-p284-three-p248-two-p245-five.wav,2,RX81,3,0.0,0.0,4.0,87.57049330475357,mgb_normalisation,87.57049330475357,90.34149293193902,1,1.0,True,1.1874175071716309
,2024-07-22 16:33:44,sub_117,3,distance,cathedral,spatial_unmasking,5,201,0,0,_one_,talker-p248_sex-f_text-_one_.wav,p248,f,5,28,4.0,7.0,RX81,6,0.0,0.0,7.0,82.34149293193902,babble-reversed_n13_p307-five-p229-three-p318-nine-p245-four-p268-eight-p284-two.wav,2,RX81,3,0.0,0.0,4.0,87.57049330475355,mgb_normalisation,87.57049330475357,90.34149293193902,1,1.0,True,0.7499468326568604
,2024-07-22 16:33:49,sub_117,3,distance,cathedral,spatial_unmasking,5,202,0,0,_one_,talker-p248_sex-f_text-_one_.wav,p248,f,5,29,4.0,7.0,RX81,6,0.0,0.0,7.0,81.34149293193902,babble-reversed_n13_p229-two-p307-five-p318-four-p284-one-p248-nine-p268-eight.wav,2,RX81,3,0.0,0.0,4.0,87.57049330475357,mgb_normalisation,87.57049330475357,90.34149293193902,1,1.0,True,2.812303304672241
,2024-07-22 16:33:53,sub_117,3,distance,cathedral,spatial_unmasking,5,203,0,0,_three_,talker-p248_sex-f_text-_three_.wav,p248,f,5,30,4.0,7.0,RX81,6,0.0,0.0,7.0,81.34149293193902,babble-reversed_n13_p229-nine-p307-five-p256-two-p248-three-p245-one-p268-eight.wav,2,RX81,3,0.0,0.0,4.0,87.57049330475357,mgb_normalisation,87.57049330475357,90.34149293193902,3,3.0,True,0.999929904937744
,2024-07-22 16:33:56,sub_117,3,distance,cathedral,spatial_unmasking,5,204,0,0,_six_,talker-p248_sex-f_text-_six_.wav,p248,f,5,31,4.0,7.0,RX81,6,0.0,0.0,7.0,80.34149293193903,babble-reversed_n13_p229-nine-p318-one-p307-two-p248-eight-p245-five-p284-four.wav,2,RX81,3,0.0,0.0,4.0,87.57049330475357,mgb_normalisation,87.57049330475357,90.34149293193902,6,6.0,True,1.0624253749847412
,2024-07-22 16:34:02,sub_117,3,distance,cathedral,spatial_unmasking,5,205,0,0,_one_,talker-p248_sex-f_text-_one_.wav,p248,f,5,32,4.0,7.0,RX81,6,0.0,0.0,7.0,80.34149293193903,babble-reversed_n13_p318-one-p307-two-p256-eight-p284-three-p248-five-p245-four.wav,2,RX81,3,0.0,0.0,4.0,87.57049330475357,mgb_normalisation,87.57049330475357,90.34149293193902,1,1.0,True,3.187276840209961
,2024-07-22 16:34:06,sub_117,3,distance,cathedral,spatial_unmasking,5,206,0,0,_two_,talker-p248_sex-f_text-_two_.wav,p248,f,5,33,4.0,7.0,RX81,6,0.0,0.0,7.0,79.34149293193902,babble-reversed_n13_p256-eight-p229-three-p307-nine-p245-five-p248-four-p268-two.wav,2,RX81,3,0.0,0.0,4.0,87.57049330475355,mgb_normalisation,87.57049330475357,90.34149293193902,2,2.0,True,1.687382459640503
,2024-07-22 16:34:12,sub_117,3,distance,cathedral,spatial_unmasking,5,207,0,0,_four_,talker-p248_sex-f_text-_four_.wav,p248,f,5,34,4.0,7.0,RX81,6,0.0,0.0,7.0,79.341492931939,babble-reversed_n13_p229-three-p307-one-p318-two-p245-eight-p268-five-p284-four.wav,2,RX81,3,0.0,0.0,4.0,87.57049330475357,mgb_normalisation,87.57049330475357,90.34149293193902,4,3.0,False,3.4997551441192627
,2024-07-22 16:34:16,sub_117,3,distance,cathedral,spatial_unmasking,5,208,0,0,_four_,talker-p248_sex-f_text-_four_.wav,p248,f,5,35,4.0,7.0,RX81,6,0.0,0.0,7.0,80.341492931939,babble-reversed_n13_p256-four-p229-two-p318-five-p268-one-p248-eight-p245-three.wav,2,RX81,3,0.0,0.0,4.0,87.57049330475355,mgb_normalisation,87.57049330475357,90.34149293193902,4,8.0,False,1.874844312667847
,2024-07-22 16:34:22,sub_117,3,distance,cathedral,spatial_unmasking,5,209,0,0,_four_,talker-p248_sex-f_text-_four_.wav,p248,f,5,36,4.0,7.0,RX81,6,0.0,0.0,7.0,81.341492931939,babble-reversed_n13_p229-five-p256-one-p318-three-p248-nine-p268-four-p284-eight.wav,2,RX81,3,0.0,0.0,4.0,87.57049330475355,mgb_normalisation,87.57049330475357,90.34149293193902,4,8.0,False,3.374764204025269
,2024-07-22 16:34:26,sub_117,3,distance,cathedral,spatial_unmasking,5,210,0,0,_eight_,talker-p248_sex-f_text-_eight_.wav,p248,f,5,37,4.0,7.0,RX81,6,0.0,0.0,7.0,82.34149293193902,babble-reversed_n13_p229-one-p318-nine-p256-four-p284-eight-p268-five-p245-two.wav,2,RX81,3,0.0,0.0,4.0,87.57049330475357,mgb_normalisation,87.57049330475357,90.34149293193902,8,8.0,True,2.06235933303833
,2024-07-22 16:34:30,sub_117,3,distance,cathedral,spatial_unmasking,5,211,0,0,_one_,talker-p248_sex-f_text-_one_.wav,p248,f,5,38,4.0,7.0,RX81,6,0.0,0.0,7.0,82.34149293193902,babble-reversed_n13_p307-nine-p318-two-p256-one-p245-three-p268-four-p248-eight.wav,2,RX81,3,0.0,0.0,4.0,87.57049330475355,mgb_normalisation,87.57049330475357,90.34149293193902,1,9.0,False,0.9374344348907472
,2024-07-22 16:34:33,sub_117,3,distance,cathedral,spatial_unmasking,5,212,0,0,_nine_,talker-p248_sex-f_text-_nine_.wav,p248,f,5,39,4.0,7.0,RX81,6,0.0,0.0,7.0,83.34149293193902,babble-reversed_n13_p229-three-p256-nine-p318-five-p248-one-p245-eight-p284-two.wav,2,RX81,3,0.0,0.0,4.0,87.57049330475357,mgb_normalisation,87.57049330475357,90.34149293193902,9,9.0,True,0.999929666519165
,2024-07-22 16:34:36,sub_117,3,distance,cathedral,spatial_unmasking,5,213,0,0,_nine_,talker-p248_sex-f_text-_nine_.wav,p248,f,5,40,4.0,7.0,RX81,6,0.0,0.0,7.0,83.34149293193902,babble-reversed_n13_p229-one-p318-eight-p256-three-p268-nine-p248-five-p284-four.wav,2,RX81,3,0.0,0.0,4.0,87.57049330475357,mgb_normalisation,87.57049330475357,90.34149293193902,9,9.0,True,0.9374344348907472
,2024-07-22 16:34:40,sub_117,3,distance,cathedral,spatial_unmasking,5,214,0,0,_six_,talker-p248_sex-f_text-_six_.wav,p248,f,5,41,4.0,7.0,RX81,6,0.0,0.0,7.0,82.34149293193902,babble-reversed_n13_p318-five-p256-nine-p307-eight-p248-two-p245-four-p284-three.wav,2,RX81,3,0.0,0.0,4.0,87.57049330475357,mgb_normalisation,87.57049330475357,90.34149293193902,6,6.0,True,1.0624263286590576
,2024-07-22 16:34:44,sub_117,3,distance,cathedral,spatial_unmasking,5,215,0,0,_two_,talker-p248_sex-f_text-_two_.wav,p248,f,5,42,4.0,7.0,RX81,6,0.0,0.0,7.0,82.34149293193902,babble-reversed_n13_p318-nine-p307-eight-p229-two-p284-one-p248-three-p245-five.wav,2,RX81,3,0.0,0.0,4.0,87.57049330475357,mgb_normalisation,87.57049330475357,90.34149293193902,2,3.0,False,2.124826669692993
,2024-07-22 16:34:48,sub_117,3,distance,cathedral,spatial_unmasking,5,216,0,0,_three_,talker-p248_sex-f_text-_three_.wav,p248,f,5,43,4.0,7.0,RX81,6,0.0,0.0,7.0,83.34149293193902,babble-reversed_n13_p229-five-p318-three-p307-two-p245-four-p284-nine-p248-eight.wav,2,RX81,3,0.0,0.0,4.0,87.57049330475357,mgb_normalisation,87.57049330475357,90.34149293193902,3,3.0,True,1.0624258518218994
,2024-07-22 16:34:51,sub_117,3,distance,cathedral,spatial_unmasking,5,217,0,0,_nine_,talker-p248_sex-f_text-_nine_.wav,p248,f,5,44,4.0,7.0,RX81,6,0.0,0.0,7.0,83.34149293193902,babble-reversed_n13_p307-one-p318-five-p229-four-p268-eight-p284-two-p245-three.wav,2,RX81,3,0.0,0.0,4.0,87.57049330475355,mgb_normalisation,87.57049330475357,90.34149293193902,9,9.0,True,1.0624253749847412
,2024-07-22 16:36:33,sub_117,3,distance,cathedral,spatial_unmasking,6,218,0,0,_five_,talker-p248_sex-f_text-_five_.wav,p248,f,5,1,10.0,7.0,RX81,6,0.0,0.0,7.0,92.34149293193902,babble-reversed_n13_p256-five-p229-one-p318-three-p248-nine-p284-eight-p268-two.wav,8,RX81,9,0.0,0.0,10.0,92.0152836843556,mgb_normalisation,92.0152836843556,90.34149293193902,5,5.0,True,1.374903678894043
,2024-07-22 16:36:36,sub_117,3,distance,cathedral,spatial_unmasking,6,219,0,0,_one_,talker-p248_sex-f_text-_one_.wav,p248,f,5,2,10.0,7.0,RX81,6,0.0,0.0,7.0,88.34149293193903,babble-reversed_n13_p229-two-p318-eight-p256-three-p268-one-p248-nine-p284-five.wav,8,RX81,9,0.0,0.0,10.0,92.0152836843556,mgb_normalisation,92.0152836843556,90.34149293193902,1,1.0,True,0.9999291896820068
,2024-07-22 16:36:39,sub_117,3,distance,cathedral,spatial_unmasking,6,220,0,0,_two_,talker-p248_sex-f_text-_two_.wav,p248,f,5,3,10.0,7.0,RX81,6,0.0,0.0,7.0,84.34149293193903,babble-reversed_n13_p256-three-p318-two-p229-nine-p248-four-p284-one-p268-eight.wav,8,RX81,9,0.0,0.0,10.0,92.0152836843556,mgb_normalisation,92.0152836843556,90.34149293193902,2,2.0,True,0.6874518394470215
,2024-07-22 16:36:42,sub_117,3,distance,cathedral,spatial_unmasking,6,221,0,0,_two_,talker-p248_sex-f_text-_two_.wav,p248,f,5,4,10.0,7.0,RX81,6,0.0,0.0,7.0,80.34149293193903,babble-reversed_n13_p229-one-p318-nine-p256-four-p284-eight-p268-five-p245-two.wav,8,RX81,9,0.0,0.0,10.0,92.0152836843556,mgb_normalisation,92.0152836843556,90.34149293193902,2,2.0,True,0.6874768733978271
,2024-07-22 16:36:47,sub_117,3,distance,cathedral,spatial_unmasking,6,222,0,0,_four_,talker-p248_sex-f_text-_four_.wav,p248,f,5,5,10.0,7.0,RX81,6,0.0,0.0,7.0,76.34149293193902,babble-reversed_n13_p318-five-p229-three-p256-four-p268-eight-p248-one-p245-nine.wav,8,RX81,9,0.0,0.0,10.0,92.0152836843556,mgb_normalisation,92.0152836843556,90.34149293193902,4,3.0,False,2.124852180480957
,2024-07-22 16:36:52,sub_117,3,distance,cathedral,spatial_unmasking,6,223,0,0,_one_,talker-p248_sex-f_text-_one_.wav,p248,f,5,6,10.0,7.0,RX81,6,0.0,0.0,7.0,78.34149293193902,babble-reversed_n13_p318-one-p307-two-p256-eight-p284-three-p248-five-p245-four.wav,8,RX81,9,0.0,0.0,10.0,92.0152836843556,mgb_normalisation,92.0152836843556,90.34149293193902,1,1.0,True,2.437329769134521
,2024-07-22 16:36:55,sub_117,3,distance,cathedral,spatial_unmasking,6,224,0,0,_two_,talker-p248_sex-f_text-_two_.wav,p248,f,5,7,10.0,7.0,RX81,6,0.0,0.0,7.0,78.34149293193902,babble-reversed_n13_p229-two-p256-three-p318-eight-p284-five-p268-four-p245-one.wav,8,RX81,9,0.0,0.0,10.0,92.0152836843556,mgb_normalisation,92.0152836843556,90.34149293193902,2,2.0,True,0.9374349117279052
,2024-07-22 16:37:00,sub_117,3,distance,cathedral,spatial_unmasking,6,225,0,0,_eight_,talker-p248_sex-f_text-_eight_.wav,p248,f,5,8,10.0,7.0,RX81,6,0.0,0.0,7.0,76.34149293193902,babble-reversed_n13_p229-five-p256-one-p318-three-p248-nine-p268-four-p284-eight.wav,8,RX81,9,0.0,0.0,10.0,92.0152836843556,mgb_normalisation,92.0152836843556,90.34149293193902,8,8.0,True,2.312338352203369
,2024-07-22 16:37:05,sub_117,3,distance,cathedral,spatial_unmasking,6,226,0,0,_four_,talker-p248_sex-f_text-_four_.wav,p248,f,5,9,10.0,7.0,RX81,6,0.0,0.0,7.0,76.34149293193902,babble-reversed_n13_p229-five-p256-one-p318-three-p248-nine-p268-four-p284-eight.wav,8,RX81,9,0.0,0.0,10.0,92.0152836843556,mgb_normalisation,92.0152836843556,90.34149293193902,4,8.0,False,3.1404056549072266
,2024-07-22 16:37:09,sub_117,3,distance,cathedral,spatial_unmasking,6,227,0,0,_five_,talker-p248_sex-f_text-_five_.wav,p248,f,5,10,10.0,7.0,RX81,6,0.0,0.0,7.0,77.341492931939,babble-reversed_n13_p229-five-p256-three-p318-nine-p248-two-p284-four-p268-one.wav,8,RX81,9,0.0,0.0,10.0,92.0152836843556,mgb_normalisation,92.0152836843556,90.34149293193902,5,5.0,True,0.8749387264251709
,2024-07-22 16:37:12,sub_117,3,distance,cathedral,spatial_unmasking,6,228,0,0,_five_,talker-p248_sex-f_text-_five_.wav,p248,f,5,11,10.0,7.0,RX81,6,0.0,0.0,7.0,77.341492931939,babble-reversed_n13_p256-two-p307-five-p318-nine-p248-eight-p245-four-p284-one.wav,8,RX81,9,0.0,0.0,10.0,92.0152836843556,mgb_normalisation,92.0152836843556,90.34149293193902,5,5.0,True,0.6874520778656006
,2024-07-22 16:37:15,sub_117,3,distance,cathedral,spatial_unmasking,6,229,0,0,_three_,talker-p248_sex-f_text-_three_.wav,p248,f,5,12,10.0,7.0,RX81,6,0.0,0.0,7.0,76.34149293193902,babble-reversed_n13_p318-five-p256-nine-p307-two-p245-eight-p248-one-p284-four.wav,8,RX81,9,0.0,0.0,10.0,92.0152836843556,mgb_normalisation,92.0152836843556,90.34149293193902,3,3.0,True,1.1874165534973145
,2024-07-22 16:37:19,sub_117,3,distance,cathedral,spatial_unmasking,6,230,0,0,_five_,talker-p248_sex-f_text-_five_.wav,p248,f,5,13,10.0,7.0,RX81,6,0.0,0.0,7.0,76.34149293193902,babble-reversed_n13_p256-eight-p318-two-p307-five-p245-four-p268-nine-p284-one.wav,8,RX81,9,0.0,0.0,10.0,92.0152836843556,mgb_normalisation,92.0152836843556,90.34149293193902,5,5.0,True,1.1249208450317385
,2024-07-22 16:37:22,sub_117,3,distance,cathedral,spatial_unmasking,6,231,0,0,_nine_,talker-p248_sex-f_text-_nine_.wav,p248,f,5,14,10.0,7.0,RX81,6,0.0,0.0,7.0,75.34149293193902,babble-reversed_n13_p229-two-p256-three-p318-eight-p284-five-p268-four-p245-one.wav,8,RX81,9,0.0,0.0,10.0,92.0152836843556,mgb_normalisation,92.0152836843556,90.34149293193902,9,9.0,True,1.0624263286590576
,2024-07-22 16:37:25,sub_117,3,distance,cathedral,spatial_unmasking,6,232,0,0,_one_,talker-p248_sex-f_text-_one_.wav,p248,f,5,15,10.0,7.0,RX81,6,0.0,0.0,7.0,75.34149293193903,babble-reversed_n13_p229-nine-p318-one-p307-two-p248-eight-p245-five-p284-four.wav,8,RX81,9,0.0,0.0,10.0,92.0152836843556,mgb_normalisation,92.0152836843556,90.34149293193902,1,9.0,False,0.8124215602874756
,2024-07-22 16:37:29,sub_117,3,distance,cathedral,spatial_unmasking,6,233,0,0,_nine_,talker-p248_sex-f_text-_nine_.wav,p248,f,5,16,10.0,7.0,RX81,6,0.0,0.0,7.0,76.34149293193902,babble-reversed_n13_p229-one-p318-nine-p256-four-p284-eight-p268-five-p245-two.wav,8,RX81,9,0.0,0.0,10.0,92.0152836843556,mgb_normalisation,92.0152836843556,90.34149293193902,9,8.0,False,1.499895095825195
,2024-07-22 16:37:34,sub_117,3,distance,cathedral,spatial_unmasking,6,234,0,0,_three_,talker-p248_sex-f_text-_three_.wav,p248,f,5,17,10.0,7.0,RX81,6,0.0,0.0,7.0,77.34149293193902,babble-reversed_n13_p318-three-p307-one-p256-five-p248-nine-p245-two-p284-eight.wav,8,RX81,9,0.0,0.0,10.0,92.0152836843556,mgb_normalisation,92.0152836843556,90.34149293193902,3,3.0,True,1.999795198440552
,2024-07-22 16:37:42,sub_117,3,distance,cathedral,spatial_unmasking,6,235,0,0,_one_,talker-p248_sex-f_text-_one_.wav,p248,f,5,18,10.0,7.0,RX81,6,0.0,0.0,7.0,77.34149293193903,babble-reversed_n13_p318-nine-p307-eight-p229-two-p284-one-p248-three-p245-five.wav,8,RX81,9,0.0,0.0,10.0,92.0152836843556,mgb_normalisation,92.0152836843556,90.34149293193902,1,8.0,False,5.437119483947754
,2024-07-22 16:37:45,sub_117,3,distance,cathedral,spatial_unmasking,6,236,0,0,_one_,talker-p248_sex-f_text-_one_.wav,p248,f,5,19,10.0,7.0,RX81,6,0.0,0.0,7.0,78.34149293193902,babble-reversed_n13_p229-five-p256-three-p318-nine-p248-two-p284-four-p268-one.wav,8,RX81,9,0.0,0.0,10.0,92.0152836843556,mgb_normalisation,92.0152836843556,90.34149293193902,1,3.0,False,1.1873934268951416
,2024-07-22 16:37:49,sub_117,3,distance,cathedral,spatial_unmasking,6,237,0,0,_two_,talker-p248_sex-f_text-_two_.wav,p248,f,5,20,10.0,7.0,RX81,6,0.0,0.0,7.0,79.34149293193902,babble-reversed_n13_p256-two-p307-five-p318-nine-p248-eight-p245-four-p284-one.wav,8,RX81,9,0.0,0.0,10.0,92.0152836843556,mgb_normalisation,92.0152836843556,90.34149293193902,2,2.0,True,0.999997854232788
,2024-07-22 16:37:52,sub_117,3,distance,cathedral,spatial_unmasking,6,238,0,0,_six_,talker-p248_sex-f_text-_six_.wav,p248,f,5,21,10.0,7.0,RX81,6,0.0,0.0,7.0,79.34149293193902,babble-reversed_n13_p229-three-p256-nine-p318-five-p248-one-p245-eight-p284-two.wav,8,RX81,9,0.0,0.0,10.0,92.0152836843556,mgb_normalisation,92.0152836843556,90.34149293193902,6,9.0,False,1.3749055862426758
,2024-07-22 16:37:57,sub_117,3,distance,cathedral,spatial_unmasking,6,239,0,0,_five_,talker-p248_sex-f_text-_five_.wav,p248,f,5,22,10.0,7.0,RX81,6,0.0,0.0,7.0,80.341492931939,babble-reversed_n13_p256-four-p229-eight-p307-five-p248-three-p245-one-p284-two.wav,8,RX81,9,0.0,0.0,10.0,92.0152836843556,mgb_normalisation,92.0152836843556,90.34149293193902,5,5.0,True,2.249843120574951
,2024-07-22 16:38:01,sub_117,3,distance,cathedral,spatial_unmasking,6,240,0,0,_one_,talker-p248_sex-f_text-_one_.wav,p248,f,5,23,10.0,7.0,RX81,6,0.0,0.0,7.0,80.34149293193903,babble-reversed_n13_p307-five-p229-two-p318-four-p248-three-p245-nine-p268-eight.wav,8,RX81,9,0.0,0.0,10.0,92.0152836843556,mgb_normalisation,92.0152836843556,90.34149293193902,1,9.0,False,1.6873819828033447
,2024-07-22 16:38:05,sub_117,3,distance,cathedral,spatial_unmasking,6,241,0,0,_three_,talker-p248_sex-f_text-_three_.wav,p248,f,5,24,10.0,7.0,RX81,6,0.0,0.0,7.0,81.34149293193902,babble-reversed_n13_p256-eight-p229-three-p307-nine-p245-five-p248-four-p268-two.wav,8,RX81,9,0.0,0.0,10.0,92.0152836843556,mgb_normalisation,92.0152836843556,90.34149293193902,3,3.0,True,1.1249210834503174
,2024-07-22 16:38:09,sub_117,3,distance,cathedral,spatial_unmasking,6,242,0,0,_nine_,talker-p248_sex-f_text-_nine_.wav,p248,f,5,25,10.0,7.0,RX81,6,0.0,0.0,7.0,81.34149293193902,babble-reversed_n13_p307-four-p318-three-p256-eight-p284-two-p245-nine-p248-five.wav,8,RX81,9,0.0,0.0,10.0,92.0152836843556,mgb_normalisation,92.0152836843556,90.34149293193902,9,9.0,True,2.249842643737793
,2024-07-22 16:38:13,sub_117,3,distance,cathedral,spatial_unmasking,6,243,0,0,_three_,talker-p248_sex-f_text-_three_.wav,p248,f,5,26,10.0,7.0,RX81,6,0.0,0.0,7.0,80.341492931939,babble-reversed_n13_p256-three-p318-one-p307-two-p284-nine-p268-four-p245-eight.wav,8,RX81,9,0.0,0.0,10.0,92.0152836843556,mgb_normalisation,92.0152836843556,90.34149293193902,3,9.0,False,1.1874158382415771
,2024-07-22 16:38:16,sub_117,3,distance,cathedral,spatial_unmasking,6,244,0,0,_eight_,talker-p248_sex-f_text-_eight_.wav,p248,f,5,27,10.0,7.0,RX81,6,0.0,0.0,7.0,81.34149293193902,babble-reversed_n13_p318-one-p307-two-p256-eight-p284-three-p248-five-p245-four.wav,8,RX81,9,0.0,0.0,10.0,92.0152836843556,mgb_normalisation,92.0152836843556,90.34149293193902,8,8.0,True,1.312405347824097
,2024-07-22 16:38:22,sub_117,3,distance,cathedral,spatial_unmasking,6,245,0,0,_eight_,talker-p248_sex-f_text-_eight_.wav,p248,f,5,28,10.0,7.0,RX81,6,0.0,0.0,7.0,81.34149293193902,babble-reversed_n13_p318-five-p256-nine-p307-eight-p248-two-p245-four-p284-three.wav,8,RX81,9,0.0,0.0,10.0,92.0152836843556,mgb_normalisation,92.0152836843556,90.34149293193902,8,2.0,False,3.124781847000122
,2024-07-22 16:38:30,sub_117,3,distance,cathedral,spatial_unmasking,6,246,0,0,_eight_,talker-p248_sex-f_text-_eight_.wav,p248,f,5,29,10.0,7.0,RX81,6,0.0,0.0,7.0,82.34149293193902,babble-reversed_n13_p256-five-p229-one-p318-three-p248-nine-p284-eight-p268-two.wav,8,RX81,9,0.0,0.0,10.0,92.0152836843556,mgb_normalisation,92.0152836843556,90.34149293193902,8,5.0,False,5.624606609344482
,2024-07-22 16:38:33,sub_117,3,distance,cathedral,spatial_unmasking,6,247,0,0,_six_,talker-p248_sex-f_text-_six_.wav,p248,f,5,30,10.0,7.0,RX81,6,0.0,0.0,7.0,83.34149293193902,babble-reversed_n13_p229-three-p256-one-p307-two-p284-eight-p268-five-p248-nine.wav,8,RX81,9,0.0,0.0,10.0,92.0152836843556,mgb_normalisation,92.0152836843556,90.34149293193902,6,6.0,True,0.8124685287475586
,2024-07-22 16:38:38,sub_117,3,distance,cathedral,spatial_unmasking,6,248,0,0,_one_,talker-p248_sex-f_text-_one_.wav,p248,f,5,31,10.0,7.0,RX81,6,0.0,0.0,7.0,83.34149293193903,babble-reversed_n13_p307-nine-p318-two-p256-one-p245-three-p268-four-p248-eight.wav,8,RX81,9,0.0,0.0,10.0,92.0152836843556,mgb_normalisation,92.0152836843556,90.34149293193902,1,9.0,False,1.9373676776885984
,2024-07-22 16:38:41,sub_117,3,distance,cathedral,spatial_unmasking,6,249,0,0,_three_,talker-p248_sex-f_text-_three_.wav,p248,f,5,32,10.0,7.0,RX81,6,0.0,0.0,7.0,84.341492931939,babble-reversed_n13_p229-one-p318-eight-p256-three-p268-nine-p248-five-p284-four.wav,8,RX81,9,0.0,0.0,10.0,92.0152836843556,mgb_normalisation,92.0152836843556,90.34149293193902,3,3.0,True,0.9374349117279052
,2024-07-22 16:38:44,sub_117,3,distance,cathedral,spatial_unmasking,6,250,0,0,_three_,talker-p248_sex-f_text-_three_.wav,p248,f,5,33,10.0,7.0,RX81,6,0.0,0.0,7.0,84.341492931939,babble-reversed_n13_p256-eight-p229-three-p307-nine-p245-five-p248-four-p268-two.wav,8,RX81,9,0.0,0.0,10.0,92.0152836843556,mgb_normalisation,92.0152836843556,90.34149293193902,3,3.0,True,1.124922513961792
,2024-07-22 16:38:48,sub_117,3,distance,cathedral,spatial_unmasking,6,251,0,0,_three_,talker-p248_sex-f_text-_three_.wav,p248,f,5,34,10.0,7.0,RX81,6,0.0,0.0,7.0,83.34149293193902,babble-reversed_n13_p318-three-p229-one-p256-eight-p245-five-p248-four-p284-nine.wav,8,RX81,9,0.0,0.0,10.0,92.0152836843556,mgb_normalisation,92.0152836843556,90.34149293193902,3,3.0,True,0.9999284744262696
,2024-07-22 16:38:51,sub_117,3,distance,cathedral,spatial_unmasking,6,252,0,0,_three_,talker-p248_sex-f_text-_three_.wav,p248,f,5,35,10.0,7.0,RX81,6,0.0,0.0,7.0,83.34149293193902,babble-reversed_n13_p256-eight-p318-five-p307-four-p245-three-p268-one-p284-nine.wav,8,RX81,9,0.0,0.0,10.0,92.0152836843556,mgb_normalisation,92.0152836843556,90.34149293193902,3,3.0,True,1.0624256134033203
,2024-07-22 16:38:55,sub_117,3,distance,cathedral,spatial_unmasking,6,253,0,0,_six_,talker-p248_sex-f_text-_six_.wav,p248,f,5,36,10.0,7.0,RX81,6,0.0,0.0,7.0,82.34149293193902,babble-reversed_n13_p229-one-p318-nine-p256-four-p284-eight-p268-five-p245-two.wav,8,RX81,9,0.0,0.0,10.0,92.0152836843556,mgb_normalisation,92.0152836843556,90.34149293193902,6,6.0,True,0.999929904937744
,2024-07-22 16:38:58,sub_117,3,distance,cathedral,spatial_unmasking,6,254,0,0,_nine_,talker-p248_sex-f_text-_nine_.wav,p248,f,5,37,10.0,7.0,RX81,6,0.0,0.0,7.0,82.34149293193902,babble-reversed_n13_p256-three-p318-one-p307-two-p284-nine-p268-four-p245-eight.wav,8,RX81,9,0.0,0.0,10.0,92.0152836843556,mgb_normalisation,92.0152836843556,90.34149293193902,9,9.0,True,1.0624284744262695
,2024-07-22 16:39:02,sub_117,3,distance,cathedral,spatial_unmasking,6,255,0,0,_four_,talker-p248_sex-f_text-_four_.wav,p248,f,5,38,10.0,7.0,RX81,6,0.0,0.0,7.0,81.341492931939,babble-reversed_n13_p256-eight-p229-three-p307-nine-p245-five-p248-four-p268-two.wav,8,RX81,9,0.0,0.0,10.0,92.0152836843556,mgb_normalisation,92.0152836843556,90.34149293193902,4,4.0,True,1.1874163150787354
,2024-07-22 16:39:05,sub_117,3,distance,cathedral,spatial_unmasking,6,256,0,0,_nine_,talker-p248_sex-f_text-_nine_.wav,p248,f,5,39,10.0,7.0,RX81,6,0.0,0.0,7.0,81.34149293193902,babble-reversed_n13_p229-three-p307-one-p318-two-p245-eight-p268-five-p284-four.wav,8,RX81,9,0.0,0.0,10.0,92.0152836843556,mgb_normalisation,92.0152836843556,90.34149293193902,9,9.0,True,1.1249210834503174
,2024-07-22 16:39:09,sub_117,3,distance,cathedral,spatial_unmasking,6,257,0,0,_three_,talker-p248_sex-f_text-_three_.wav,p248,f,5,40,10.0,7.0,RX81,6,0.0,0.0,7.0,80.341492931939,babble-reversed_n13_p318-five-p229-four-p256-eight-p284-one-p245-three-p248-two.wav,8,RX81,9,0.0,0.0,10.0,92.0152836843556,mgb_normalisation,92.0152836843556,90.34149293193902,3,3.0,True,0.9374358654022216
,2024-07-22 16:39:12,sub_117,3,distance,cathedral,spatial_unmasking,6,258,0,0,_nine_,talker-p248_sex-f_text-_nine_.wav,p248,f,5,41,10.0,7.0,RX81,6,0.0,0.0,7.0,80.341492931939,babble-reversed_n13_p229-three-p307-one-p318-two-p245-eight-p268-five-p284-four.wav,8,RX81,9,0.0,0.0,10.0,92.0152836843556,mgb_normalisation,92.0152836843556,90.34149293193902,9,9.0,True,1.0624260902404783
