,event_id,subject_id,timestamp,session_index,plane,setup,task,block,trial_index,stim_number,stim_type,stim_country_ids,stim_sexes,stim_talker_ids,speaker_ids,stim_level,resp_number,is_correct,speaker_distance_mean,speaker_distance_st_dev,reaction_time,spectral_coverage
0,,sub_107,2024-07-03 16:23:52,3,distance,cathedral,numerosity_judgement,1,0,6,countries_forward,"['_Tonga_', '_Belgium_', '_Togo_', '_Yemen_', '_Congo_', '_Britain_']","['f', 'f', 'm', 'f', 'm', 'f']","['p284', 'p248', 'p256', 'p268', 'p307', 'p245']","[7, 4, 8, 9, 2, 6]","[91.73820004985969, 89.31368318402099, 92.0152836843556, 92.00610777531934, 87.57049330475357, 91.58892582949886]",3.0,False,8.0,2.6076809620810595,5.173771142959595,0.8963114288956986
0,,sub_107,2024-07-03 16:23:58,3,distance,cathedral,numerosity_judgement,1,1,2,countries_forward,"['_Belgium_', '_Togo_']","['f', 'm']","['p284', 'p307']","[2, 4]","[87.57049330475357, 89.31368318402099]",2.0,True,5.0,1.4142135623730951,4.811625957489014,0.8966519123822495
0,,sub_107,2024-07-03 16:24:03,3,distance,cathedral,numerosity_judgement,1,2,3,countries_forward,"['_Japan_', '_Yemen_', '_Mali_']","['m', 'm', 'm']","['p318', 'p307', 'p256']","[7, 3, 2]","[91.73820004985969, 89.14911522239515, 87.57049330475357]",2.0,False,6.0,2.6457513110645907,3.426896810531616,0.8517534899557372
0,,sub_107,2024-07-03 16:24:09,3,distance,cathedral,numerosity_judgement,1,3,5,countries_forward,"['_Belgium_', '_Sudan_', '_Peru_', '_Togo_', '_Syria_']","['f', 'm', 'm', 'f', 'f']","['p268', 'p229', 'p256', 'p284', 'p248']","[4, 3, 6, 1, 2]","[89.31368318402099, 89.14911522239515, 91.58892582949886, 86.2038576498559, 87.57049330475357]",3.0,False,5.2,1.9235384061671346,3.5622918605804443,0.931664964249234
0,,sub_107,2024-07-03 16:24:15,3,distance,cathedral,numerosity_judgement,1,4,4,countries_forward,"['_Congo_', '_Oman_', '_Peru_', '_Yemen_']","['m', 'm', 'f', 'f']","['p307', 'p229', 'p284', 'p248']","[3, 10, 2, 6]","[89.14911522239515, 93.00003341222717, 87.57049330475357, 91.58892582949886]",3.0,False,7.25,3.593976442141304,3.99638032913208,0.672829417773238
0,,sub_107,2024-07-03 16:24:21,3,distance,cathedral,numerosity_judgement,1,5,3,countries_forward,"['_Oman_', '_Tonga_', '_Cuba_']","['f', 'f', 'm']","['p248', 'p245', 'p318']","[3, 10, 7]","[89.14911522239515, 93.00003341222717, 91.73820004985969]",3.0,True,8.666666666666666,3.511884584284246,4.233750343322754,0.7157984337759619
0,,sub_107,2024-07-03 16:24:26,3,distance,cathedral,numerosity_judgement,1,6,5,countries_forward,"['_Mali_', '_Cuba_', '_Tonga_', '_Belgium_', '_Yemen_']","['m', 'f', 'f', 'm', 'f']","['p307', 'p268', 'p245', 'p229', 'p284']","[4, 6, 3, 7, 2]","[89.31368318402099, 91.58892582949886, 89.14911522239515, 91.73820004985969, 87.57049330475357]",2.0,False,6.4,2.073644135332772,3.6104440689086914,0.705799568720917
0,,sub_107,2024-07-03 16:24:32,3,distance,cathedral,numerosity_judgement,1,7,4,countries_forward,"['_Oman_', '_Peru_', '_Togo_', '_Syria_']","['m', 'f', 'f', 'm']","['p307', 'p245', 'p248', 'p256']","[10, 5, 0, 3]","[93.00003341222717, 90.34149293193902, 84.40078082039426, 89.14911522239515]",3.0,False,6.5,4.203173404306164,4.232727766036987,0.797605266144592
0,,sub_107,2024-07-03 16:24:38,3,distance,cathedral,numerosity_judgement,1,8,6,countries_forward,"['_Syria_', '_Peru_', '_Mali_', '_Tonga_', '_Togo_', '_Sudan_']","['f', 'f', 'm', 'm', 'f', 'f']","['p248', 'p245', 'p229', 'p307', 'p268', 'p284']","[3, 8, 10, 1, 2, 5]","[89.14911522239515, 92.0152836843556, 93.00003341222717, 86.2038576498559, 87.57049330475357, 90.34149293193902]",4.0,False,6.833333333333333,3.5449494589721118,3.861098051071167,0.9285438656225172
0,,sub_107,2024-07-03 16:24:58,3,distance,cathedral,numerosity_judgement,1,9,2,countries_forward,"['_Britain_', '_Oman_']","['m', 'm']","['p307', 'p229']","[3, 6]","[89.14911522239515, 91.58892582949886]",2.0,True,6.5,2.1213203435596424,18.81458878517151,0.5839972761321076
0,,sub_107,2024-07-03 16:25:05,3,distance,cathedral,numerosity_judgement,1,10,4,countries_forward,"['_Congo_', '_Sudan_', '_Britain_', '_Syria_']","['m', 'f', 'f', 'f']","['p256', 'p245', 'p248', 'p268']","[2, 3, 5, 6]","[87.57049330475357, 89.14911522239515, 90.34149293193902, 91.58892582949886]",2.0,False,6.0,1.8257418583505538,4.9827375411987305,0.9104868913857678
0,,sub_107,2024-07-03 16:25:10,3,distance,cathedral,numerosity_judgement,1,11,3,countries_forward,"['_Togo_', '_Tonga_', '_Mali_']","['f', 'f', 'm']","['p248', 'p245', 'p307']","[1, 4, 10]","[86.2038576498559, 89.31368318402099, 93.00003341222717]",3.0,True,7.0,4.58257569495584,3.7364678382873535,0.70127113834979
0,,sub_107,2024-07-03 16:25:16,3,distance,cathedral,numerosity_judgement,1,12,5,countries_forward,"['_Yemen_', '_Peru_', '_Japan_', '_Mali_', '_Syria_']","['m', 'm', 'm', 'f', 'f']","['p307', 'p229', 'p318', 'p248', 'p268']","[5, 10, 9, 1, 2]","[90.34149293193902, 93.00003341222717, 92.00610777531934, 86.2038576498559, 87.57049330475357]",5.0,True,7.4,4.03732584763727,3.8120672702789307,0.9532743161956644
0,,sub_107,2024-07-03 16:25:23,3,distance,cathedral,numerosity_judgement,1,13,6,countries_forward,"['_Peru_', '_Britain_', '_Cuba_', '_Yemen_', '_Tonga_', '_Congo_']","['f', 'm', 'f', 'm', 'm', 'f']","['p284', 'p307', 'p248', 'p229', 'p256', 'p268']","[6, 8, 10, 3, 0, 7]","[91.58892582949886, 92.0152836843556, 93.00003341222717, 89.14911522239515, 84.40078082039426, 91.73820004985969]",4.0,False,7.666666666666667,3.6147844564602556,4.98491096496582,0.7937237543979117
0,,sub_107,2024-07-03 16:25:28,3,distance,cathedral,numerosity_judgement,1,14,2,countries_forward,"['_Yemen_', '_Mali_']","['f', 'f']","['p248', 'p245']","[8, 9]","[92.0152836843556, 92.00610777531934]",2.0,True,10.5,0.7071067811865476,3.0482068061828613,0.6998638066053796
0,,sub_107,2024-07-03 16:25:32,3,distance,cathedral,numerosity_judgement,1,15,5,countries_forward,"['_Belgium_', '_Syria_', '_Peru_', '_Oman_', '_Yemen_']","['f', 'm', 'm', 'f', 'm']","['p284', 'p307', 'p256', 'p245', 'p318']","[6, 1, 4, 7, 2]","[91.58892582949886, 86.2038576498559, 89.31368318402099, 91.73820004985969, 87.57049330475357]",2.0,False,6.0,2.5495097567963922,2.922187566757202,0.8771535580524344
0,,sub_107,2024-07-03 16:25:38,3,distance,cathedral,numerosity_judgement,1,16,4,countries_forward,"['_Congo_', '_Cuba_', '_Tonga_', '_Yemen_']","['f', 'm', 'f', 'f']","['p268', 'p256', 'p245', 'p248']","[10, 5, 4, 7]","[93.00003341222717, 90.34149293193902, 89.31368318402099, 91.73820004985969]",3.0,False,8.5,2.6457513110645907,3.735103130340576,0.7442401543525139
0,,sub_107,2024-07-03 16:25:43,3,distance,cathedral,numerosity_judgement,1,17,6,countries_forward,"['_Tonga_', '_Peru_', '_Britain_', '_Oman_', '_Yemen_', '_Mali_']","['f', 'f', 'm', 'f', 'm', 'f']","['p245', 'p268', 'p318', 'p248', 'p307', 'p284']","[10, 8, 6, 9, 2, 7]","[93.00003341222717, 92.0152836843556, 91.58892582949886, 92.00610777531934, 87.57049330475357, 91.73820004985969]",3.0,False,9.0,2.8284271247461903,3.5523319244384766,0.7124843945068664
0,,sub_107,2024-07-03 16:25:47,3,distance,cathedral,numerosity_judgement,1,18,2,countries_forward,"['_Syria_', '_Togo_']","['m', 'f']","['p229', 'p284']","[8, 2]","[92.0152836843556, 87.57049330475357]",2.0,True,7.0,4.242640687119285,2.0487093925476074,0.9388605152650096
0,,sub_107,2024-07-03 16:25:53,3,distance,cathedral,numerosity_judgement,1,19,3,countries_forward,"['_Congo_', '_Yemen_', '_Oman_']","['m', 'f', 'm']","['p256', 'p268', 'p307']","[9, 7, 6]","[92.00610777531934, 91.73820004985969, 91.58892582949886]",3.0,True,9.333333333333334,1.5275252316519468,4.296374797821045,0.6491204176597435
0,,sub_107,2024-07-03 16:25:59,3,distance,cathedral,numerosity_judgement,1,20,6,countries_forward,"['_Togo_', '_Cuba_', '_Oman_', '_Yemen_', '_Congo_', '_Mali_']","['m', 'f', 'm', 'f', 'f', 'm']","['p307', 'p268', 'p256', 'p248', 'p284', 'p229']","[2, 7, 5, 4, 0, 9]","[87.57049330475357, 91.73820004985969, 90.34149293193902, 89.31368318402099, 84.40078082039426, 92.00610777531934]",3.0,False,6.5,3.271085446759225,4.065150737762451,0.7404607876517989
0,,sub_107,2024-07-03 16:26:03,3,distance,cathedral,numerosity_judgement,1,21,3,countries_forward,"['_Britain_', '_Oman_', '_Mali_']","['m', 'f', 'f']","['p307', 'p248', 'p268']","[3, 5, 4]","[89.14911522239515, 90.34149293193902, 89.31368318402099]",2.0,False,6.0,1.0,2.7497947216033936,0.6821359664056293
0,,sub_107,2024-07-03 16:26:08,3,distance,cathedral,numerosity_judgement,1,22,2,countries_forward,"['_Mali_', '_Yemen_']","['m', 'f']","['p256', 'p245']","[3, 7]","[89.14911522239515, 91.73820004985969]",2.0,True,7.0,2.8284271247461903,2.923815965652466,0.6287595051639996
0,,sub_107,2024-07-03 16:26:13,3,distance,cathedral,numerosity_judgement,1,23,5,countries_forward,"['_Oman_', '_Yemen_', '_Peru_', '_Britain_', '_Congo_']","['m', 'm', 'm', 'f', 'f']","['p256', 'p307', 'p229', 'p284', 'p248']","[10, 0, 6, 2, 7]","[93.00003341222717, 84.40078082039426, 91.58892582949886, 87.57049330475357, 91.73820004985969]",5.0,True,7.0,4.0,3.4266750812530518,0.7992736352286914
0,,sub_107,2024-07-03 16:26:17,3,distance,cathedral,numerosity_judgement,1,24,4,countries_forward,"['_Sudan_', '_Tonga_', '_Japan_', '_Yemen_']","['m', 'm', 'f', 'm']","['p256', 'p229', 'p248', 'p318']","[6, 0, 5, 10]","[91.58892582949886, 84.40078082039426, 90.34149293193902, 93.00003341222717]",2.0,False,7.25,4.112987559751022,2.313795328140259,0.7912609238451935
0,,sub_107,2024-07-03 16:26:22,3,distance,cathedral,numerosity_judgement,1,25,6,countries_forward,"['_Belgium_', '_Oman_', '_Britain_', '_Yemen_', '_Tonga_', '_Congo_']","['m', 'f', 'f', 'm', 'm', 'f']","['p307', 'p268', 'p245', 'p256', 'p229', 'p248']","[6, 4, 5, 7, 9, 8]","[91.58892582949886, 89.31368318402099, 90.34149293193902, 91.73820004985969, 92.00610777531934, 92.0152836843556]",4.0,False,8.5,1.8708286933869707,3.110203742980957,0.8202360685506753
0,,sub_107,2024-07-03 16:26:28,3,distance,cathedral,numerosity_judgement,1,26,5,countries_forward,"['_Oman_', '_Tonga_', '_Togo_', '_Cuba_', '_Britain_']","['m', 'f', 'f', 'm', 'm']","['p256', 'p268', 'p248', 'p318', 'p229']","[1, 3, 8, 9, 5]","[86.2038576498559, 89.14911522239515, 92.0152836843556, 92.00610777531934, 90.34149293193902]",3.0,False,7.2,3.3466401061363023,3.6716480255126953,0.7732833957553059
0,,sub_107,2024-07-03 16:26:34,3,distance,cathedral,numerosity_judgement,1,27,4,countries_forward,"['_Belgium_', '_Togo_', '_Japan_', '_Mali_']","['m', 'm', 'f', 'f']","['p318', 'p256', 'p248', 'p245']","[0, 5, 3, 2]","[84.40078082039426, 90.34149293193902, 89.14911522239515, 87.57049330475357]",2.0,False,4.5,2.0816659994661326,4.611056089401245,0.8947792532062195
0,,sub_107,2024-07-03 16:26:40,3,distance,cathedral,numerosity_judgement,1,28,3,countries_forward,"['_Togo_', '_Congo_', '_Yemen_']","['m', 'f', 'f']","['p307', 'p248', 'p268']","[5, 2, 3]","[90.34149293193902, 87.57049330475357, 89.14911522239515]",3.0,True,5.333333333333333,1.5275252316519465,4.484286546707153,0.8014527295426171
0,,sub_107,2024-07-03 16:26:46,3,distance,cathedral,numerosity_judgement,1,29,2,countries_forward,"['_Mali_', '_Congo_']","['m', 'm']","['p307', 'p256']","[8, 2]","[92.0152836843556, 87.57049330475357]",2.0,True,7.0,4.242640687119285,3.6735236644744873,0.8068777664283282
0,,sub_107,2024-07-03 16:26:53,3,distance,cathedral,numerosity_judgement,1,30,3,countries_forward,"['_Yemen_', '_Peru_', '_Togo_']","['f', 'f', 'f']","['p284', 'p245', 'p268']","[7, 1, 5]","[91.73820004985969, 86.2038576498559, 90.34149293193902]",3.0,True,6.333333333333333,3.0550504633038935,5.670952796936035,0.8108387243218704
0,,sub_107,2024-07-03 16:26:59,3,distance,cathedral,numerosity_judgement,1,31,5,countries_forward,"['_Congo_', '_Yemen_', '_Tonga_', '_Mali_', '_Peru_']","['m', 'm', 'f', 'm', 'm']","['p256', 'p318', 'p248', 'p229', 'p307']","[5, 4, 10, 0, 6]","[90.34149293193902, 89.31368318402099, 93.00003341222717, 84.40078082039426, 91.58892582949886]",3.0,False,7.0,3.605551275463989,4.233421325683594,0.8225400068096698
0,,sub_107,2024-07-03 16:27:05,3,distance,cathedral,numerosity_judgement,1,32,4,countries_forward,"['_Yemen_', '_Peru_', '_Cuba_', '_Britain_']","['m', 'm', 'm', 'f']","['p256', 'p229', 'p307', 'p248']","[9, 1, 7, 8]","[92.00610777531934, 86.2038576498559, 91.73820004985969, 92.0152836843556]",3.0,False,8.25,3.593976442141304,3.935725212097168,0.6815457950289411
0,,sub_107,2024-07-03 16:27:08,3,distance,cathedral,numerosity_judgement,1,33,2,countries_forward,"['_Sudan_', '_Oman_']","['f', 'm']","['p284', 'p307']","[10, 0]","[93.00003341222717, 84.40078082039426]",2.0,True,7.0,7.0710678118654755,1.6873750686645508,0.9671660424469414
0,,sub_107,2024-07-03 16:27:13,3,distance,cathedral,numerosity_judgement,1,34,6,countries_forward,"['_Togo_', '_Tonga_', '_Yemen_', '_Belgium_', '_Japan_', '_Mali_']","['f', 'm', 'f', 'm', 'f', 'm']","['p268', 'p318', 'p284', 'p256', 'p245', 'p229']","[8, 2, 1, 7, 5, 9]","[92.0152836843556, 87.57049330475357, 86.2038576498559, 91.73820004985969, 90.34149293193902, 92.00610777531934]",6.0,True,7.333333333333333,3.265986323710904,3.4244699478149414,0.8377028714107366
0,,sub_107,2024-07-03 16:27:18,3,distance,cathedral,numerosity_judgement,1,35,5,countries_forward,"['_Yemen_', '_Japan_', '_Peru_', '_Oman_', '_Cuba_']","['f', 'm', 'f', 'm', 'f']","['p284', 'p307', 'p268', 'p318', 'p245']","[5, 3, 10, 9, 2]","[90.34149293193902, 89.14911522239515, 93.00003341222717, 92.00610777531934, 87.57049330475357]",5.0,True,7.8,3.5637059362410923,2.549636125564575,0.7895698558619907
0,,sub_107,2024-07-03 16:27:21,3,distance,cathedral,numerosity_judgement,1,36,2,countries_forward,"['_Cuba_', '_Tonga_']","['m', 'f']","['p307', 'p248']","[7, 3]","[91.73820004985969, 89.14911522239515]",2.0,True,7.0,2.8284271247461903,2.1102683544158936,0.6477811826126433
0,,sub_107,2024-07-03 16:27:27,3,distance,cathedral,numerosity_judgement,1,37,6,countries_forward,"['_Oman_', '_Sudan_', '_Togo_', '_Peru_', '_Tonga_', '_Britain_']","['f', 'm', 'm', 'f', 'm', 'm']","['p245', 'p229', 'p307', 'p248', 'p318', 'p256']","[3, 1, 4, 5, 0, 8]","[89.14911522239515, 86.2038576498559, 89.31368318402099, 90.34149293193902, 84.40078082039426, 92.0152836843556]",4.0,False,5.5,2.8809720581775866,3.671828031539917,0.8443196004993758
0,,sub_107,2024-07-03 16:27:32,3,distance,cathedral,numerosity_judgement,1,38,4,countries_forward,"['_Tonga_', '_Mali_', '_Sudan_', '_Syria_']","['m', 'f', 'f', 'f']","['p256', 'p284', 'p248', 'p245']","[1, 6, 9, 0]","[86.2038576498559, 91.58892582949886, 92.00610777531934, 84.40078082039426]",5.0,False,6.0,4.242640687119285,3.6723546981811523,0.9527068437180796
0,,sub_107,2024-07-03 16:27:37,3,distance,cathedral,numerosity_judgement,1,39,3,countries_forward,"['_Togo_', '_Oman_', '_Syria_']","['m', 'f', 'f']","['p318', 'p248', 'p284']","[5, 2, 8]","[90.34149293193902, 87.57049330475357, 92.0152836843556]",4.0,False,7.0,3.0,3.5475645065307617,0.9150380206559982
0,,sub_107,2024-07-03 16:27:44,3,distance,cathedral,numerosity_judgement,1,40,6,countries_forward,"['_Oman_', '_Congo_', '_Mali_', '_Britain_', '_Tonga_', '_Cuba_']","['m', 'f', 'f', 'm', 'f', 'm']","['p256', 'p248', 'p245', 'p318', 'p268', 'p307']","[4, 7, 5, 8, 3, 10]","[89.31368318402099, 91.73820004985969, 90.34149293193902, 92.0152836843556, 89.14911522239515, 93.00003341222717]",3.0,False,8.166666666666666,2.6394443859772205,4.671519041061401,0.7578254454658949
0,,sub_107,2024-07-03 16:27:49,3,distance,cathedral,numerosity_judgement,1,41,3,countries_forward,"['_Belgium_', '_Tonga_', '_Togo_']","['m', 'f', 'm']","['p307', 'p268', 'p229']","[8, 6, 7]","[92.0152836843556, 91.58892582949886, 91.73820004985969]",2.0,False,9.0,1.0,3.3122730255126953,0.778742480989672
0,,sub_107,2024-07-03 16:27:54,3,distance,cathedral,numerosity_judgement,1,42,2,countries_forward,"['_Oman_', '_Yemen_']","['m', 'm']","['p229', 'p256']","[3, 6]","[89.14911522239515, 91.58892582949886]",2.0,True,6.5,2.1213203435596424,3.187262535095215,0.5410623084780388
0,,sub_107,2024-07-03 16:27:59,3,distance,cathedral,numerosity_judgement,1,43,5,countries_forward,"['_Yemen_', '_Belgium_', '_Britain_', '_Oman_', '_Tonga_']","['m', 'm', 'm', 'f', 'f']","['p229', 'p256', 'p307', 'p245', 'p248']","[5, 9, 3, 10, 2]","[90.34149293193902, 92.00610777531934, 89.14911522239515, 93.00003341222717, 87.57049330475357]",4.0,False,7.8,3.5637059362410923,3.687159299850464,0.7539893315174214
0,,sub_107,2024-07-03 16:28:07,3,distance,cathedral,numerosity_judgement,1,44,4,countries_forward,"['_Syria_', '_Japan_', '_Cuba_', '_Oman_']","['m', 'm', 'f', 'f']","['p318', 'p256', 'p245', 'p284']","[9, 0, 7, 10]","[92.00610777531934, 84.40078082039426, 91.73820004985969, 93.00003341222717]",4.0,True,8.5,4.509249752822894,6.376521348953247,0.841164453524004
0,,sub_107,2024-07-03 16:28:15,3,distance,cathedral,numerosity_judgement,1,45,6,countries_forward,"['_Belgium_', '_Mali_', '_Britain_', '_Peru_', '_Tonga_', '_Sudan_']","['f', 'm', 'f', 'f', 'm', 'm']","['p245', 'p318', 'p284', 'p268', 'p307', 'p229']","[6, 0, 7, 2, 1, 10]","[91.58892582949886, 84.40078082039426, 91.73820004985969, 87.57049330475357, 86.2038576498559, 93.00003341222717]",5.0,False,6.333333333333333,3.9327683210007,5.295928478240967,0.9538304392236976
0,,sub_107,2024-07-03 16:28:18,3,distance,cathedral,numerosity_judgement,1,46,3,countries_forward,"['_Congo_', '_Oman_', '_Yemen_']","['f', 'm', 'f']","['p268', 'p307', 'p245']","[3, 4, 6]","[89.14911522239515, 89.31368318402099, 91.58892582949886]",2.0,False,6.333333333333333,1.5275252316519465,1.9373555183410645,0.6248439450686641
0,,sub_107,2024-07-03 16:28:24,3,distance,cathedral,numerosity_judgement,1,47,5,countries_forward,"['_Oman_', '_Peru_', '_Mali_', '_Yemen_', '_Belgium_']","['f', 'f', 'm', 'm', 'f']","['p248', 'p284', 'p307', 'p256', 'p268']","[6, 7, 5, 10, 8]","[91.58892582949886, 91.73820004985969, 90.34149293193902, 93.00003341222717, 92.0152836843556]",4.0,False,9.2,1.9235384061671346,3.4860334396362305,0.6961298377028714
0,,sub_107,2024-07-03 16:28:27,3,distance,cathedral,numerosity_judgement,1,48,2,countries_forward,"['_Belgium_', '_Peru_']","['m', 'f']","['p307', 'p268']","[1, 6]","[86.2038576498559, 91.58892582949886]",2.0,True,5.5,3.5355339059327378,1.5493273735046387,0.8879241856769947
0,,sub_107,2024-07-03 16:28:33,3,distance,cathedral,numerosity_judgement,1,49,4,countries_forward,"['_Yemen_', '_Oman_', '_Peru_', '_Togo_']","['m', 'm', 'f', 'm']","['p229', 'p307', 'p268', 'p256']","[9, 5, 3, 10]","[92.00610777531934, 90.34149293193902, 89.14911522239515, 93.00003341222717]",3.0,False,8.75,3.304037933599835,4.45121693611145,0.6414935875610033
0,,sub_107,2024-07-03 16:28:37,3,distance,cathedral,numerosity_judgement,1,50,3,countries_forward,"['_Tonga_', '_Japan_', '_Togo_']","['f', 'm', 'f']","['p284', 'p256', 'p245']","[2, 3, 5]","[87.57049330475357, 89.14911522239515, 90.34149293193902]",3.0,True,5.333333333333333,1.5275252316519465,3.0631821155548096,0.8576438542730678
0,,sub_107,2024-07-03 16:28:43,3,distance,cathedral,numerosity_judgement,1,51,4,countries_forward,"['_Tonga_', '_Togo_', '_Syria_', '_Belgium_']","['f', 'f', 'f', 'm']","['p248', 'p245', 'p284', 'p318']","[0, 7, 8, 9]","[84.40078082039426, 91.73820004985969, 92.0152836843556, 92.00610777531934]",4.0,True,8.0,4.08248290463863,4.236375093460083,0.9552491204176596
0,,sub_107,2024-07-03 16:28:47,3,distance,cathedral,numerosity_judgement,1,52,2,countries_forward,"['_Tonga_', '_Cuba_']","['m', 'f']","['p307', 'p284']","[4, 1]","[89.31368318402099, 86.2038576498559]",2.0,True,4.5,2.1213203435596424,1.923111915588379,0.855612302803314
0,,sub_107,2024-07-03 16:28:53,3,distance,cathedral,numerosity_judgement,1,53,6,countries_forward,"['_Japan_', '_Belgium_', '_Britain_', '_Yemen_', '_Mali_', '_Togo_']","['m', 'm', 'f', 'm', 'f', 'm']","['p318', 'p307', 'p245', 'p256', 'p248', 'p229']","[7, 1, 6, 0, 3, 4]","[91.73820004985969, 86.2038576498559, 91.58892582949886, 84.40078082039426, 89.14911522239515, 89.31368318402099]",3.0,False,5.5,2.7386127875258306,4.0472822189331055,0.8945295653160822
0,,sub_107,2024-07-03 16:28:59,3,distance,cathedral,numerosity_judgement,1,54,5,countries_forward,"['_Japan_', '_Cuba_', '_Yemen_', '_Mali_', '_Sudan_']","['f', 'f', 'f', 'f', 'm']","['p248', 'p245', 'p284', 'p268', 'p229']","[4, 7, 9, 0, 3]","[89.31368318402099, 91.73820004985969, 92.00610777531934, 84.40078082039426, 89.14911522239515]",4.0,False,6.6,3.5071355833500366,4.734901189804077,0.8500624219725343
0,,sub_107,2024-07-03 16:29:04,3,distance,cathedral,numerosity_judgement,1,55,2,countries_forward,"['_Togo_', '_Cuba_']","['f', 'm']","['p245', 'p229']","[3, 6]","[89.14911522239515, 91.58892582949886]",2.0,True,6.5,2.1213203435596424,3.187262535095215,0.7423220973782771
0,,sub_107,2024-07-03 16:29:12,3,distance,cathedral,numerosity_judgement,1,56,4,countries_forward,"['_Britain_', '_Cuba_', '_Belgium_', '_Yemen_']","['m', 'f', 'm', 'm']","['p318', 'p245', 'p229', 'p256']","[8, 7, 0, 10]","[92.0152836843556, 91.73820004985969, 84.40078082039426, 93.00003341222717]",3.0,False,8.25,4.349329450233296,6.563138961791992,0.707524685052775
0,,sub_107,2024-07-03 16:29:20,3,distance,cathedral,numerosity_judgement,1,57,3,countries_forward,"['_Britain_', '_Tonga_', '_Togo_']","['f', 'm', 'm']","['p248', 'p256', 'p307']","[8, 10, 5]","[92.0152836843556, 93.00003341222717, 90.34149293193902]",4.0,False,9.666666666666666,2.516611478423583,5.685559272766113,0.739110203155147
0,,sub_107,2024-07-03 16:29:27,3,distance,cathedral,numerosity_judgement,1,58,6,countries_forward,"['_Cuba_', '_Japan_', '_Sudan_', '_Oman_', '_Peru_', '_Britain_']","['f', 'm', 'm', 'f', 'm', 'f']","['p284', 'p307', 'p229', 'p248', 'p318', 'p245']","[0, 7, 4, 1, 3, 2]","[84.40078082039426, 91.73820004985969, 89.31368318402099, 86.2038576498559, 89.14911522239515, 87.57049330475357]",3.0,False,4.833333333333333,2.48327740429189,5.375711441040039,0.9374758824197028
0,,sub_107,2024-07-03 16:29:35,3,distance,cathedral,numerosity_judgement,1,59,5,countries_forward,"['_Cuba_', '_Yemen_', '_Sudan_', '_Togo_', '_Japan_']","['m', 'm', 'f', 'f', 'f']","['p318', 'p307', 'p284', 'p245', 'p248']","[1, 6, 10, 3, 4]","[86.2038576498559, 91.58892582949886, 93.00003341222717, 89.14911522239515, 89.31368318402099]",4.0,False,6.8,3.420526275297414,6.045581579208374,0.9072295993644308
0,,sub_107,2024-07-03 16:29:39,3,distance,cathedral,numerosity_judgement,1,60,2,countries_forward,"['_Japan_', '_Yemen_']","['m', 'f']","['p307', 'p245']","[3, 10]","[89.14911522239515, 93.00003341222717]",2.0,True,8.5,4.949747468305833,2.749795913696289,0.75030076041312
0,,sub_107,2024-07-03 16:29:44,3,distance,cathedral,numerosity_judgement,1,61,4,countries_forward,"['_Mali_', '_Japan_', '_Tonga_', '_Peru_']","['m', 'm', 'f', 'f']","['p318', 'p229', 'p245', 'p268']","[10, 6, 7, 0]","[93.00003341222717, 91.58892582949886, 91.73820004985969, 84.40078082039426]",3.0,False,7.75,4.193248541803041,3.374748945236206,0.8670525479514244
0,,sub_107,2024-07-03 16:29:51,3,distance,cathedral,numerosity_judgement,1,62,5,countries_forward,"['_Cuba_', '_Mali_', '_Britain_', '_Tonga_', '_Oman_']","['m', 'f', 'm', 'm', 'f']","['p229', 'p245', 'p256', 'p307', 'p284']","[9, 5, 7, 10, 6]","[92.00610777531934, 90.34149293193902, 91.73820004985969, 93.00003341222717, 91.58892582949886]",4.0,False,9.4,2.073644135332772,4.796372890472412,0.729531267733515
0,,sub_107,2024-07-03 16:29:55,3,distance,cathedral,numerosity_judgement,1,63,3,countries_forward,"['_Syria_', '_Sudan_', '_Oman_']","['f', 'm', 'f']","['p284', 'p229', 'p248']","[2, 6, 0]","[87.57049330475357, 91.58892582949886, 84.40078082039426]",3.0,True,4.666666666666667,3.0550504633038935,2.061558246612549,0.940562932697764
0,,sub_107,2024-07-03 16:30:00,3,distance,cathedral,numerosity_judgement,1,64,6,countries_forward,"['_Oman_', '_Syria_', '_Togo_', '_Cuba_', '_Japan_', '_Sudan_']","['m', 'm', 'f', 'f', 'm', 'f']","['p256', 'p229', 'p248', 'p245', 'p318', 'p284']","[3, 8, 9, 7, 0, 5]","[89.14911522239515, 92.0152836843556, 92.00610777531934, 91.73820004985969, 84.40078082039426, 90.34149293193902]",6.0,True,7.333333333333333,3.3862466931200785,2.687300443649292,0.8707638179548292
0,,sub_107,2024-07-03 16:30:04,3,distance,cathedral,numerosity_judgement,1,65,5,countries_forward,"['_Congo_', '_Oman_', '_Belgium_', '_Sudan_', '_Japan_']","['m', 'm', 'f', 'f', 'm']","['p256', 'p229', 'p268', 'p245', 'p307']","[6, 7, 3, 1, 8]","[91.58892582949886, 91.73820004985969, 89.14911522239515, 86.2038576498559, 92.0152836843556]",5.0,True,7.0,2.9154759474226504,2.8122894763946533,0.853739643627284
0,,sub_107,2024-07-03 16:30:09,3,distance,cathedral,numerosity_judgement,1,66,3,countries_forward,"['_Sudan_', '_Belgium_', '_Congo_']","['f', 'm', 'f']","['p284', 'p318', 'p245']","[4, 2, 1]","[89.31368318402099, 87.57049330475357, 86.2038576498559]",3.0,True,4.333333333333333,1.5275252316519465,3.437243700027466,0.9708546135512428
0,,sub_107,2024-07-03 16:30:15,3,distance,cathedral,numerosity_judgement,1,67,6,countries_forward,"['_Yemen_', '_Mali_', '_Congo_', '_Togo_', '_Peru_', '_Oman_']","['m', 'm', 'f', 'm', 'f', 'f']","['p318', 'p256', 'p284', 'p307', 'p245', 'p248']","[0, 8, 2, 7, 5, 6]","[84.40078082039426, 92.0152836843556, 87.57049330475357, 91.73820004985969, 90.34149293193902, 91.58892582949886]",4.0,False,6.666666666666667,3.0767948691238205,3.6247003078460693,0.7287141073657928
0,,sub_107,2024-07-03 16:30:20,3,distance,cathedral,numerosity_judgement,1,68,4,countries_forward,"['_Tonga_', '_Yemen_', '_Britain_', '_Oman_']","['f', 'm', 'f', 'm']","['p248', 'p318', 'p268', 'p229']","[5, 0, 1, 8]","[90.34149293193902, 84.40078082039426, 86.2038576498559, 92.0152836843556]",3.0,False,5.5,3.696845502136472,3.6842775344848633,0.7503802065599818
0,,sub_107,2024-07-03 16:30:24,3,distance,cathedral,numerosity_judgement,1,69,2,countries_forward,"['_Oman_', '_Mali_']","['m', 'm']","['p229', 'p307']","[5, 10]","[90.34149293193902, 93.00003341222717]",2.0,True,9.5,3.5355339059327378,2.312326431274414,0.6705368289637953
0,,sub_107,2024-07-03 16:30:29,3,distance,cathedral,numerosity_judgement,1,70,4,countries_forward,"['_Congo_', '_Peru_', '_Yemen_', '_Syria_']","['f', 'm', 'm', 'f']","['p245', 'p229', 'p307', 'p248']","[3, 5, 8, 4]","[89.14911522239515, 90.34149293193902, 92.0152836843556, 89.31368318402099]",3.0,False,7.0,2.160246899469287,3.562234401702881,0.8181477698331631
0,,sub_107,2024-07-03 16:30:34,3,distance,cathedral,numerosity_judgement,1,71,3,countries_forward,"['_Japan_', '_Syria_', '_Congo_']","['m', 'f', 'm']","['p307', 'p284', 'p318']","[9, 1, 5]","[92.00610777531934, 86.2038576498559, 90.34149293193902]",4.0,False,7.0,4.0,3.3747479915618896,0.8817614345704233
0,,sub_107,2024-07-03 16:30:38,3,distance,cathedral,numerosity_judgement,1,72,2,countries_forward,"['_Japan_', '_Congo_']","['m', 'm']","['p307', 'p229']","[6, 7]","[91.58892582949886, 91.73820004985969]",2.0,True,8.5,0.7071067811865476,2.5623087882995605,0.8044489842242651
0,,sub_107,2024-07-03 16:30:45,3,distance,cathedral,numerosity_judgement,1,73,6,countries_forward,"['_Mali_', '_Japan_', '_Tonga_', '_Oman_', '_Belgium_', '_Yemen_']","['m', 'm', 'f', 'm', 'f', 'f']","['p307', 'p256', 'p245', 'p229', 'p268', 'p248']","[8, 6, 3, 0, 1, 4]","[92.0152836843556, 91.58892582949886, 89.14911522239515, 84.40078082039426, 86.2038576498559, 89.31368318402099]",3.0,False,5.666666666666667,3.011090610836324,4.127245187759399,0.7787651798887754
0,,sub_107,2024-07-03 16:30:51,3,distance,cathedral,numerosity_judgement,1,74,5,countries_forward,"['_Yemen_', '_Peru_', '_Congo_', '_Sudan_', '_Belgium_']","['f', 'm', 'm', 'f', 'f']","['p245', 'p318', 'p307', 'p268', 'p248']","[0, 9, 10, 7, 4]","[84.40078082039426, 92.00610777531934, 93.00003341222717, 91.73820004985969, 89.31368318402099]",4.0,False,8.0,4.06201920231798,4.483637571334839,0.9121098626716604
0,,sub_107,2024-07-03 16:32:34,3,distance,cathedral,numerosity_judgement,2,0,6,countries_forward,"['_Togo_', '_Congo_', '_Sudan_', '_Tonga_', '_Belgium_', '_Mali_']","['f', 'f', 'm', 'f', 'f', 'm']","['p284', 'p248', 'p307', 'p268', 'p245', 'p318']","[10, 7, 8, 1, 0, 9]","[93.00003341222717, 91.73820004985969, 92.0152836843556, 86.2038576498559, 84.40078082039426, 92.00610777531934]",4.0,False,7.833333333333333,4.262237284181474,5.81400465965271,0.9188514357053684
0,,sub_107,2024-07-03 16:32:41,3,distance,cathedral,numerosity_judgement,2,1,5,countries_forward,"['_Belgium_', '_Oman_', '_Cuba_', '_Sudan_', '_Tonga_']","['f', 'm', 'm', 'm', 'f']","['p284', 'p307', 'p256', 'p229', 'p248']","[7, 4, 3, 5, 1]","[91.73820004985969, 89.31368318402099, 89.14911522239515, 90.34149293193902, 86.2038576498559]",3.0,False,6.0,2.23606797749979,5.125875234603882,0.9273294745204858
0,,sub_107,2024-07-03 16:32:49,3,distance,cathedral,numerosity_judgement,2,2,4,countries_forward,"['_Oman_', '_Cuba_', '_Yemen_', '_Tonga_']","['f', 'm', 'm', 'f']","['p248', 'p318', 'p229', 'p284']","[6, 5, 8, 9]","[91.58892582949886, 90.34149293193902, 92.0152836843556, 92.00610777531934]",5.0,False,9.0,1.8257418583505538,5.609576463699341,0.8051413006469186
0,,sub_107,2024-07-03 16:32:53,3,distance,cathedral,numerosity_judgement,2,3,2,countries_forward,"['_Yemen_', '_Syria_']","['f', 'f']","['p248', 'p245']","[3, 6]","[89.14911522239515, 91.58892582949886]",2.0,True,6.5,2.1213203435596424,2.686814308166504,0.8483713539893315
0,,sub_107,2024-07-03 16:32:58,3,distance,cathedral,numerosity_judgement,2,4,3,countries_forward,"['_Oman_', '_Tonga_', '_Britain_']","['f', 'm', 'm']","['p245', 'p229', 'p307']","[3, 5, 9]","[89.14911522239515, 90.34149293193902, 92.00610777531934]",3.0,True,7.666666666666667,3.0550504633038935,3.9225316047668457,0.7239246396549768
0,,sub_107,2024-07-03 16:33:06,3,distance,cathedral,numerosity_judgement,2,5,6,countries_forward,"['_Congo_', '_Cuba_', '_Peru_', '_Japan_', '_Tonga_', '_Britain_']","['f', 'f', 'm', 'm', 'f', 'f']","['p245', 'p268', 'p318', 'p256', 'p284', 'p248']","[0, 5, 4, 7, 3, 6]","[84.40078082039426, 90.34149293193902, 89.31368318402099, 91.73820004985969, 89.14911522239515, 91.58892582949886]",4.0,False,6.166666666666667,2.48327740429189,6.034118890762329,0.832334581772784
0,,sub_107,2024-07-03 16:33:12,3,distance,cathedral,numerosity_judgement,2,6,2,countries_forward,"['_Mali_', '_Cuba_']","['f', 'm']","['p245', 'p318']","[8, 4]","[92.0152836843556, 89.31368318402099]",3.0,False,8.0,2.8284271247461903,4.311292886734009,0.8636250141868119
0,,sub_107,2024-07-03 16:33:19,3,distance,cathedral,numerosity_judgement,2,7,5,countries_forward,"['_Belgium_', '_Japan_', '_Oman_', '_Mali_', '_Togo_']","['m', 'm', 'f', 'm', 'f']","['p307', 'p256', 'p245', 'p229', 'p268']","[9, 4, 2, 10, 7]","[92.00610777531934, 89.31368318402099, 87.57049330475357, 93.00003341222717, 91.73820004985969]",4.0,False,8.4,3.361547262794322,4.547591209411621,0.7535467029849052
0,,sub_107,2024-07-03 16:33:24,3,distance,cathedral,numerosity_judgement,2,8,3,countries_forward,"['_Congo_', '_Cuba_', '_Japan_']","['f', 'm', 'f']","['p268', 'p307', 'p248']","[6, 8, 10]","[91.58892582949886, 92.0152836843556, 93.00003341222717]",3.0,True,10.0,2.0,4.047755002975464,0.8189422313017819
0,,sub_107,2024-07-03 16:33:30,3,distance,cathedral,numerosity_judgement,2,9,4,countries_forward,"['_Syria_', '_Japan_', '_Sudan_', '_Peru_']","['m', 'f', 'm', 'f']","['p318', 'p248', 'p307', 'p268']","[0, 8, 6, 7]","[84.40078082039426, 92.0152836843556, 91.58892582949886, 91.73820004985969]",4.0,True,7.25,3.593976442141304,4.126985311508179,0.8836113948473499
0,,sub_107,2024-07-03 16:33:37,3,distance,cathedral,numerosity_judgement,2,10,5,countries_forward,"['_Belgium_', '_Togo_', '_Oman_', '_Congo_', '_Britain_']","['m', 'f', 'm', 'f', 'm']","['p229', 'p284', 'p256', 'p248', 'p307']","[2, 1, 6, 4, 10]","[87.57049330475357, 86.2038576498559, 91.58892582949886, 89.31368318402099, 93.00003341222717]",4.0,False,6.6,3.5777087639996634,4.624684572219849,0.8337986607649529
0,,sub_107,2024-07-03 16:33:42,3,distance,cathedral,numerosity_judgement,2,11,3,countries_forward,"['_Mali_', '_Yemen_', '_Britain_']","['m', 'f', 'm']","['p256', 'p284', 'p318']","[7, 1, 4]","[91.73820004985969, 86.2038576498559, 89.31368318402099]",3.0,True,6.0,3.0,3.876818895339966,0.7364771308591533
0,,sub_107,2024-07-03 16:33:48,3,distance,cathedral,numerosity_judgement,2,12,6,countries_forward,"['_Yemen_', '_Britain_', '_Cuba_', '_Japan_', '_Belgium_', '_Oman_']","['f', 'f', 'm', 'm', 'm', 'f']","['p268', 'p245', 'p307', 'p318', 'p229', 'p248']","[3, 8, 2, 10, 1, 7]","[89.14911522239515, 92.0152836843556, 87.57049330475357, 93.00003341222717, 86.2038576498559, 91.73820004985969]",5.0,False,7.166666666666667,3.65604522218567,3.6728005409240723,0.7707184201566224
0,,sub_107,2024-07-03 16:33:52,3,distance,cathedral,numerosity_judgement,2,13,2,countries_forward,"['_Mali_', '_Yemen_']","['m', 'm']","['p229', 'p318']","[8, 5]","[92.0152836843556, 90.34149293193902]",2.0,True,8.5,2.1213203435596424,2.873833656311035,0.7252525252525253
0,,sub_107,2024-07-03 16:33:58,3,distance,cathedral,numerosity_judgement,2,14,4,countries_forward,"['_Britain_', '_Belgium_', '_Sudan_', '_Oman_']","['m', 'f', 'f', 'f']","['p229', 'p248', 'p245', 'p284']","[6, 2, 0, 7]","[91.58892582949886, 87.57049330475357, 84.40078082039426, 91.73820004985969]",3.0,False,5.75,3.304037933599835,4.484856128692627,0.920996481670639
0,,sub_107,2024-07-03 16:34:02,3,distance,cathedral,numerosity_judgement,2,15,2,countries_forward,"['_Mali_', '_Oman_']","['m', 'm']","['p307', 'p256']","[5, 7]","[90.34149293193902, 91.73820004985969]",2.0,True,8.0,1.4142135623730951,2.499706745147705,0.5621949835432981
0,,sub_107,2024-07-03 16:34:09,3,distance,cathedral,numerosity_judgement,2,16,4,countries_forward,"['_Togo_', '_Britain_', '_Mali_', '_Cuba_']","['f', 'm', 'f', 'm']","['p245', 'p256', 'p284', 'p307']","[6, 0, 8, 7]","[91.58892582949886, 84.40078082039426, 92.0152836843556, 91.73820004985969]",4.0,True,7.25,3.593976442141304,5.235175848007202,0.6877085461355125
0,,sub_107,2024-07-03 16:34:14,3,distance,cathedral,numerosity_judgement,2,17,6,countries_forward,"['_Mali_', '_Syria_', '_Sudan_', '_Congo_', '_Japan_', '_Peru_']","['m', 'm', 'f', 'm', 'f', 'f']","['p256', 'p318', 'p284', 'p229', 'p248', 'p245']","[10, 9, 5, 3, 8, 1]","[93.00003341222717, 92.00610777531934, 90.34149293193902, 89.14911522239515, 92.0152836843556, 86.2038576498559]",5.0,False,8.0,3.5777087639996634,2.4998116493225098,0.93398025195778
0,,sub_107,2024-07-03 16:34:18,3,distance,cathedral,numerosity_judgement,2,18,5,countries_forward,"['_Syria_', '_Oman_', '_Yemen_', '_Peru_', '_Congo_']","['f', 'm', 'm', 'm', 'f']","['p248', 'p256', 'p307', 'p318', 'p284']","[5, 3, 9, 8, 2]","[90.34149293193902, 89.14911522239515, 92.00610777531934, 92.0152836843556, 87.57049330475357]",4.0,False,7.4,3.0495901363953815,2.062497854232788,0.8087617750539099
0,,sub_107,2024-07-03 16:34:21,3,distance,cathedral,numerosity_judgement,2,19,3,countries_forward,"['_Oman_', '_Peru_', '_Britain_']","['m', 'f', 'm']","['p256', 'p268', 'p318']","[10, 4, 3]","[93.00003341222717, 89.31368318402099, 89.14911522239515]",2.0,False,7.666666666666667,3.7859388972001824,2.1113178730010986,0.6588241970264442
0,,sub_107,2024-07-03 16:34:26,3,distance,cathedral,numerosity_judgement,2,20,6,countries_forward,"['_Oman_', '_Congo_', '_Mali_', '_Britain_', '_Tonga_', '_Cuba_']","['m', 'f', 'f', 'm', 'f', 'm']","['p256', 'p248', 'p245', 'p318', 'p268', 'p307']","[4, 7, 5, 8, 3, 10]","[89.31368318402099, 91.73820004985969, 90.34149293193902, 92.0152836843556, 89.14911522239515, 93.00003341222717]",3.0,False,8.166666666666666,2.6394443859772205,2.5612289905548096,0.7578254454658949
0,,sub_107,2024-07-03 16:34:30,3,distance,cathedral,numerosity_judgement,2,21,3,countries_forward,"['_Cuba_', '_Yemen_', '_Britain_']","['f', 'm', 'm']","['p245', 'p229', 'p307']","[7, 5, 4]","[91.73820004985969, 90.34149293193902, 89.31368318402099]",2.0,False,7.333333333333333,1.5275252316519465,2.3123550415039062,0.7044262853251617
0,,sub_107,2024-07-03 16:34:33,3,distance,cathedral,numerosity_judgement,2,22,2,countries_forward,"['_Oman_', '_Mali_']","['m', 'm']","['p229', 'p256']","[8, 3]","[92.0152836843556, 89.14911522239515]",2.0,True,7.5,3.5355339059327378,1.6248779296875,0.6889683350357507
0,,sub_107,2024-07-03 16:34:37,3,distance,cathedral,numerosity_judgement,2,23,4,countries_forward,"['_Congo_', '_Britain_', '_Syria_', '_Mali_']","['m', 'f', 'f', 'f']","['p318', 'p284', 'p245', 'p268']","[3, 5, 4, 1]","[89.14911522239515, 90.34149293193902, 89.31368318402099, 86.2038576498559]",3.0,False,5.25,1.707825127659933,2.188448667526245,0.941765974350244
0,,sub_107,2024-07-03 16:34:41,3,distance,cathedral,numerosity_judgement,2,24,5,countries_forward,"['_Cuba_', '_Sudan_', '_Oman_', '_Syria_', '_Peru_']","['f', 'f', 'm', 'f', 'm']","['p248', 'p245', 'p229', 'p284', 'p318']","[3, 8, 9, 5, 7]","[89.14911522239515, 92.0152836843556, 92.00610777531934, 90.34149293193902, 91.73820004985969]",4.0,False,8.4,2.4083189157584592,2.559776782989502,0.903291340369992
0,,sub_107,2024-07-03 16:34:47,3,distance,cathedral,numerosity_judgement,2,25,4,countries_forward,"['_Peru_', '_Mali_', '_Britain_', '_Japan_']","['m', 'm', 'm', 'f']","['p256', 'p307', 'p229', 'p248']","[9, 10, 5, 8]","[92.00610777531934, 93.00003341222717, 90.34149293193902, 92.0152836843556]",4.0,True,10.0,2.160246899469287,3.813389301300049,0.788287368062649
0,,sub_107,2024-07-03 16:34:51,3,distance,cathedral,numerosity_judgement,2,26,2,countries_forward,"['_Togo_', '_Congo_']","['m', 'f']","['p307', 'p284']","[9, 1]","[92.00610777531934, 86.2038576498559]",2.0,True,7.0,5.656854249492381,2.6228907108306885,0.8950402905459085
0,,sub_107,2024-07-03 16:34:57,3,distance,cathedral,numerosity_judgement,2,27,6,countries_forward,"['_Yemen_', '_Tonga_', '_Mali_', '_Cuba_', '_Togo_', '_Congo_']","['m', 'f', 'f', 'm', 'm', 'f']","['p318', 'p268', 'p248', 'p307', 'p256', 'p245']","[5, 3, 10, 7, 2, 4]","[90.34149293193902, 89.14911522239515, 93.00003341222717, 91.73820004985969, 87.57049330475357, 89.31368318402099]",3.0,False,7.166666666666667,2.9268868558020253,4.501014471054077,0.6946544092611509
0,,sub_107,2024-07-03 16:35:02,3,distance,cathedral,numerosity_judgement,2,28,5,countries_forward,"['_Cuba_', '_Syria_', '_Peru_', '_Japan_', '_Oman_']","['m', 'm', 'f', 'm', 'f']","['p318', 'p229', 'p248', 'p307', 'p245']","[5, 10, 6, 0, 8]","[90.34149293193902, 93.00003341222717, 91.58892582949886, 84.40078082039426, 92.0152836843556]",4.0,False,7.8,3.7682887362833544,3.00040864944458,0.8794801952105323
0,,sub_107,2024-07-03 16:35:07,3,distance,cathedral,numerosity_judgement,2,29,3,countries_forward,"['_Cuba_', '_Congo_', '_Tonga_']","['m', 'm', 'f']","['p256', 'p307', 'p284']","[10, 9, 4]","[93.00003341222717, 92.00610777531934, 89.31368318402099]",5.0,False,9.666666666666666,3.214550253664318,3.313682794570923,0.7999886505504483
0,,sub_107,2024-07-03 16:35:11,3,distance,cathedral,numerosity_judgement,2,30,2,countries_forward,"['_Peru_', '_Cuba_']","['m', 'm']","['p256', 'p307']","[1, 7]","[86.2038576498559, 91.73820004985969]",2.0,True,6.0,4.242640687119285,2.558811664581299,0.6684825785949381
0,,sub_107,2024-07-03 16:35:16,3,distance,cathedral,numerosity_judgement,2,31,5,countries_forward,"['_Yemen_', '_Oman_', '_Peru_', '_Mali_', '_Congo_']","['m', 'm', 'f', 'f', 'm']","['p256', 'p307', 'p268', 'p248', 'p229']","[7, 5, 4, 0, 9]","[91.73820004985969, 90.34149293193902, 89.31368318402099, 84.40078082039426, 92.00610777531934]",4.0,False,7.0,3.391164991562634,2.871764898300171,0.6961865849506299
0,,sub_107,2024-07-03 16:35:21,3,distance,cathedral,numerosity_judgement,2,32,4,countries_forward,"['_Mali_', '_Togo_', '_Japan_', '_Tonga_']","['f', 'm', 'm', 'f']","['p245', 'p318', 'p256', 'p284']","[1, 10, 7, 6]","[86.2038576498559, 93.00003341222717, 91.73820004985969, 91.58892582949886]",4.0,True,8.0,3.7416573867739413,3.7489752769470215,0.8960049937578027
0,,sub_107,2024-07-03 16:35:26,3,distance,cathedral,numerosity_judgement,2,33,3,countries_forward,"['_Sudan_', '_Oman_', '_Peru_']","['m', 'm', 'f']","['p256', 'p318', 'p284']","[4, 8, 2]","[89.31368318402099, 92.0152836843556, 87.57049330475357]",3.0,True,6.666666666666667,3.0550504633038935,3.246009588241577,0.8668596073090455
0,,sub_107,2024-07-03 16:35:31,3,distance,cathedral,numerosity_judgement,2,34,6,countries_forward,"['_Syria_', '_Cuba_', '_Sudan_', '_Togo_', '_Yemen_', '_Oman_']","['m', 'f', 'm', 'm', 'f', 'f']","['p307', 'p268', 'p229', 'p256', 'p245', 'p248']","[6, 8, 4, 2, 3, 1]","[91.58892582949886, 92.0152836843556, 89.31368318402099, 87.57049330475357, 89.14911522239515, 86.2038576498559]",6.0,True,6.0,2.6076809620810595,2.9375457763671875,0.8715128816252412
0,,sub_107,2024-07-03 16:35:35,3,distance,cathedral,numerosity_judgement,2,35,2,countries_forward,"['_Yemen_', '_Togo_']","['m', 'f']","['p229', 'p268']","[10, 5]","[93.00003341222717, 90.34149293193902]",2.0,True,9.5,3.5355339059327378,2.2498316764831543,0.8139825218476904
0,,sub_107,2024-07-03 16:35:40,3,distance,cathedral,numerosity_judgement,2,36,4,countries_forward,"['_Congo_', '_Sudan_', '_Yemen_', '_Oman_']","['m', 'f', 'm', 'f']","['p229', 'p248', 'p256', 'p284']","[0, 1, 7, 10]","[84.40078082039426, 86.2038576498559, 91.73820004985969, 93.00003341222717]",4.0,True,6.5,4.795831523312719,3.562234878540039,0.8189422313017819
0,,sub_107,2024-07-03 16:35:46,3,distance,cathedral,numerosity_judgement,2,37,3,countries_forward,"['_Yemen_', '_Britain_', '_Tonga_']","['f', 'm', 'f']","['p248', 'p307', 'p245']","[3, 9, 10]","[89.14911522239515, 92.00610777531934, 93.00003341222717]",3.0,True,9.333333333333334,3.7859388972001824,4.05990743637085,0.667177391896493
0,,sub_107,2024-07-03 16:35:51,3,distance,cathedral,numerosity_judgement,2,38,5,countries_forward,"['_Cuba_', '_Syria_', '_Yemen_', '_Oman_', '_Tonga_']","['f', 'f', 'm', 'm', 'f']","['p245', 'p284', 'p229', 'p318', 'p248']","[5, 2, 4, 7, 6]","[90.34149293193902, 87.57049330475357, 89.31368318402099, 91.73820004985969, 91.58892582949886]",4.0,False,6.8,1.9235384061671346,2.997288227081299,0.7887072976960617
0,,sub_107,2024-07-03 16:35:56,3,distance,cathedral,numerosity_judgement,2,39,6,countries_forward,"['_Togo_', '_Congo_', '_Belgium_', '_Oman_', '_Cuba_', '_Tonga_']","['m', 'f', 'f', 'f', 'm', 'f']","['p229', 'p245', 'p284', 'p268', 'p307', 'p248']","[1, 10, 2, 9, 0, 4]","[86.2038576498559, 93.00003341222717, 87.57049330475357, 92.00610777531934, 84.40078082039426, 89.31368318402099]",5.0,False,6.333333333333333,4.226897995772629,3.6259605884552,0.9030076041311996
0,,sub_107,2024-07-03 16:36:01,3,distance,cathedral,numerosity_judgement,2,40,2,countries_forward,"['_Japan_', '_Togo_']","['m', 'm']","['p229', 'p256']","[6, 0]","[91.58892582949886, 84.40078082039426]",2.0,True,5.0,4.242640687119285,2.6239495277404785,0.9277607536034502
0,,sub_107,2024-07-03 16:36:06,3,distance,cathedral,numerosity_judgement,2,41,3,countries_forward,"['_Syria_', '_Oman_', '_Congo_']","['f', 'f', 'f']","['p268', 'p245', 'p248']","[10, 8, 1]","[93.00003341222717, 92.0152836843556, 86.2038576498559]",4.0,False,8.333333333333334,4.725815626252608,3.436953067779541,0.9543979117012824
0,,sub_107,2024-07-03 16:36:13,3,distance,cathedral,numerosity_judgement,2,42,6,countries_forward,"['_Peru_', '_Yemen_', '_Syria_', '_Belgium_', '_Japan_', '_Britain_']","['m', 'm', 'f', 'f', 'f', 'm']","['p256', 'p229', 'p268', 'p284', 'p245', 'p307']","[2, 6, 8, 3, 5, 1]","[87.57049330475357, 91.58892582949886, 92.0152836843556, 89.14911522239515, 90.34149293193902, 86.2038576498559]",5.0,False,6.166666666666667,2.6394443859772205,4.937011957168579,0.9544773578481444
0,,sub_107,2024-07-03 16:36:19,3,distance,cathedral,numerosity_judgement,2,43,5,countries_forward,"['_Japan_', '_Sudan_', '_Oman_', '_Belgium_', '_Syria_']","['f', 'f', 'm', 'm', 'f']","['p248', 'p245', 'p307', 'p229', 'p284']","[5, 2, 8, 10, 1]","[90.34149293193902, 87.57049330475357, 92.0152836843556, 93.00003341222717, 86.2038576498559]",4.0,False,7.2,3.8340579025361627,4.188002824783325,0.9326410169106798
0,,sub_107,2024-07-03 16:36:25,3,distance,cathedral,numerosity_judgement,2,44,4,countries_forward,"['_Oman_', '_Peru_', '_Britain_', '_Cuba_']","['f', 'm', 'm', 'f']","['p248', 'p307', 'p318', 'p268']","[7, 5, 10, 3]","[91.73820004985969, 90.34149293193902, 93.00003341222717, 89.14911522239515]",3.0,False,8.25,2.9860788111948193,5.001098871231079,0.6691067983202814
0,,sub_107,2024-07-03 16:36:32,3,distance,cathedral,numerosity_judgement,2,45,6,countries_forward,"['_Tonga_', '_Oman_', '_Belgium_', '_Yemen_', '_Togo_', '_Congo_']","['m', 'f', 'm', 'm', 'f', 'm']","['p307', 'p245', 'p318', 'p229', 'p268', 'p256']","[5, 6, 0, 8, 1, 3]","[90.34149293193902, 91.58892582949886, 84.40078082039426, 92.0152836843556, 86.2038576498559, 89.14911522239515]",3.0,False,5.833333333333333,3.0605010483034745,4.8609466552734375,0.8855294518215866
0,,sub_107,2024-07-03 16:36:39,3,distance,cathedral,numerosity_judgement,2,46,4,countries_forward,"['_Oman_', '_Tonga_', '_Cuba_', '_Mali_']","['m', 'm', 'm', 'f']","['p307', 'p256', 'p229', 'p268']","[7, 5, 9, 6]","[91.73820004985969, 90.34149293193902, 92.00610777531934, 91.58892582949886]",3.0,False,8.75,1.707825127659933,5.312299966812134,0.7410396095789354
0,,sub_107,2024-07-03 16:36:45,3,distance,cathedral,numerosity_judgement,2,47,5,countries_forward,"['_Britain_', '_Sudan_', '_Togo_', '_Peru_', '_Tonga_']","['f', 'f', 'm', 'f', 'm']","['p245', 'p284', 'p318', 'p248', 'p307']","[5, 7, 3, 1, 2]","[90.34149293193902, 91.73820004985969, 89.14911522239515, 86.2038576498559, 87.57049330475357]",3.0,False,5.6,2.4083189157584592,4.252437591552734,0.9536147996822154
0,,sub_107,2024-07-03 16:36:50,3,distance,cathedral,numerosity_judgement,2,48,2,countries_forward,"['_Yemen_', '_Oman_']","['f', 'm']","['p245', 'p256']","[9, 5]","[92.00610777531934, 90.34149293193902]",2.0,True,9.0,2.8284271247461903,3.437243700027466,0.6200885257065032
0,,sub_107,2024-07-03 16:36:55,3,distance,cathedral,numerosity_judgement,2,49,3,countries_forward,"['_Syria_', '_Sudan_', '_Yemen_']","['f', 'f', 'm']","['p245', 'p284', 'p256']","[6, 4, 1]","[91.58892582949886, 89.31368318402099, 86.2038576498559]",3.0,True,5.666666666666667,2.516611478423583,3.187262535095215,0.9426058336170696
0,,sub_107,2024-07-03 16:37:00,3,distance,cathedral,numerosity_judgement,2,50,6,countries_forward,"['_Oman_', '_Japan_', '_Togo_', '_Yemen_', '_Britain_', '_Mali_']","['m', 'f', 'm', 'f', 'f', 'm']","['p256', 'p268', 'p229', 'p245', 'p248', 'p307']","[10, 6, 1, 4, 8, 7]","[93.00003341222717, 91.58892582949886, 86.2038576498559, 89.31368318402099, 92.0152836843556, 91.73820004985969]",6.0,True,8.0,3.1622776601683795,2.812288999557495,0.7431619566451028
0,,sub_107,2024-07-03 16:37:06,3,distance,cathedral,numerosity_judgement,2,51,4,countries_forward,"['_Yemen_', '_Oman_', '_Peru_', '_Togo_']","['m', 'm', 'f', 'm']","['p229', 'p307', 'p268', 'p256']","[9, 5, 3, 10]","[92.00610777531934, 90.34149293193902, 89.14911522239515, 93.00003341222717]",5.0,False,8.75,3.304037933599835,4.24772572517395,0.6414935875610033
0,,sub_107,2024-07-03 16:37:10,3,distance,cathedral,numerosity_judgement,2,52,2,countries_forward,"['_Syria_', '_Belgium_']","['f', 'f']","['p268', 'p284']","[9, 4]","[92.00610777531934, 89.31368318402099]",2.0,True,8.5,3.5355339059327378,2.437319040298462,0.96354556803995
0,,sub_107,2024-07-03 16:37:15,3,distance,cathedral,numerosity_judgement,2,53,3,countries_forward,"['_Yemen_', '_Congo_', '_Syria_']","['f', 'm', 'f']","['p245', 'p318', 'p284']","[8, 9, 3]","[92.0152836843556, 92.00610777531934, 89.14911522239515]",4.0,False,8.666666666666666,3.214550253664318,4.004321098327637,0.9176029962546816
0,,sub_107,2024-07-03 16:37:22,3,distance,cathedral,numerosity_judgement,2,54,5,countries_forward,"['_Yemen_', '_Oman_', '_Japan_', '_Tonga_', '_Mali_']","['m', 'm', 'f', 'f', 'f']","['p229', 'p256', 'p248', 'p245', 'p284']","[9, 5, 7, 4, 6]","[92.00610777531934, 90.34149293193902, 91.73820004985969, 89.31368318402099, 91.58892582949886]",4.0,False,8.2,1.9235384061671346,5.001046657562256,0.7195324026784701
0,,sub_107,2024-07-03 16:37:28,3,distance,cathedral,numerosity_judgement,2,55,6,countries_forward,"['_Yemen_', '_Congo_', '_Cuba_', '_Tonga_', '_Togo_', '_Belgium_']","['m', 'f', 'm', 'f', 'f', 'f']","['p229', 'p248', 'p256', 'p245', 'p284', 'p268']","[5, 3, 10, 7, 2, 6]","[90.34149293193902, 89.14911522239515, 93.00003341222717, 91.73820004985969, 87.57049330475357, 91.58892582949886]",6.0,True,7.5,2.8809720581775866,3.3120265007019043,0.8148450800136193
0,,sub_107,2024-07-03 16:37:33,3,distance,cathedral,numerosity_judgement,2,56,4,countries_forward,"['_Yemen_', '_Syria_', '_Britain_', '_Cuba_']","['m', 'f', 'f', 'f']","['p318', 'p248', 'p284', 'p245']","[8, 7, 4, 5]","[92.0152836843556, 91.73820004985969, 89.31368318402099, 90.34149293193902]",4.0,True,8.0,1.8257418583505538,3.9223380088806152,0.8407899216887981
0,,sub_107,2024-07-03 16:37:39,3,distance,cathedral,numerosity_judgement,2,57,3,countries_forward,"['_Syria_', '_Britain_', '_Sudan_']","['m', 'm', 'f']","['p307', 'p256', 'p248']","[6, 1, 2]","[91.58892582949886, 86.2038576498559, 87.57049330475357]",3.0,True,5.0,2.6457513110645907,3.8749091625213623,0.8893201679718533
0,,sub_107,2024-07-03 16:37:44,3,distance,cathedral,numerosity_judgement,2,58,2,countries_forward,"['_Mali_', '_Congo_']","['m', 'f']","['p256', 'p248']","[9, 10]","[92.00610777531934, 93.00003341222717]",2.0,True,11.5,0.7071067811865476,3.2504351139068604,0.7663942798774259
0,,sub_107,2024-07-03 16:37:50,3,distance,cathedral,numerosity_judgement,2,59,5,countries_forward,"['_Oman_', '_Mali_', '_Tonga_', '_Yemen_', '_Britain_']","['m', 'm', 'm', 'f', 'f']","['p318', 'p256', 'p229', 'p268', 'p245']","[3, 6, 2, 10, 0]","[89.14911522239515, 91.58892582949886, 87.57049330475357, 93.00003341222717, 84.40078082039426]",3.0,False,6.2,3.898717737923586,4.735413312911987,0.769946657587107
0,,sub_107,2024-07-03 16:37:55,3,distance,cathedral,numerosity_judgement,2,60,2,countries_forward,"['_Yemen_', '_Oman_']","['f', 'm']","['p248', 'p307']","[7, 9]","[91.73820004985969, 92.00610777531934]",2.0,True,10.0,1.4142135623730951,3.687166213989258,0.5863920099875156
0,,sub_107,2024-07-03 16:38:01,3,distance,cathedral,numerosity_judgement,2,61,5,countries_forward,"['_Oman_', '_Congo_', '_Cuba_', '_Britain_', '_Togo_']","['f', 'f', 'm', 'f', 'f']","['p245', 'p248', 'p307', 'p284', 'p268']","[10, 7, 5, 0, 4]","[93.00003341222717, 91.73820004985969, 90.34149293193902, 84.40078082039426, 89.31368318402099]",4.0,False,7.2,3.7013511046643495,3.56144642829895,0.716127567812961
0,,sub_107,2024-07-03 16:38:06,3,distance,cathedral,numerosity_judgement,2,62,6,countries_forward,"['_Yemen_', '_Cuba_', '_Mali_', '_Congo_', '_Oman_', '_Sudan_']","['f', 'm', 'f', 'f', 'm', 'm']","['p248', 'p318', 'p284', 'p245', 'p307', 'p256']","[6, 10, 1, 9, 4, 5]","[91.58892582949886, 93.00003341222717, 86.2038576498559, 92.00610777531934, 89.31368318402099, 90.34149293193902]",5.0,False,7.833333333333333,3.3115957885386114,3.0620803833007812,0.7979911474293496
0,,sub_107,2024-07-03 16:38:11,3,distance,cathedral,numerosity_judgement,2,63,3,countries_forward,"['_Japan_', '_Oman_', '_Mali_']","['f', 'm', 'm']","['p268', 'p318', 'p229']","[6, 10, 7]","[91.58892582949886, 93.00003341222717, 91.73820004985969]",3.0,True,9.666666666666666,2.0816659994661326,3.4359307289123535,0.8335943706730223
0,,sub_107,2024-07-03 16:38:16,3,distance,cathedral,numerosity_judgement,2,64,4,countries_forward,"['_Tonga_', '_Sudan_', '_Japan_', '_Britain_']","['f', 'f', 'm', 'm']","['p284', 'p268', 'p318', 'p256']","[9, 4, 7, 1]","[92.00610777531934, 89.31368318402099, 91.73820004985969, 86.2038576498559]",4.0,True,7.25,3.5,3.3732945919036865,0.958983089320168
0,,sub_107,2024-07-03 16:38:20,3,distance,cathedral,numerosity_judgement,2,65,2,countries_forward,"['_Britain_', '_Tonga_']","['f', 'f']","['p248', 'p245']","[2, 10]","[87.57049330475357, 93.00003341222717]",2.0,True,8.0,5.656854249492381,2.6248040199279785,0.8047100215639541
0,,sub_107,2024-07-03 16:38:26,3,distance,cathedral,numerosity_judgement,2,66,6,countries_forward,"['_Peru_', '_Mali_', '_Congo_', '_Yemen_', '_Togo_', '_Oman_']","['m', 'm', 'm', 'f', 'f', 'm']","['p307', 'p229', 'p256', 'p284', 'p268', 'p318']","[10, 0, 8, 6, 1, 7]","[93.00003341222717, 84.40078082039426, 92.0152836843556, 91.58892582949886, 86.2038576498559, 91.73820004985969]",5.0,False,7.333333333333333,3.9832984656772417,3.5615055561065674,0.7224719101123596
0,,sub_107,2024-07-03 16:38:30,3,distance,cathedral,numerosity_judgement,2,67,4,countries_forward,"['_Yemen_', '_Oman_', '_Tonga_', '_Peru_']","['f', 'm', 'f', 'm']","['p268', 'p229', 'p245', 'p307']","[7, 2, 4, 10]","[91.73820004985969, 87.57049330475357, 89.31368318402099, 93.00003341222717]",3.0,False,7.75,3.5,2.5623087882995605,0.7081148564294631
0,,sub_107,2024-07-03 16:38:36,3,distance,cathedral,numerosity_judgement,2,68,5,countries_forward,"['_Peru_', '_Japan_', '_Oman_', '_Cuba_', '_Britain_']","['f', 'm', 'f', 'f', 'm']","['p248', 'p229', 'p268', 'p245', 'p307']","[4, 5, 9, 2, 10]","[89.31368318402099, 90.34149293193902, 92.00610777531934, 87.57049330475357, 93.00003341222717]",4.0,False,8.0,3.391164991562634,3.499736785888672,0.8328339575530587
0,,sub_107,2024-07-03 16:38:41,3,distance,cathedral,numerosity_judgement,2,69,3,countries_forward,"['_Tonga_', '_Cuba_', '_Togo_']","['f', 'm', 'm']","['p245', 'p307', 'p318']","[4, 9, 10]","[89.31368318402099, 92.00610777531934, 93.00003341222717]",3.0,True,9.666666666666666,3.214550253664318,3.9339776039123535,0.7592781750085121
0,,sub_107,2024-07-03 16:38:47,3,distance,cathedral,numerosity_judgement,2,70,5,countries_forward,"['_Britain_', '_Belgium_', '_Japan_', '_Congo_', '_Peru_']","['m', 'f', 'f', 'm', 'm']","['p256', 'p268', 'p245', 'p318', 'p307']","[2, 6, 9, 4, 1]","[87.57049330475357, 91.58892582949886, 92.00610777531934, 89.31368318402099, 86.2038576498559]",4.0,False,6.4,3.2093613071762426,3.688084363937378,0.8623198274883668
0,,sub_107,2024-07-03 16:38:54,3,distance,cathedral,numerosity_judgement,2,71,4,countries_forward,"['_Mali_', '_Congo_', '_Cuba_', '_Tonga_']","['f', 'f', 'f', 'm']","['p284', 'p268', 'p245', 'p318']","[5, 6, 0, 7]","[90.34149293193902, 91.58892582949886, 84.40078082039426, 91.73820004985969]",4.0,True,6.5,3.1091263510296048,4.9213197231292725,0.7658722051980479
0,,sub_107,2024-07-03 16:38:59,3,distance,cathedral,numerosity_judgement,2,72,3,countries_forward,"['_Peru_', '_Yemen_', '_Oman_']","['m', 'm', 'm']","['p307', 'p256', 'p229']","[3, 1, 10]","[89.14911522239515, 86.2038576498559, 93.00003341222717]",3.0,True,6.666666666666667,4.725815626252608,3.297593593597412,0.6106230847803882
0,,sub_107,2024-07-03 16:39:03,3,distance,cathedral,numerosity_judgement,2,73,6,countries_forward,"['_Syria_', '_Sudan_', '_Yemen_', '_Togo_', '_Britain_', '_Cuba_']","['f', 'f', 'm', 'm', 'f', 'f']","['p245', 'p284', 'p256', 'p229', 'p248', 'p268']","[6, 3, 9, 0, 1, 10]","[91.58892582949886, 89.14911522239515, 92.00610777531934, 84.40078082039426, 86.2038576498559, 93.00003341222717]",5.0,False,6.833333333333333,4.167333280008532,2.8753719329833984,0.8505163999546022
0,,sub_107,2024-07-03 16:39:08,3,distance,cathedral,numerosity_judgement,2,74,2,countries_forward,"['_Oman_', '_Cuba_']","['f', 'm']","['p268', 'p307']","[1, 7]","[86.2038576498559, 91.73820004985969]",2.0,True,6.0,4.242640687119285,2.8753159046173096,0.6494495516967427
0,,sub_107,2024-07-03 16:40:27,3,distance,cathedral,numerosity_judgement,3,0,6,countries_reversed,"['_Britain_reversed', '_Oman_reversed', '_Japan_reversed', '_Mali_reversed', '_Togo_reversed', '_Congo_reversed']","['m', 'f', 'f', 'm', 'f', 'm']","['p318', 'p245', 'p248', 'p256', 'p268', 'p229']","[6, 0, 9, 7, 5, 8]","[91.58892582949886, 84.40078082039426, 92.00610777531934, 91.73820004985969, 90.34149293193902, 92.0152836843556]",4.0,False,7.833333333333333,3.1885210782848317,4.248407363891602,0.897979797979798
0,,sub_107,2024-07-03 16:40:31,3,distance,cathedral,numerosity_judgement,3,1,2,countries_reversed,"['_Yemen_reversed', '_Cuba_reversed']","['m', 'm']","['p318', 'p256']","[7, 10]","[91.73820004985969, 93.00003341222717]",2.0,True,10.5,2.1213203435596424,2.9372806549072266,0.6542957666553172
0,,sub_107,2024-07-03 16:40:36,3,distance,cathedral,numerosity_judgement,3,2,5,countries_reversed,"['_Oman_reversed', '_Syria_reversed', '_Sudan_reversed', '_Belgium_reversed', '_Japan_reversed']","['m', 'm', 'f', 'f', 'f']","['p229', 'p318', 'p245', 'p284', 'p268']","[5, 2, 1, 7, 4]","[90.34149293193902, 87.57049330475357, 86.2038576498559, 91.73820004985969, 89.31368318402099]",4.0,False,5.8,2.3874672772626644,4.37561559677124,0.9198501872659176
0,,sub_107,2024-07-03 16:40:41,3,distance,cathedral,numerosity_judgement,3,3,3,countries_reversed,"['_Britain_reversed', '_Congo_reversed', '_Yemen_reversed']","['f', 'm', 'm']","['p268', 'p318', 'p229']","[6, 8, 9]","[91.58892582949886, 92.0152836843556, 92.00610777531934]",3.0,True,9.666666666666666,1.5275252316519468,3.748509168624878,0.9054931335830212
0,,sub_107,2024-07-03 16:40:47,3,distance,cathedral,numerosity_judgement,3,4,4,countries_reversed,"['_Britain_reversed', '_Togo_reversed', '_Belgium_reversed', '_Congo_reversed']","['m', 'f', 'f', 'm']","['p307', 'p245', 'p268', 'p256']","[7, 9, 2, 10]","[91.73820004985969, 92.00610777531934, 87.57049330475357, 93.00003341222717]",4.0,True,9.0,3.559026084010437,3.8726043701171875,0.824287822040631
0,,sub_107,2024-07-03 16:40:53,3,distance,cathedral,numerosity_judgement,3,5,3,countries_reversed,"['_Cuba_reversed', '_Sudan_reversed', '_Britain_reversed']","['f', 'f', 'm']","['p248', 'p245', 'p229']","[8, 6, 4]","[92.0152836843556, 91.58892582949886, 89.31368318402099]",4.0,False,8.0,2.0,4.549192190170288,0.8181250709340597
0,,sub_107,2024-07-03 16:40:58,3,distance,cathedral,numerosity_judgement,3,6,6,countries_reversed,"['_Yemen_reversed', '_Congo_reversed', '_Tonga_reversed', '_Belgium_reversed', '_Oman_reversed', '_Japan_reversed']","['f', 'f', 'm', 'm', 'f', 'f']","['p248', 'p268', 'p307', 'p256', 'p284', 'p245']","[7, 10, 2, 0, 8, 3]","[91.73820004985969, 93.00003341222717, 87.57049330475357, 84.40078082039426, 92.0152836843556, 89.14911522239515]",5.0,False,7.0,3.8987177379235853,3.7491631507873535,0.7678470094200431
0,,sub_107,2024-07-03 16:41:03,3,distance,cathedral,numerosity_judgement,3,7,4,countries_reversed,"['_Oman_reversed', '_Yemen_reversed', '_Britain_reversed', '_Mali_reversed']","['m', 'm', 'm', 'm']","['p229', 'p318', 'p307', 'p256']","[5, 7, 9, 6]","[90.34149293193902, 91.73820004985969, 92.00610777531934, 91.58892582949886]",3.0,False,8.75,1.707825127659933,3.813479423522949,0.6135966405629327
0,,sub_107,2024-07-03 16:41:08,3,distance,cathedral,numerosity_judgement,3,8,2,countries_reversed,"['_Tonga_reversed', '_Oman_reversed']","['f', 'm']","['p248', 'p229']","[10, 6]","[93.00003341222717, 91.58892582949886]",3.0,False,10.0,2.8284271247461903,3.624413013458252,0.5940869367835659
0,,sub_107,2024-07-03 16:41:13,3,distance,cathedral,numerosity_judgement,3,9,5,countries_reversed,"['_Togo_reversed', '_Tonga_reversed', '_Syria_reversed', '_Yemen_reversed', '_Peru_reversed']","['m', 'f', 'm', 'm', 'f']","['p307', 'p245', 'p256', 'p318', 'p284']","[5, 3, 8, 2, 7]","[90.34149293193902, 89.14911522239515, 92.0152836843556, 87.57049330475357, 91.73820004985969]",4.0,False,7.0,2.5495097567963922,3.813302755355835,0.675485188968335
0,,sub_107,2024-07-03 16:41:17,3,distance,cathedral,numerosity_judgement,3,10,3,countries_reversed,"['_Sudan_reversed', '_Oman_reversed', '_Cuba_reversed']","['m', 'm', 'f']","['p256', 'p307', 'p245']","[4, 5, 1]","[89.31368318402099, 90.34149293193902, 86.2038576498559]",3.0,True,5.333333333333333,2.0816659994661326,3.171611785888672,0.689183974577233
0,,sub_107,2024-07-03 16:41:21,3,distance,cathedral,numerosity_judgement,3,11,4,countries_reversed,"['_Syria_reversed', '_Sudan_reversed', '_Belgium_reversed', '_Mali_reversed']","['f', 'f', 'f', 'f']","['p245', 'p268', 'p284', 'p248']","[4, 6, 7, 3]","[89.31368318402099, 91.58892582949886, 91.73820004985969, 89.14911522239515]",5.0,False,7.0,1.8257418583505538,2.936310291290283,0.9489047781182612
0,,sub_107,2024-07-03 16:41:26,3,distance,cathedral,numerosity_judgement,3,12,2,countries_reversed,"['_Belgium_reversed', '_Tonga_reversed']","['m', 'm']","['p256', 'p307']","[3, 0]","[89.14911522239515, 84.40078082039426]",2.0,True,3.5,2.1213203435596424,3.0622706413269043,0.8713539893315174
0,,sub_107,2024-07-03 16:41:32,3,distance,cathedral,numerosity_judgement,3,13,6,countries_reversed,"['_Oman_reversed', '_Sudan_reversed', '_Yemen_reversed', '_Japan_reversed', '_Cuba_reversed', '_Togo_reversed']","['m', 'f', 'm', 'm', 'f', 'f']","['p229', 'p248', 'p307', 'p318', 'p245', 'p284']","[2, 5, 10, 4, 7, 3]","[87.57049330475357, 90.34149293193902, 93.00003341222717, 89.31368318402099, 91.73820004985969, 89.14911522239515]",4.0,False,7.166666666666667,2.9268868558020253,4.9965903759002686,0.7232550221314267
0,,sub_107,2024-07-03 16:41:37,3,distance,cathedral,numerosity_judgement,3,14,5,countries_reversed,"['_Japan_reversed', '_Mali_reversed', '_Belgium_reversed', '_Syria_reversed', '_Cuba_reversed']","['m', 'm', 'm', 'f', 'f']","['p256', 'p307', 'p229', 'p248', 'p245']","[4, 3, 6, 8, 10]","[89.31368318402099, 89.14911522239515, 91.58892582949886, 92.0152836843556, 93.00003341222717]",5.0,True,8.2,2.8635642126552705,4.187954902648926,0.8387243218703893
0,,sub_107,2024-07-03 16:41:44,3,distance,cathedral,numerosity_judgement,3,15,6,countries_reversed,"['_Cuba_reversed', '_Oman_reversed', '_Yemen_reversed', '_Mali_reversed', '_Sudan_reversed', '_Peru_reversed']","['m', 'm', 'm', 'm', 'f', 'f']","['p307', 'p256', 'p229', 'p318', 'p284', 'p268']","[3, 10, 9, 8, 6, 5]","[89.14911522239515, 93.00003341222717, 92.00610777531934, 92.0152836843556, 91.58892582949886, 90.34149293193902]",5.0,False,8.833333333333334,2.6394443859772205,5.546546220779419,0.7975371694472818
0,,sub_107,2024-07-03 16:41:51,3,distance,cathedral,numerosity_judgement,3,16,5,countries_reversed,"['_Britain_reversed', '_Mali_reversed', '_Cuba_reversed', '_Sudan_reversed', '_Peru_reversed']","['f', 'f', 'm', 'm', 'f']","['p284', 'p245', 'p318', 'p307', 'p248']","[4, 8, 2, 3, 7]","[89.31368318402099, 92.0152836843556, 87.57049330475357, 89.14911522239515, 91.73820004985969]",3.0,False,6.8,2.588435821108957,5.37567138671875,0.8706389740097605
0,,sub_107,2024-07-03 16:41:55,3,distance,cathedral,numerosity_judgement,3,17,2,countries_reversed,"['_Mali_reversed', '_Peru_reversed']","['f', 'm']","['p284', 'p229']","[10, 6]","[93.00003341222717, 91.58892582949886]",2.0,True,10.0,2.8284271247461903,2.8122928142547607,0.92769265690614
0,,sub_107,2024-07-03 16:41:59,3,distance,cathedral,numerosity_judgement,3,18,3,countries_reversed,"['_Yemen_reversed', '_Sudan_reversed', '_Oman_reversed']","['m', 'm', 'f']","['p307', 'p318', 'p245']","[7, 3, 2]","[91.73820004985969, 89.14911522239515, 87.57049330475357]",3.0,True,6.0,2.6457513110645907,3.175302267074585,0.8539439337192146
0,,sub_107,2024-07-03 16:42:04,3,distance,cathedral,numerosity_judgement,3,19,4,countries_reversed,"['_Sudan_reversed', '_Togo_reversed', '_Peru_reversed', '_Congo_reversed']","['f', 'm', 'f', 'm']","['p245', 'p229', 'p248', 'p256']","[1, 10, 0, 5]","[86.2038576498559, 93.00003341222717, 84.40078082039426, 90.34149293193902]",4.0,True,6.0,4.546060565661952,3.750880241394043,0.8750766087844739
0,,sub_107,2024-07-03 16:42:09,3,distance,cathedral,numerosity_judgement,3,20,5,countries_reversed,"['_Congo_reversed', '_Japan_reversed', '_Togo_reversed', '_Belgium_reversed', '_Sudan_reversed']","['f', 'f', 'm', 'm', 'm']","['p284', 'p268', 'p256', 'p307', 'p229']","[0, 2, 6, 5, 1]","[84.40078082039426, 87.57049330475357, 91.58892582949886, 90.34149293193902, 86.2038576498559]",5.0,True,4.8,2.588435821108957,3.249577045440674,0.9742027011689932
0,,sub_107,2024-07-03 16:42:15,3,distance,cathedral,numerosity_judgement,3,21,2,countries_reversed,"['_Congo_reversed', '_Britain_reversed']","['m', 'f']","['p307', 'p284']","[3, 6]","[89.14911522239515, 91.58892582949886]",3.0,False,6.5,2.1213203435596424,4.672553777694702,0.8524004085801838
0,,sub_107,2024-07-03 16:42:22,3,distance,cathedral,numerosity_judgement,3,22,3,countries_reversed,"['_Cuba_reversed', '_Tonga_reversed', '_Oman_reversed']","['m', 'f', 'f']","['p307', 'p284', 'p245']","[7, 9, 5]","[91.73820004985969, 92.00610777531934, 90.34149293193902]",3.0,True,9.0,2.0,5.560250520706177,0.5873453637498581
0,,sub_107,2024-07-03 16:42:26,3,distance,cathedral,numerosity_judgement,3,23,6,countries_reversed,"['_Britain_reversed', '_Togo_reversed', '_Syria_reversed', '_Tonga_reversed', '_Sudan_reversed', '_Belgium_reversed']","['m', 'm', 'm', 'f', 'f', 'f']","['p307', 'p256', 'p318', 'p245', 'p268', 'p284']","[9, 0, 3, 6, 10, 2]","[92.00610777531934, 84.40078082039426, 89.14911522239515, 91.58892582949886, 93.00003341222717, 87.57049330475357]",4.0,False,7.0,4.0,3.4355878829956055,0.9105436386335264
0,,sub_107,2024-07-03 16:42:32,3,distance,cathedral,numerosity_judgement,3,24,4,countries_reversed,"['_Oman_reversed', '_Sudan_reversed', '_Togo_reversed', '_Yemen_reversed']","['m', 'm', 'm', 'f']","['p229', 'p256', 'p307', 'p248']","[6, 8, 4, 1]","[91.58892582949886, 92.0152836843556, 89.31368318402099, 86.2038576498559]",5.0,False,6.75,2.9860788111948193,4.564231634140015,0.6650663942798775
0,,sub_107,2024-07-03 16:42:37,3,distance,cathedral,numerosity_judgement,3,25,3,countries_reversed,"['_Sudan_reversed', '_Yemen_reversed', '_Belgium_reversed']","['m', 'm', 'f']","['p256', 'p229', 'p284']","[8, 0, 9]","[92.0152836843556, 84.40078082039426, 92.00610777531934]",3.0,True,7.666666666666667,4.932882862316247,3.1861002445220947,0.8120304165247986
0,,sub_107,2024-07-03 16:42:41,3,distance,cathedral,numerosity_judgement,3,26,5,countries_reversed,"['_Mali_reversed', '_Peru_reversed', '_Syria_reversed', '_Togo_reversed', '_Belgium_reversed']","['f', 'f', 'm', 'm', 'm']","['p284', 'p245', 'p229', 'p256', 'p318']","[4, 2, 10, 5, 9]","[89.31368318402099, 87.57049330475357, 93.00003341222717, 90.34149293193902, 92.00610777531934]",5.0,True,8.0,3.391164991562634,2.812293767929077,0.9322778345250256
0,,sub_107,2024-07-03 16:42:46,3,distance,cathedral,numerosity_judgement,3,27,4,countries_reversed,"['_Syria_reversed', '_Mali_reversed', '_Togo_reversed', '_Oman_reversed']","['m', 'f', 'f', 'm']","['p229', 'p248', 'p284', 'p318']","[10, 8, 2, 3]","[93.00003341222717, 92.0152836843556, 87.57049330475357, 89.14911522239515]",4.0,True,7.75,3.8622100754188224,3.801630973815918,0.9072522982635344
0,,sub_107,2024-07-03 16:42:50,3,distance,cathedral,numerosity_judgement,3,28,2,countries_reversed,"['_Tonga_reversed', '_Oman_reversed']","['m', 'm']","['p256', 'p307']","[10, 3]","[93.00003341222717, 89.14911522239515]",2.0,True,8.5,4.949747468305833,3.004972457885742,0.8244240154352513
0,,sub_107,2024-07-03 16:42:55,3,distance,cathedral,numerosity_judgement,3,29,6,countries_reversed,"['_Cuba_reversed', '_Syria_reversed', '_Congo_reversed', '_Peru_reversed', '_Belgium_reversed', '_Japan_reversed']","['m', 'f', 'm', 'm', 'm', 'f']","['p229', 'p268', 'p256', 'p307', 'p318', 'p284']","[0, 4, 3, 5, 9, 6]","[84.40078082039426, 89.31368318402099, 89.14911522239515, 90.34149293193902, 92.00610777531934, 91.58892582949886]",5.0,False,6.5,3.0166206257996713,3.298248052597046,0.949551696742708
0,,sub_107,2024-07-03 16:42:59,3,distance,cathedral,numerosity_judgement,3,30,2,countries_reversed,"['_Yemen_reversed', '_Togo_reversed']","['f', 'm']","['p245', 'p256']","[7, 0]","[91.73820004985969, 84.40078082039426]",2.0,True,5.5,4.949747468305833,3.3132283687591553,0.7040744523890591
0,,sub_107,2024-07-03 16:43:04,3,distance,cathedral,numerosity_judgement,3,31,4,countries_reversed,"['_Mali_reversed', '_Yemen_reversed', '_Oman_reversed', '_Peru_reversed']","['f', 'm', 'm', 'f']","['p268', 'p307', 'p256', 'p284']","[7, 8, 9, 0]","[91.73820004985969, 92.0152836843556, 92.00610777531934, 84.40078082039426]",3.0,False,8.0,4.08248290463863,3.8620188236236572,0.7288389513108614
0,,sub_107,2024-07-03 16:43:11,3,distance,cathedral,numerosity_judgement,3,32,6,countries_reversed,"['_Sudan_reversed', '_Oman_reversed', '_Togo_reversed', '_Syria_reversed', '_Yemen_reversed', '_Tonga_reversed']","['m', 'f', 'm', 'm', 'f', 'f']","['p256', 'p268', 'p229', 'p318', 'p248', 'p284']","[2, 3, 5, 10, 4, 6]","[87.57049330475357, 89.14911522239515, 90.34149293193902, 93.00003341222717, 89.31368318402099, 91.58892582949886]",4.0,False,7.0,2.8284271247461903,4.935175895690918,0.8317898081943026
0,,sub_107,2024-07-03 16:43:15,3,distance,cathedral,numerosity_judgement,3,33,3,countries_reversed,"['_Cuba_reversed', '_Oman_reversed', '_Japan_reversed']","['f', 'm', 'm']","['p268', 'p318', 'p256']","[5, 10, 8]","[90.34149293193902, 93.00003341222717, 92.0152836843556]",3.0,True,9.666666666666666,2.516611478423583,3.625938653945923,0.7098286233117693
0,,sub_107,2024-07-03 16:43:21,3,distance,cathedral,numerosity_judgement,3,34,5,countries_reversed,"['_Belgium_reversed', '_Cuba_reversed', '_Congo_reversed', '_Oman_reversed', '_Britain_reversed']","['f', 'm', 'f', 'f', 'm']","['p268', 'p307', 'p248', 'p245', 'p229']","[9, 7, 4, 6, 10]","[92.00610777531934, 91.73820004985969, 89.31368318402099, 91.58892582949886, 93.00003341222717]",4.0,False,9.2,2.3874672772626644,4.189815044403076,0.6419362160935195
0,,sub_107,2024-07-03 16:43:26,3,distance,cathedral,numerosity_judgement,3,35,4,countries_reversed,"['_Peru_reversed', '_Belgium_reversed', '_Tonga_reversed', '_Cuba_reversed']","['f', 'm', 'f', 'f']","['p284', 'p256', 'p245', 'p248']","[0, 8, 7, 10]","[84.40078082039426, 92.0152836843556, 91.73820004985969, 93.00003341222717]",4.0,True,8.25,4.349329450233296,4.063035726547241,0.7654522755646351
0,,sub_107,2024-07-03 16:43:32,3,distance,cathedral,numerosity_judgement,3,36,3,countries_reversed,"['_Britain_reversed', '_Syria_reversed', '_Japan_reversed']","['f', 'f', 'm']","['p245', 'p268', 'p318']","[2, 6, 10]","[87.57049330475357, 91.58892582949886, 93.00003341222717]",5.0,False,8.0,4.0,4.122822284698486,0.926727953694246
0,,sub_107,2024-07-03 16:43:36,3,distance,cathedral,numerosity_judgement,3,37,5,countries_reversed,"['_Congo_reversed', '_Togo_reversed', '_Yemen_reversed', '_Japan_reversed', '_Tonga_reversed']","['m', 'm', 'm', 'f', 'f']","['p307', 'p256', 'p318', 'p268', 'p245']","[10, 0, 7, 3, 6]","[93.00003341222717, 84.40078082039426, 91.73820004985969, 89.14911522239515, 91.58892582949886]",5.0,True,7.2,3.8340579025361627,3.561516761779785,0.7816933378731131
0,,sub_107,2024-07-03 16:43:41,3,distance,cathedral,numerosity_judgement,3,38,6,countries_reversed,"['_Oman_reversed', '_Tonga_reversed', '_Mali_reversed', '_Togo_reversed', '_Peru_reversed', '_Britain_reversed']","['f', 'f', 'm', 'm', 'f', 'm']","['p245', 'p248', 'p256', 'p307', 'p268', 'p229']","[10, 5, 3, 6, 4, 8]","[93.00003341222717, 90.34149293193902, 89.14911522239515, 91.58892582949886, 89.31368318402099, 92.0152836843556]",6.0,True,8.0,2.6076809620810595,3.499525547027588,0.7495403472931563
0,,sub_107,2024-07-03 16:43:45,3,distance,cathedral,numerosity_judgement,3,39,2,countries_reversed,"['_Peru_reversed', '_Oman_reversed']","['m', 'm']","['p307', 'p256']","[3, 5]","[89.14911522239515, 90.34149293193902]",2.0,True,6.0,1.4142135623730951,2.312330722808838,0.5539098853705595
0,,sub_107,2024-07-03 16:43:52,3,distance,cathedral,numerosity_judgement,3,40,5,countries_reversed,"['_Tonga_reversed', '_Peru_reversed', '_Yemen_reversed', '_Sudan_reversed', '_Oman_reversed']","['f', 'f', 'f', 'm', 'm']","['p248', 'p268', 'p245', 'p307', 'p318']","[3, 6, 4, 8, 1]","[89.14911522239515, 91.58892582949886, 89.31368318402099, 92.0152836843556, 86.2038576498559]",4.0,False,6.4,2.701851217221259,5.43658185005188,0.8086255816592895
0,,sub_107,2024-07-03 16:43:58,3,distance,cathedral,numerosity_judgement,3,41,6,countries_reversed,"['_Togo_reversed', '_Congo_reversed', '_Tonga_reversed', '_Britain_reversed', '_Japan_reversed', '_Yemen_reversed']","['m', 'f', 'f', 'm', 'f', 'm']","['p307', 'p248', 'p284', 'p229', 'p268', 'p256']","[9, 6, 10, 2, 0, 5]","[92.00610777531934, 91.58892582949886, 93.00003341222717, 87.57049330475357, 84.40078082039426, 90.34149293193902]",4.0,False,7.333333333333333,3.8815804341359033,4.624133825302124,0.8851776188854841
0,,sub_107,2024-07-03 16:44:03,3,distance,cathedral,numerosity_judgement,3,42,4,countries_reversed,"['_Tonga_reversed', '_Togo_reversed', '_Yemen_reversed', '_Mali_reversed']","['f', 'f', 'm', 'm']","['p268', 'p245', 'p318', 'p229']","[0, 10, 5, 4]","[84.40078082039426, 93.00003341222717, 90.34149293193902, 89.31368318402099]",3.0,False,6.75,4.112987559751022,3.7964999675750732,0.7889002383384406
0,,sub_107,2024-07-03 16:44:09,3,distance,cathedral,numerosity_judgement,3,43,3,countries_reversed,"['_Togo_reversed', '_Britain_reversed', '_Syria_reversed']","['m', 'm', 'f']","['p256', 'p318', 'p245']","[2, 5, 7]","[87.57049330475357, 90.34149293193902, 91.73820004985969]",4.0,False,6.666666666666667,2.516611478423583,5.360889434814453,0.870956758597208
0,,sub_107,2024-07-03 16:44:12,3,distance,cathedral,numerosity_judgement,3,44,2,countries_reversed,"['_Belgium_reversed', '_Britain_reversed']","['m', 'f']","['p318', 'p248']","[9, 8]","[92.00610777531934, 92.0152836843556]",2.0,True,10.5,0.7071067811865476,1.8705995082855225,0.912654636250142
0,,sub_107,2024-07-03 16:44:17,3,distance,cathedral,numerosity_judgement,3,45,6,countries_reversed,"['_Tonga_reversed', '_Belgium_reversed', '_Yemen_reversed', '_Japan_reversed', '_Togo_reversed', '_Cuba_reversed']","['m', 'f', 'm', 'f', 'm', 'f']","['p307', 'p245', 'p256', 'p268', 'p318', 'p248']","[10, 1, 6, 3, 9, 5]","[93.00003341222717, 86.2038576498559, 91.58892582949886, 89.14911522239515, 92.00610777531934, 90.34149293193902]",5.0,False,7.666666666666667,3.444802848737017,3.3112123012542725,0.805538531381228
0,,sub_107,2024-07-03 16:44:21,3,distance,cathedral,numerosity_judgement,3,46,2,countries_reversed,"['_Cuba_reversed', '_Oman_reversed']","['m', 'f']","['p307', 'p245']","[8, 2]","[92.0152836843556, 87.57049330475357]",2.0,True,7.0,4.242640687119285,3.0622456073760986,0.7795482919078425
0,,sub_107,2024-07-03 16:44:25,3,distance,cathedral,numerosity_judgement,3,47,3,countries_reversed,"['_Oman_reversed', '_Togo_reversed', '_Tonga_reversed']","['f', 'm', 'f']","['p284', 'p256', 'p268']","[3, 1, 0]","[89.14911522239515, 86.2038576498559, 84.40078082039426]",2.0,False,3.3333333333333335,1.5275252316519468,2.8122940063476562,0.9487458858245376
0,,sub_107,2024-07-03 16:44:30,3,distance,cathedral,numerosity_judgement,3,48,5,countries_reversed,"['_Japan_reversed', '_Sudan_reversed', '_Cuba_reversed', '_Yemen_reversed', '_Britain_reversed']","['m', 'f', 'f', 'f', 'f']","['p256', 'p248', 'p245', 'p268', 'p284']","[10, 5, 7, 9, 6]","[93.00003341222717, 90.34149293193902, 91.73820004985969, 92.00610777531934, 91.58892582949886]",3.0,False,9.4,2.073644135332772,3.2385544776916504,0.6996368176143457
0,,sub_107,2024-07-03 16:44:35,3,distance,cathedral,numerosity_judgement,3,49,4,countries_reversed,"['_Oman_reversed', '_Cuba_reversed', '_Mali_reversed', '_Japan_reversed']","['m', 'f', 'm', 'm']","['p256', 'p284', 'p318', 'p229']","[9, 2, 5, 1]","[92.00610777531934, 87.57049330475357, 90.34149293193902, 86.2038576498559]",4.0,True,6.25,3.593976442141304,3.82741641998291,0.876347747134264
0,,sub_107,2024-07-03 16:44:40,3,distance,cathedral,numerosity_judgement,3,50,3,countries_reversed,"['_Cuba_reversed', '_Mali_reversed', '_Yemen_reversed']","['f', 'm', 'f']","['p245', 'p256', 'p284']","[5, 3, 8]","[90.34149293193902, 89.14911522239515, 92.0152836843556]",5.0,False,7.333333333333333,2.516611478423583,3.5487239360809326,0.6688344115310407
0,,sub_107,2024-07-03 16:44:45,3,distance,cathedral,numerosity_judgement,3,51,4,countries_reversed,"['_Yemen_reversed', '_Sudan_reversed', '_Oman_reversed', '_Togo_reversed']","['f', 'm', 'm', 'm']","['p284', 'p256', 'p307', 'p229']","[9, 10, 7, 2]","[92.00610777531934, 93.00003341222717, 91.73820004985969, 87.57049330475357]",3.0,False,9.0,3.559026084010437,3.7973897457122803,0.7033594370673022
0,,sub_107,2024-07-03 16:44:49,3,distance,cathedral,numerosity_judgement,3,52,5,countries_reversed,"['_Oman_reversed', '_Togo_reversed', '_Tonga_reversed', '_Britain_reversed', '_Yemen_reversed']","['f', 'f', 'm', 'm', 'f']","['p268', 'p248', 'p318', 'p256', 'p245']","[4, 9, 6, 10, 3]","[89.31368318402099, 92.00610777531934, 91.58892582949886, 93.00003341222717, 89.14911522239515]",4.0,False,8.4,3.0495901363953815,2.9374442100524902,0.7339916014073318
0,,sub_107,2024-07-03 16:44:53,3,distance,cathedral,numerosity_judgement,3,53,6,countries_reversed,"['_Syria_reversed', '_Yemen_reversed', '_Oman_reversed', '_Peru_reversed', '_Sudan_reversed', '_Cuba_reversed']","['m', 'f', 'm', 'f', 'f', 'm']","['p256', 'p248', 'p307', 'p268', 'p284', 'p318']","[2, 3, 5, 6, 0, 10]","[87.57049330475357, 89.14911522239515, 90.34149293193902, 91.58892582949886, 84.40078082039426, 93.00003341222717]",5.0,False,6.333333333333333,3.5023801430836525,2.6102609634399414,0.6612870275791624
0,,sub_107,2024-07-03 16:44:57,3,distance,cathedral,numerosity_judgement,3,54,2,countries_reversed,"['_Tonga_reversed', '_Sudan_reversed']","['m', 'f']","['p256', 'p268']","[1, 10]","[86.2038576498559, 93.00003341222717]",2.0,True,7.5,6.363961030678928,2.933601140975952,0.9607309045511292
0,,sub_107,2024-07-03 16:45:02,3,distance,cathedral,numerosity_judgement,3,55,6,countries_reversed,"['_Yemen_reversed', '_Mali_reversed', '_Britain_reversed', '_Belgium_reversed', '_Peru_reversed', '_Cuba_reversed']","['f', 'm', 'f', 'f', 'm', 'm']","['p248', 'p318', 'p268', 'p245', 'p256', 'p229']","[0, 4, 9, 10, 8, 1]","[84.40078082039426, 89.31368318402099, 92.00610777531934, 93.00003341222717, 92.0152836843556, 86.2038576498559]",3.0,False,7.333333333333333,4.273952113286562,2.8733770847320557,0.9326183180115764
0,,sub_107,2024-07-03 16:45:06,3,distance,cathedral,numerosity_judgement,3,56,4,countries_reversed,"['_Togo_reversed', '_Britain_reversed', '_Mali_reversed', '_Japan_reversed']","['m', 'm', 'm', 'f']","['p256', 'p307', 'p318', 'p268']","[9, 5, 10, 1]","[92.00610777531934, 90.34149293193902, 93.00003341222717, 86.2038576498559]",3.0,False,8.25,4.112987559751022,3.499743700027466,0.9373396890250822
0,,sub_107,2024-07-03 16:45:10,3,distance,cathedral,numerosity_judgement,3,57,2,countries_reversed,"['_Yemen_reversed', '_Mali_reversed']","['m', 'm']","['p318', 'p307']","[5, 10]","[90.34149293193902, 93.00003341222717]",2.0,True,9.5,3.5355339059327378,2.6873018741607666,0.6365906253546703
0,,sub_107,2024-07-03 16:45:17,3,distance,cathedral,numerosity_judgement,3,58,3,countries_reversed,"['_Tonga_reversed', '_Peru_reversed', '_Mali_reversed']","['f', 'f', 'm']","['p268', 'p245', 'p256']","[10, 7, 5]","[93.00003341222717, 91.73820004985969, 90.34149293193902]",2.0,False,9.333333333333334,2.516611478423583,5.605697154998779,0.7538985359210079
0,,sub_107,2024-07-03 16:45:22,3,distance,cathedral,numerosity_judgement,3,59,5,countries_reversed,"['_Togo_reversed', '_Britain_reversed', '_Peru_reversed', '_Belgium_reversed', '_Tonga_reversed']","['m', 'f', 'f', 'm', 'm']","['p318', 'p268', 'p248', 'p256', 'p229']","[7, 2, 5, 8, 0]","[91.73820004985969, 87.57049330475357, 90.34149293193902, 92.0152836843556, 84.40078082039426]",5.0,True,6.4,3.361547262794322,3.8097622394561768,0.904494382022472
0,,sub_107,2024-07-03 16:45:26,3,distance,cathedral,numerosity_judgement,3,60,3,countries_reversed,"['_Cuba_reversed', '_Japan_reversed', '_Peru_reversed']","['f', 'f', 'm']","['p248', 'p245', 'p307']","[5, 10, 7]","[90.34149293193902, 93.00003341222717, 91.73820004985969]",3.0,True,9.333333333333334,2.516611478423583,2.9372196197509766,0.7740551583248212
0,,sub_107,2024-07-03 16:45:30,3,distance,cathedral,numerosity_judgement,3,61,2,countries_reversed,"['_Yemen_reversed', '_Peru_reversed']","['m', 'm']","['p229', 'p307']","[5, 10]","[90.34149293193902, 93.00003341222717]",2.0,True,9.5,3.5355339059327378,2.6873018741607666,0.6835319487004881
0,,sub_107,2024-07-03 16:45:35,3,distance,cathedral,numerosity_judgement,3,62,6,countries_reversed,"['_Togo_reversed', '_Japan_reversed', '_Tonga_reversed', '_Syria_reversed', '_Yemen_reversed', '_Cuba_reversed']","['f', 'm', 'm', 'f', 'f', 'f']","['p284', 'p307', 'p256', 'p245', 'p268', 'p248']","[4, 7, 5, 6, 3, 2]","[89.31368318402099, 91.73820004985969, 90.34149293193902, 91.58892582949886, 89.14911522239515, 87.57049330475357]",5.0,False,6.5,1.8708286933869707,3.0478551387786865,0.714708886618999
0,,sub_107,2024-07-03 16:45:39,3,distance,cathedral,numerosity_judgement,3,63,4,countries_reversed,"['_Peru_reversed', '_Yemen_reversed', '_Britain_reversed', '_Congo_reversed']","['m', 'm', 'f', 'm']","['p307', 'p229', 'p245', 'p256']","[3, 6, 8, 2]","[89.14911522239515, 91.58892582949886, 92.0152836843556, 87.57049330475357]",3.0,False,6.75,2.753785273643051,3.1100316047668457,0.6608330495970945
0,,sub_107,2024-07-03 16:45:44,3,distance,cathedral,numerosity_judgement,3,64,5,countries_reversed,"['_Syria_reversed', '_Oman_reversed', '_Sudan_reversed', '_Tonga_reversed', '_Cuba_reversed']","['f', 'f', 'm', 'f', 'm']","['p248', 'p268', 'p256', 'p245', 'p307']","[5, 9, 8, 6, 7]","[90.34149293193902, 92.00610777531934, 92.0152836843556, 91.58892582949886, 91.73820004985969]",4.0,False,9.0,1.5811388300841898,3.421995162963867,0.7230393825899444
0,,sub_107,2024-07-03 16:45:48,3,distance,cathedral,numerosity_judgement,3,65,2,countries_reversed,"['_Peru_reversed', '_Cuba_reversed']","['f', 'f']","['p248', 'p245']","[8, 6]","[92.0152836843556, 91.58892582949886]",2.0,True,9.0,1.4142135623730951,3.000361204147339,0.8074225400068097
0,,sub_107,2024-07-03 16:45:52,3,distance,cathedral,numerosity_judgement,3,66,6,countries_reversed,"['_Britain_reversed', '_Syria_reversed', '_Mali_reversed', '_Congo_reversed', '_Oman_reversed', '_Peru_reversed']","['f', 'f', 'f', 'm', 'm', 'm']","['p248', 'p245', 'p268', 'p229', 'p318', 'p307']","[8, 4, 10, 0, 1, 3]","[92.0152836843556, 89.31368318402099, 93.00003341222717, 84.40078082039426, 86.2038576498559, 89.14911522239515]",4.0,False,6.333333333333333,3.9327683210007,3.059737205505371,0.861786403359437
0,,sub_107,2024-07-03 16:45:57,3,distance,cathedral,numerosity_judgement,3,67,3,countries_reversed,"['_Peru_reversed', '_Yemen_reversed', '_Tonga_reversed']","['f', 'f', 'f']","['p248', 'p268', 'p245']","[10, 2, 6]","[93.00003341222717, 87.57049330475357, 91.58892582949886]",2.0,False,8.0,4.0,2.998814105987549,0.6479173760072636
0,,sub_107,2024-07-03 16:46:02,3,distance,cathedral,numerosity_judgement,3,68,5,countries_reversed,"['_Mali_reversed', '_Sudan_reversed', '_Oman_reversed', '_Japan_reversed', '_Yemen_reversed']","['f', 'm', 'm', 'f', 'f']","['p245', 'p256', 'p318', 'p284', 'p268']","[4, 5, 7, 1, 3]","[89.31368318402099, 90.34149293193902, 91.73820004985969, 86.2038576498559, 89.14911522239515]",4.0,False,6.0,2.23606797749979,3.8089711666107178,0.7634661218930882
0,,sub_107,2024-07-03 16:46:08,3,distance,cathedral,numerosity_judgement,3,69,4,countries_reversed,"['_Congo_reversed', '_Tonga_reversed', '_Togo_reversed', '_Mali_reversed']","['f', 'f', 'm', 'm']","['p268', 'p245', 'p229', 'p307']","[7, 5, 0, 3]","[91.73820004985969, 90.34149293193902, 84.40078082039426, 89.14911522239515]",3.0,False,5.75,2.9860788111948193,4.609909534454346,0.8430938599477925
0,,sub_107,2024-07-03 16:46:11,3,distance,cathedral,numerosity_judgement,3,70,2,countries_reversed,"['_Congo_reversed', '_Yemen_reversed']","['m', 'm']","['p307', 'p256']","[2, 3]","[87.57049330475357, 89.14911522239515]",2.0,True,4.5,0.7071067811865476,1.874861240386963,0.7278175008512087
0,,sub_107,2024-07-03 16:46:16,3,distance,cathedral,numerosity_judgement,3,71,5,countries_reversed,"['_Belgium_reversed', '_Cuba_reversed', '_Oman_reversed', '_Tonga_reversed', '_Sudan_reversed']","['f', 'm', 'm', 'f', 'm']","['p268', 'p256', 'p318', 'p245', 'p229']","[0, 9, 7, 4, 3]","[84.40078082039426, 92.00610777531934, 91.73820004985969, 89.31368318402099, 89.14911522239515]",4.0,False,6.6,3.5071355833500366,3.485459566116333,0.8504596527068438
0,,sub_107,2024-07-03 16:46:20,3,distance,cathedral,numerosity_judgement,3,72,6,countries_reversed,"['_Mali_reversed', '_Cuba_reversed', '_Peru_reversed', '_Oman_reversed', '_Syria_reversed', '_Yemen_reversed']","['f', 'm', 'f', 'm', 'f', 'f']","['p284', 'p307', 'p268', 'p229', 'p248', 'p245']","[4, 7, 10, 6, 9, 0]","[89.31368318402099, 91.73820004985969, 93.00003341222717, 91.58892582949886, 92.00610777531934, 84.40078082039426]",5.0,False,8.0,3.63318042491699,3.0633397102355957,0.6868346385200318
0,,sub_107,2024-07-03 16:46:24,3,distance,cathedral,numerosity_judgement,3,73,4,countries_reversed,"['_Congo_reversed', '_Oman_reversed', '_Britain_reversed', '_Cuba_reversed']","['f', 'm', 'm', 'm']","['p268', 'p318', 'p229', 'p307']","[1, 2, 3, 7]","[86.2038576498559, 87.57049330475357, 89.14911522239515, 91.73820004985969]",3.0,False,5.25,2.6299556396765835,2.921760082244873,0.74341164453524
0,,sub_107,2024-07-03 16:46:29,3,distance,cathedral,numerosity_judgement,3,74,3,countries_reversed,"['_Oman_reversed', '_Sudan_reversed', '_Mali_reversed']","['m', 'm', 'f']","['p307', 'p256', 'p248']","[4, 10, 8]","[89.31368318402099, 93.00003341222717, 92.0152836843556]",3.0,True,9.333333333333334,3.055050463303893,3.6724164485931396,0.6254454658949041
0,,sub_107,2024-07-03 16:47:46,3,distance,cathedral,numerosity_judgement,4,0,5,countries_reversed,"['_Britain_reversed', '_Oman_reversed', '_Cuba_reversed', '_Congo_reversed', '_Peru_reversed']","['f', 'f', 'f', 'm', 'm']","['p245', 'p268', 'p248', 'p307', 'p256']","[3, 9, 10, 5, 4]","[89.14911522239515, 92.00610777531934, 93.00003341222717, 90.34149293193902, 89.31368318402099]",3.0,False,8.2,3.1144823004794873,4.42396092414856,0.6833163091590058
0,,sub_107,2024-07-03 16:47:50,3,distance,cathedral,numerosity_judgement,4,1,2,countries_reversed,"['_Peru_reversed', '_Oman_reversed']","['f', 'f']","['p248', 'p245']","[7, 4]","[91.73820004985969, 89.31368318402099]",2.0,True,7.5,2.1213203435596424,2.613273859024048,0.7828736806264897
0,,sub_107,2024-07-03 16:47:56,3,distance,cathedral,numerosity_judgement,4,2,6,countries_reversed,"['_Peru_reversed', '_Britain_reversed', '_Oman_reversed', '_Japan_reversed', '_Congo_reversed', '_Yemen_reversed']","['f', 'f', 'm', 'm', 'f', 'm']","['p248', 'p268', 'p229', 'p318', 'p284', 'p256']","[5, 7, 6, 8, 4, 3]","[90.34149293193902, 91.73820004985969, 91.58892582949886, 92.0152836843556, 89.31368318402099, 89.14911522239515]",4.0,False,7.5,1.8708286933869707,4.60881233215332,0.798615367154693
0,,sub_107,2024-07-03 16:48:02,3,distance,cathedral,numerosity_judgement,4,3,4,countries_reversed,"['_Mali_reversed', '_Belgium_reversed', '_Britain_reversed', '_Oman_reversed']","['f', 'm', 'm', 'm']","['p284', 'p318', 'p229', 'p307']","[5, 1, 10, 6]","[90.34149293193902, 86.2038576498559, 93.00003341222717, 91.58892582949886]",4.0,True,7.5,3.696845502136472,4.112179756164551,0.8229258880944275
0,,sub_107,2024-07-03 16:48:06,3,distance,cathedral,numerosity_judgement,4,4,3,countries_reversed,"['_Syria_reversed', '_Sudan_reversed', '_Cuba_reversed']","['f', 'm', 'f']","['p248', 'p307', 'p284']","[2, 8, 9]","[87.57049330475357, 92.0152836843556, 92.00610777531934]",5.0,False,8.333333333333334,3.7859388972001824,3.374751567840576,0.8506412438996709
0,,sub_107,2024-07-03 16:48:11,3,distance,cathedral,numerosity_judgement,4,5,5,countries_reversed,"['_Congo_reversed', '_Peru_reversed', '_Sudan_reversed', '_Britain_reversed', '_Japan_reversed']","['f', 'f', 'm', 'm', 'm']","['p245', 'p248', 'p256', 'p307', 'p229']","[8, 4, 3, 0, 5]","[92.0152836843556, 89.31368318402099, 89.14911522239515, 84.40078082039426, 90.34149293193902]",3.0,False,6.0,2.9154759474226504,3.48861026763916,0.9495062989445012
0,,sub_107,2024-07-03 16:48:14,3,distance,cathedral,numerosity_judgement,4,6,2,countries_reversed,"['_Britain_reversed', '_Congo_reversed']","['f', 'f']","['p268', 'p245']","[5, 3]","[90.34149293193902, 89.14911522239515]",2.0,True,6.0,1.4142135623730951,2.300398826599121,0.927318125070934
0,,sub_107,2024-07-03 16:48:19,3,distance,cathedral,numerosity_judgement,4,7,6,countries_reversed,"['_Peru_reversed', '_Cuba_reversed', '_Mali_reversed', '_Yemen_reversed', '_Britain_reversed', '_Syria_reversed']","['f', 'm', 'm', 'f', 'f', 'm']","['p245', 'p307', 'p318', 'p284', 'p248', 'p256']","[6, 3, 8, 7, 5, 0]","[91.58892582949886, 89.14911522239515, 92.0152836843556, 91.73820004985969, 90.34149293193902, 84.40078082039426]",5.0,False,6.833333333333333,2.9268868558020253,3.2975754737854004,0.817217114969924
0,,sub_107,2024-07-03 16:48:24,3,distance,cathedral,numerosity_judgement,4,8,3,countries_reversed,"['_Cuba_reversed', '_Tonga_reversed', '_Oman_reversed']","['m', 'f', 'f']","['p307', 'p284', 'p245']","[7, 9, 5]","[91.73820004985969, 92.00610777531934, 90.34149293193902]",3.0,True,9.0,2.0,3.609130620956421,0.5873453637498581
0,,sub_107,2024-07-03 16:48:29,3,distance,cathedral,numerosity_judgement,4,9,4,countries_reversed,"['_Congo_reversed', '_Sudan_reversed', '_Oman_reversed', '_Mali_reversed']","['f', 'm', 'm', 'm']","['p248', 'p256', 'p307', 'p229']","[5, 2, 9, 3]","[90.34149293193902, 87.57049330475357, 92.00610777531934, 89.14911522239515]",4.0,True,6.75,3.095695936834452,3.610125780105591,0.7599364430825105
0,,sub_107,2024-07-03 16:48:34,3,distance,cathedral,numerosity_judgement,4,10,5,countries_reversed,"['_Japan_reversed', '_Congo_reversed', '_Cuba_reversed', '_Oman_reversed', '_Belgium_reversed']","['m', 'f', 'm', 'f', 'f']","['p229', 'p268', 'p256', 'p245', 'p248']","[0, 8, 3, 4, 2]","[84.40078082039426, 92.0152836843556, 89.14911522239515, 89.31368318402099, 87.57049330475357]",4.0,False,5.4,2.9664793948382653,4.109030246734619,0.9082510498240836
0,,sub_107,2024-07-03 16:48:38,3,distance,cathedral,numerosity_judgement,4,11,2,countries_reversed,"['_Belgium_reversed', '_Sudan_reversed']","['m', 'f']","['p256', 'p268']","[2, 1]","[87.57049330475357, 86.2038576498559]",2.0,True,3.5,0.7071067811865476,2.3752496242523193,0.9590284871183749
0,,sub_107,2024-07-03 16:48:44,3,distance,cathedral,numerosity_judgement,4,12,6,countries_reversed,"['_Japan_reversed', '_Tonga_reversed', '_Yemen_reversed', '_Mali_reversed', '_Belgium_reversed', '_Oman_reversed']","['f', 'm', 'm', 'f', 'm', 'f']","['p284', 'p229', 'p307', 'p248', 'p318', 'p268']","[8, 5, 3, 4, 9, 0]","[92.0152836843556, 90.34149293193902, 89.14911522239515, 89.31368318402099, 92.00610777531934, 84.40078082039426]",3.0,False,6.833333333333333,3.3115957885386114,4.423088073730469,0.931097491771649
0,,sub_107,2024-07-03 16:48:49,3,distance,cathedral,numerosity_judgement,4,13,4,countries_reversed,"['_Syria_reversed', '_Sudan_reversed', '_Cuba_reversed', '_Togo_reversed']","['f', 'm', 'm', 'm']","['p245', 'p307', 'p256', 'p318']","[3, 2, 1, 9]","[89.14911522239515, 87.57049330475357, 86.2038576498559, 92.00610777531934]",4.0,True,5.75,3.593976442141304,3.859102249145508,0.9131540120304166
0,,sub_107,2024-07-03 16:48:54,3,distance,cathedral,numerosity_judgement,4,14,3,countries_reversed,"['_Peru_reversed', '_Belgium_reversed', '_Oman_reversed']","['m', 'm', 'f']","['p307', 'p256', 'p245']","[6, 2, 7]","[91.58892582949886, 87.57049330475357, 91.73820004985969]",3.0,True,7.0,2.6457513110645907,4.2976133823394775,0.6852797639314493
0,,sub_107,2024-07-03 16:48:59,3,distance,cathedral,numerosity_judgement,4,15,6,countries_reversed,"['_Syria_reversed', '_Belgium_reversed', '_Oman_reversed', '_Cuba_reversed', '_Yemen_reversed', '_Congo_reversed']","['f', 'f', 'm', 'm', 'f', 'f']","['p284', 'p245', 'p229', 'p307', 'p248', 'p268']","[0, 3, 10, 8, 5, 4]","[84.40078082039426, 89.14911522239515, 93.00003341222717, 92.0152836843556, 90.34149293193902, 89.31368318402099]",4.0,False,7.0,3.5777087639996634,3.8593955039978027,0.7294745204857565
0,,sub_107,2024-07-03 16:49:04,3,distance,cathedral,numerosity_judgement,4,16,5,countries_reversed,"['_Yemen_reversed', '_Britain_reversed', '_Mali_reversed', '_Japan_reversed', '_Cuba_reversed']","['f', 'm', 'm', 'f', 'm']","['p284', 'p318', 'p256', 'p248', 'p229']","[2, 8, 3, 4, 1]","[87.57049330475357, 92.0152836843556, 89.14911522239515, 89.31368318402099, 86.2038576498559]",3.0,False,5.6,2.701851217221259,3.797461748123169,0.8988877539439337
0,,sub_107,2024-07-03 16:49:09,3,distance,cathedral,numerosity_judgement,4,17,4,countries_reversed,"['_Oman_reversed', '_Yemen_reversed', '_Britain_reversed', '_Mali_reversed']","['m', 'm', 'm', 'm']","['p229', 'p318', 'p307', 'p256']","[5, 7, 9, 6]","[90.34149293193902, 91.73820004985969, 92.00610777531934, 91.58892582949886]",2.0,False,8.75,1.707825127659933,3.420231580734253,0.6135966405629327
0,,sub_107,2024-07-03 16:49:13,3,distance,cathedral,numerosity_judgement,4,18,2,countries_reversed,"['_Yemen_reversed', '_Belgium_reversed']","['f', 'f']","['p248', 'p245']","[8, 6]","[92.0152836843556, 91.58892582949886]",2.0,True,9.0,1.4142135623730951,2.861358880996704,0.7423674951764839
0,,sub_107,2024-07-03 16:49:18,3,distance,cathedral,numerosity_judgement,4,19,3,countries_reversed,"['_Togo_reversed', '_Congo_reversed', '_Sudan_reversed']","['m', 'm', 'm']","['p307', 'p229', 'p318']","[8, 7, 1]","[92.0152836843556, 91.73820004985969, 86.2038576498559]",4.0,False,7.333333333333333,3.7859388972001824,3.2446045875549316,0.921484508001362
0,,sub_107,2024-07-03 16:49:24,3,distance,cathedral,numerosity_judgement,4,20,6,countries_reversed,"['_Cuba_reversed', '_Yemen_reversed', '_Belgium_reversed', '_Britain_reversed', '_Mali_reversed', '_Japan_reversed']","['m', 'm', 'f', 'f', 'f', 'm']","['p307', 'p229', 'p284', 'p245', 'p268', 'p318']","[10, 8, 5, 2, 3, 0]","[93.00003341222717, 92.0152836843556, 90.34149293193902, 87.57049330475357, 89.14911522239515, 84.40078082039426]",4.0,False,6.666666666666667,3.777124126457412,5.048783302307129,0.9091022585404608
0,,sub_107,2024-07-03 16:49:29,3,distance,cathedral,numerosity_judgement,4,21,4,countries_reversed,"['_Japan_reversed', '_Congo_reversed', '_Syria_reversed', '_Peru_reversed']","['f', 'm', 'f', 'm']","['p245', 'p318', 'p268', 'p229']","[1, 4, 2, 5]","[86.2038576498559, 89.31368318402099, 87.57049330475357, 90.34149293193902]",4.0,True,5.0,1.8257418583505538,3.858964681625366,0.9530359777550788
0,,sub_107,2024-07-03 16:49:34,3,distance,cathedral,numerosity_judgement,4,22,5,countries_reversed,"['_Oman_reversed', '_Tonga_reversed', '_Peru_reversed', '_Syria_reversed', '_Yemen_reversed']","['m', 'f', 'm', 'm', 'm']","['p307', 'p284', 'p318', 'p256', 'p229']","[4, 1, 2, 7, 5]","[89.31368318402099, 86.2038576498559, 87.57049330475357, 91.73820004985969, 90.34149293193902]",5.0,True,5.8,2.3874672772626644,3.297626495361328,0.7654976733628419
0,,sub_107,2024-07-03 16:49:37,3,distance,cathedral,numerosity_judgement,4,23,3,countries_reversed,"['_Oman_reversed', '_Cuba_reversed', '_Yemen_reversed']","['m', 'm', 'f']","['p256', 'p307', 'p248']","[10, 7, 4]","[93.00003341222717, 91.73820004985969, 89.31368318402099]",2.0,False,9.0,3.0,2.186379909515381,0.6046419248666439
0,,sub_107,2024-07-03 16:49:42,3,distance,cathedral,numerosity_judgement,4,24,2,countries_reversed,"['_Britain_reversed', '_Peru_reversed']","['f', 'm']","['p284', 'p318']","[10, 7]","[93.00003341222717, 91.73820004985969]",2.0,True,10.5,2.1213203435596424,3.3122565746307373,0.7222449211213257
0,,sub_107,2024-07-03 16:49:46,3,distance,cathedral,numerosity_judgement,4,25,6,countries_reversed,"['_Congo_reversed', '_Tonga_reversed', '_Japan_reversed', '_Yemen_reversed', '_Syria_reversed', '_Peru_reversed']","['f', 'm', 'f', 'm', 'f', 'm']","['p268', 'p307', 'p248', 'p229', 'p245', 'p256']","[2, 9, 7, 10, 4, 5]","[87.57049330475357, 92.00610777531934, 91.73820004985969, 93.00003341222717, 89.31368318402099, 90.34149293193902]",4.0,False,8.166666666666666,3.0605010483034745,2.812293767929077,0.8497332879355352
0,,sub_107,2024-07-03 16:49:50,3,distance,cathedral,numerosity_judgement,4,26,3,countries_reversed,"['_Britain_reversed', '_Belgium_reversed', '_Cuba_reversed']","['f', 'm', 'm']","['p268', 'p256', 'p307']","[3, 6, 5]","[89.14911522239515, 91.58892582949886, 90.34149293193902]",3.0,True,6.666666666666667,1.5275252316519465,3.175279140472412,0.7795028941096357
0,,sub_107,2024-07-03 16:49:56,3,distance,cathedral,numerosity_judgement,4,27,5,countries_reversed,"['_Yemen_reversed', '_Syria_reversed', '_Oman_reversed', '_Japan_reversed', '_Sudan_reversed']","['m', 'm', 'm', 'f', 'f']","['p256', 'p229', 'p318', 'p245', 'p248']","[9, 10, 4, 7, 8]","[92.00610777531934, 93.00003341222717, 89.31368318402099, 91.73820004985969, 92.0152836843556]",5.0,True,9.6,2.3021728866442674,3.9853599071502686,0.8325729202133697
0,,sub_107,2024-07-03 16:50:00,3,distance,cathedral,numerosity_judgement,4,28,2,countries_reversed,"['_Japan_reversed', '_Sudan_reversed']","['m', 'm']","['p256', 'p307']","[7, 0]","[91.73820004985969, 84.40078082039426]",2.0,True,5.5,4.949747468305833,3.046771287918091,0.7673022358415617
0,,sub_107,2024-07-03 16:50:05,3,distance,cathedral,numerosity_judgement,4,29,4,countries_reversed,"['_Peru_reversed', '_Britain_reversed', '_Yemen_reversed', '_Congo_reversed']","['m', 'f', 'f', 'm']","['p307', 'p245', 'p268', 'p256']","[6, 0, 4, 3]","[91.58892582949886, 84.40078082039426, 89.31368318402099, 89.14911522239515]",4.0,True,5.25,2.5,3.984731435775757,0.6504256043581886
0,,sub_107,2024-07-03 16:50:10,3,distance,cathedral,numerosity_judgement,4,30,6,countries_reversed,"['_Oman_reversed', '_Sudan_reversed', '_Britain_reversed', '_Syria_reversed', '_Peru_reversed', '_Cuba_reversed']","['m', 'm', 'm', 'f', 'm', 'f']","['p229', 'p318', 'p256', 'p245', 'p307', 'p248']","[7, 4, 1, 3, 0, 9]","[91.73820004985969, 89.31368318402099, 86.2038576498559, 89.14911522239515, 84.40078082039426, 92.00610777531934]",5.0,False,6.0,3.4641016151377544,3.985412120819092,0.8401770514130065
0,,sub_107,2024-07-03 16:50:15,3,distance,cathedral,numerosity_judgement,4,31,5,countries_reversed,"['_Togo_reversed', '_Tonga_reversed', '_Oman_reversed', '_Mali_reversed', '_Yemen_reversed']","['f', 'm', 'm', 'm', 'f']","['p245', 'p256', 'p307', 'p318', 'p248']","[10, 3, 6, 9, 5]","[93.00003341222717, 89.14911522239515, 91.58892582949886, 92.00610777531934, 90.34149293193902]",5.0,True,8.6,2.8809720581775866,3.671241044998169,0.6536828963795256
0,,sub_107,2024-07-03 16:50:20,3,distance,cathedral,numerosity_judgement,4,32,3,countries_reversed,"['_Britain_reversed', '_Syria_reversed', '_Peru_reversed']","['f', 'f', 'm']","['p245', 'p248', 'p307']","[8, 5, 4]","[92.0152836843556, 90.34149293193902, 89.31368318402099]",3.0,True,7.666666666666667,2.0816659994661326,3.688514232635498,0.8266371580978322
0,,sub_107,2024-07-03 16:50:26,3,distance,cathedral,numerosity_judgement,4,33,4,countries_reversed,"['_Syria_reversed', '_Congo_reversed', '_Japan_reversed', '_Yemen_reversed']","['m', 'm', 'f', 'm']","['p256', 'p318', 'p284', 'p229']","[6, 4, 0, 8]","[91.58892582949886, 89.31368318402099, 84.40078082039426, 92.0152836843556]",4.0,True,6.5,3.415650255319866,4.875199317932129,0.8943479741232551
0,,sub_107,2024-07-03 16:50:30,3,distance,cathedral,numerosity_judgement,4,34,2,countries_reversed,"['_Britain_reversed', '_Cuba_reversed']","['f', 'f']","['p248', 'p268']","[10, 1]","[93.00003341222717, 86.2038576498559]",2.0,True,7.5,6.363961030678928,2.501634359359741,0.8356372715923278
0,,sub_107,2024-07-03 16:50:35,3,distance,cathedral,numerosity_judgement,4,35,4,countries_reversed,"['_Mali_reversed', '_Britain_reversed', '_Oman_reversed', '_Yemen_reversed']","['m', 'm', 'm', 'f']","['p229', 'p318', 'p256', 'p268']","[5, 9, 8, 6]","[90.34149293193902, 92.00610777531934, 92.0152836843556, 91.58892582949886]",4.0,True,9.0,1.8257418583505538,3.9221863746643066,0.7403018953580751
