,event_id,subject_id,timestamp,session_index,plane,setup,task,block,trial_index,stim_number,stim_type,stim_country_ids,stim_sexes,stim_talker_ids,speaker_ids,stim_level,resp_number,is_correct,speaker_distance_mean,speaker_distance_st_dev,reaction_time,spectral_coverage
0,,sub_117,2024-07-22 16:56:05,3,distance,cathedral,numerosity_judgement,1,0,4,countries_forward,"['_Yemen_', '_Oman_', '_Peru_', '_Togo_']","['m', 'm', 'f', 'm']","['p229', 'p307', 'p268', 'p256']","[9, 5, 3, 10]","[92.00610777531934, 90.34149293193902, 89.14911522239515, 93.00003341222717]",2.0,False,8.75,3.304037933599835,41.434601068496704,0.6414935875610033
0,,sub_117,2024-07-22 16:56:16,3,distance,cathedral,numerosity_judgement,1,1,5,countries_forward,"['_Mali_', '_Japan_', '_Sudan_', '_Cuba_', '_Syria_']","['m', 'm', 'f', 'f', 'f']","['p256', 'p307', 'p268', 'p248', 'p284']","[9, 4, 3, 10, 6]","[92.00610777531934, 89.31368318402099, 89.14911522239515, 93.00003341222717, 91.58892582949886]",2.0,False,8.4,3.0495901363953815,8.874378681182861,0.894086936783566
0,,sub_117,2024-07-22 16:56:20,3,distance,cathedral,numerosity_judgement,1,2,2,countries_forward,"['_Oman_', '_Syria_']","['m', 'f']","['p318', 'p268']","[4, 0]","[89.31368318402099, 84.40078082039426]",2.0,True,4.0,2.8284271247461903,2.687310218811035,0.9371240494836
0,,sub_117,2024-07-22 16:56:24,3,distance,cathedral,numerosity_judgement,1,3,3,countries_forward,"['_Cuba_', '_Yemen_', '_Oman_']","['f', 'f', 'm']","['p245', 'p268', 'p256']","[7, 6, 9]","[91.73820004985969, 91.58892582949886, 92.00610777531934]",2.0,False,9.333333333333334,1.5275252316519468,2.7498080730438232,0.6788446260356372
0,,sub_117,2024-07-22 16:56:29,3,distance,cathedral,numerosity_judgement,1,4,6,countries_forward,"['_Peru_', '_Britain_', '_Syria_', '_Japan_', '_Oman_', '_Belgium_']","['f', 'm', 'm', 'f', 'f', 'm']","['p268', 'p229', 'p256', 'p245', 'p284', 'p307']","[4, 10, 5, 1, 9, 8]","[89.31368318402099, 93.00003341222717, 90.34149293193902, 86.2038576498559, 92.00610777531934, 92.0152836843556]",3.0,False,8.166666666666666,3.4302575219167823,2.6873114109039307,0.8492452616048122
0,,sub_117,2024-07-22 16:56:32,3,distance,cathedral,numerosity_judgement,1,5,2,countries_forward,"['_Tonga_', '_Mali_']","['f', 'f']","['p248', 'p245']","[3, 6]","[89.14911522239515, 91.58892582949886]",2.0,True,6.5,2.1213203435596424,1.999795913696289,0.7557030983997276
0,,sub_117,2024-07-22 16:56:39,3,distance,cathedral,numerosity_judgement,1,6,4,countries_forward,"['_Sudan_', '_Congo_', '_Syria_', '_Yemen_']","['f', 'f', 'f', 'm']","['p248', 'p245', 'p268', 'p229']","[1, 3, 4, 5]","[86.2038576498559, 89.14911522239515, 89.31368318402099, 90.34149293193902]",3.0,False,5.25,1.707825127659933,4.499685764312744,0.9331290432414028
0,,sub_117,2024-07-22 16:56:45,3,distance,cathedral,numerosity_judgement,1,7,3,countries_forward,"['_Mali_', '_Togo_', '_Yemen_']","['m', 'f', 'f']","['p307', 'p268', 'p248']","[9, 3, 5]","[92.00610777531934, 89.14911522239515, 90.34149293193902]",2.0,False,7.666666666666667,3.0550504633038935,4.687171697616577,0.6935308137555328
0,,sub_117,2024-07-22 16:56:51,3,distance,cathedral,numerosity_judgement,1,8,6,countries_forward,"['_Tonga_', '_Britain_', '_Yemen_', '_Syria_', '_Oman_', '_Sudan_']","['m', 'f', 'm', 'm', 'm', 'f']","['p318', 'p248', 'p256', 'p229', 'p307', 'p284']","[6, 10, 5, 0, 8, 9]","[91.58892582949886, 93.00003341222717, 90.34149293193902, 84.40078082039426, 92.0152836843556, 92.00610777531934]",3.0,False,8.333333333333334,3.6147844564602556,4.187206745147705,0.8699807059357622
0,,sub_117,2024-07-22 16:56:58,3,distance,cathedral,numerosity_judgement,1,9,5,countries_forward,"['_Japan_', '_Congo_', '_Tonga_', '_Mali_', '_Syria_']","['f', 'f', 'm', 'f', 'f']","['p268', 'p284', 'p318', 'p248', 'p245']","[2, 3, 9, 7, 0]","[87.57049330475357, 89.14911522239515, 92.00610777531934, 91.73820004985969, 84.40078082039426]",3.0,False,6.2,3.7013511046643495,5.1246442794799805,0.951049824083532
0,,sub_117,2024-07-22 16:57:05,3,distance,cathedral,numerosity_judgement,1,10,6,countries_forward,"['_Yemen_', '_Tonga_', '_Mali_', '_Cuba_', '_Togo_', '_Congo_']","['m', 'f', 'f', 'm', 'm', 'f']","['p318', 'p268', 'p248', 'p307', 'p256', 'p245']","[5, 3, 10, 7, 2, 4]","[90.34149293193902, 89.14911522239515, 93.00003341222717, 91.73820004985969, 87.57049330475357, 89.31368318402099]",2.0,False,7.166666666666667,2.9268868558020253,4.562180757522583,0.6946544092611509
0,,sub_117,2024-07-22 16:57:08,3,distance,cathedral,numerosity_judgement,1,11,2,countries_forward,"['_Tonga_', '_Cuba_']","['m', 'f']","['p318', 'p284']","[1, 3]","[86.2038576498559, 89.14911522239515]",2.0,True,4.0,1.4142135623730951,1.9373643398284912,0.818601747815231
0,,sub_117,2024-07-22 16:57:12,3,distance,cathedral,numerosity_judgement,1,12,5,countries_forward,"['_Belgium_', '_Tonga_', '_Cuba_', '_Oman_', '_Congo_']","['m', 'm', 'f', 'f', 'f']","['p229', 'p318', 'p245', 'p248', 'p268']","[2, 4, 7, 5, 10]","[87.57049330475357, 89.31368318402099, 91.73820004985969, 90.34149293193902, 93.00003341222717]",3.0,False,7.6,3.0495901363953815,2.374833822250366,0.763659062535467
0,,sub_117,2024-07-22 16:57:18,3,distance,cathedral,numerosity_judgement,1,13,4,countries_forward,"['_Togo_', '_Britain_', '_Mali_', '_Cuba_']","['f', 'm', 'f', 'm']","['p245', 'p256', 'p284', 'p307']","[6, 0, 8, 7]","[91.58892582949886, 84.40078082039426, 92.0152836843556, 91.73820004985969]",2.0,False,7.25,3.593976442141304,3.8746676445007324,0.6877085461355125
0,,sub_117,2024-07-22 16:57:24,3,distance,cathedral,numerosity_judgement,1,14,3,countries_forward,"['_Britain_', '_Cuba_', '_Oman_']","['f', 'f', 'm']","['p248', 'p284', 'p307']","[6, 3, 5]","[91.58892582949886, 89.14911522239515, 90.34149293193902]",2.0,False,6.666666666666667,1.5275252316519465,4.562180757522583,0.756066280785382
0,,sub_117,2024-07-22 16:57:28,3,distance,cathedral,numerosity_judgement,1,15,2,countries_forward,"['_Tonga_', '_Oman_']","['f', 'm']","['p248', 'p307']","[0, 5]","[84.40078082039426, 90.34149293193902]",2.0,True,4.5,3.5355339059327378,2.4373297691345215,0.6384632845307002
0,,sub_117,2024-07-22 16:57:33,3,distance,cathedral,numerosity_judgement,1,16,4,countries_forward,"['_Oman_', '_Belgium_', '_Sudan_', '_Tonga_']","['m', 'm', 'm', 'f']","['p229', 'p256', 'p318', 'p248']","[7, 2, 6, 0]","[91.73820004985969, 87.57049330475357, 91.58892582949886, 84.40078082039426]",2.0,False,5.75,3.304037933599835,3.124781608581543,0.9118034275337646
0,,sub_117,2024-07-22 16:57:38,3,distance,cathedral,numerosity_judgement,1,17,6,countries_forward,"['_Mali_', '_Cuba_', '_Tonga_', '_Togo_', '_Japan_', '_Belgium_']","['f', 'm', 'f', 'm', 'f', 'f']","['p284', 'p318', 'p248', 'p307', 'p268', 'p245']","[2, 6, 4, 0, 5, 8]","[87.57049330475357, 91.58892582949886, 89.31368318402099, 84.40078082039426, 90.34149293193902, 92.0152836843556]",2.0,False,6.166666666666667,2.857738033247041,3.1247806549072266,0.8986040177051413
0,,sub_117,2024-07-22 16:57:43,3,distance,cathedral,numerosity_judgement,1,18,5,countries_forward,"['_Tonga_', '_Mali_', '_Peru_', '_Togo_', '_Cuba_']","['m', 'f', 'm', 'm', 'f']","['p307', 'p245', 'p318', 'p256', 'p268']","[1, 0, 6, 9, 3]","[86.2038576498559, 84.40078082039426, 91.58892582949886, 92.00610777531934, 89.14911522239515]",2.0,False,5.8,3.7013511046643495,2.812302589416504,0.8083985926682556
0,,sub_117,2024-07-22 16:57:47,3,distance,cathedral,numerosity_judgement,1,19,3,countries_forward,"['_Togo_', '_Yemen_', '_Congo_']","['m', 'f', 'm']","['p229', 'p245', 'p256']","[0, 3, 8]","[84.40078082039426, 89.14911522239515, 92.0152836843556]",2.0,False,5.666666666666667,4.041451884327381,3.062218189239502,0.6506639427987743
0,,sub_117,2024-07-22 16:57:51,3,distance,cathedral,numerosity_judgement,1,20,2,countries_forward,"['_Yemen_', '_Japan_']","['f', 'm']","['p248', 'p229']","[4, 3]","[89.31368318402099, 89.14911522239515]",2.0,True,5.5,0.7071067811865476,2.3123128414154053,0.7839405288843491
0,,sub_117,2024-07-22 16:57:56,3,distance,cathedral,numerosity_judgement,1,21,6,countries_forward,"['_Belgium_', '_Sudan_', '_Syria_', '_Japan_', '_Togo_', '_Mali_']","['f', 'm', 'm', 'f', 'f', 'f']","['p268', 'p229', 'p318', 'p248', 'p245', 'p284']","[3, 9, 1, 0, 10, 2]","[89.14911522239515, 92.00610777531934, 86.2038576498559, 84.40078082039426, 93.00003341222717, 87.57049330475357]",3.0,False,6.166666666666667,4.262237284181474,2.3123388290405273,0.9458404267393032
0,,sub_117,2024-07-22 16:58:00,3,distance,cathedral,numerosity_judgement,1,22,4,countries_forward,"['_Togo_', '_Tonga_', '_Oman_', '_Peru_']","['m', 'f', 'f', 'm']","['p307', 'p245', 'p268', 'p256']","[10, 0, 6, 7]","[93.00003341222717, 84.40078082039426, 91.58892582949886, 91.73820004985969]",2.0,False,7.75,4.193248541803041,2.9372940063476562,0.8360685506752923
0,,sub_117,2024-07-22 16:58:05,3,distance,cathedral,numerosity_judgement,1,23,3,countries_forward,"['_Congo_', '_Tonga_', '_Syria_']","['m', 'm', 'f']","['p229', 'p318', 'p268']","[0, 4, 8]","[84.40078082039426, 89.31368318402099, 92.0152836843556]",2.0,False,6.0,4.0,2.874798536300659,0.9400749063670412
0,,sub_117,2024-07-22 16:58:09,3,distance,cathedral,numerosity_judgement,1,24,5,countries_forward,"['_Belgium_', '_Cuba_', '_Japan_', '_Sudan_', '_Britain_']","['f', 'f', 'f', 'f', 'm']","['p268', 'p245', 'p248', 'p284', 'p318']","[7, 8, 5, 9, 3]","[91.73820004985969, 92.0152836843556, 90.34149293193902, 92.00610777531934, 89.14911522239515]",2.0,False,8.4,2.4083189157584592,2.5623209476470947,0.9216774486437408
0,,sub_117,2024-07-22 16:58:14,3,distance,cathedral,numerosity_judgement,1,25,2,countries_forward,"['_Oman_', '_Yemen_']","['m', 'm']","['p229', 'p256']","[3, 6]","[89.14911522239515, 91.58892582949886]",2.0,True,6.5,2.1213203435596424,3.124717950820923,0.5410623084780388
0,,sub_117,2024-07-22 16:58:21,3,distance,cathedral,numerosity_judgement,1,26,6,countries_forward,"['_Cuba_', '_Japan_', '_Oman_', '_Togo_', '_Yemen_', '_Peru_']","['f', 'm', 'f', 'f', 'f', 'm']","['p268', 'p229', 'p284', 'p248', 'p245', 'p256']","[10, 8, 9, 5, 7, 0]","[93.00003341222717, 92.0152836843556, 92.00610777531934, 90.34149293193902, 91.73820004985969, 84.40078082039426]",2.0,False,8.5,3.6193922141707713,4.749667406082153,0.766541822721598
0,,sub_117,2024-07-22 16:58:25,3,distance,cathedral,numerosity_judgement,1,27,5,countries_forward,"['_Peru_', '_Oman_', '_Congo_', '_Japan_', '_Cuba_']","['m', 'f', 'm', 'f', 'f']","['p256', 'p248', 'p229', 'p268', 'p245']","[5, 10, 8, 3, 1]","[90.34149293193902, 93.00003341222717, 92.0152836843556, 89.14911522239515, 86.2038576498559]",2.0,False,7.4,3.646916505762094,2.9997899532318115,0.7546475995914198
0,,sub_117,2024-07-22 16:58:29,3,distance,cathedral,numerosity_judgement,1,28,4,countries_forward,"['_Mali_', '_Congo_', '_Sudan_', '_Belgium_']","['m', 'f', 'f', 'f']","['p256', 'p284', 'p248', 'p268']","[8, 10, 0, 1]","[92.0152836843556, 93.00003341222717, 84.40078082039426, 86.2038576498559]",2.0,False,6.75,4.9916597106239795,2.187346935272217,0.9005674724775848
0,,sub_117,2024-07-22 16:58:34,3,distance,cathedral,numerosity_judgement,1,29,3,countries_forward,"['_Tonga_', '_Peru_', '_Oman_']","['f', 'f', 'f']","['p245', 'p268', 'p248']","[3, 5, 4]","[89.14911522239515, 90.34149293193902, 89.31368318402099]",2.0,False,6.0,1.0,3.1872775554656982,0.7218703892861196
0,,sub_117,2024-07-22 16:58:38,3,distance,cathedral,numerosity_judgement,1,30,5,countries_forward,"['_Oman_', '_Britain_', '_Syria_', '_Peru_', '_Mali_']","['f', 'm', 'm', 'f', 'f']","['p284', 'p256', 'p318', 'p248', 'p268']","[4, 2, 1, 0, 5]","[89.31368318402099, 87.57049330475357, 86.2038576498559, 84.40078082039426, 90.34149293193902]",3.0,False,4.4,2.073644135332772,2.0623555183410645,0.9480989672000908
0,,sub_117,2024-07-22 16:58:43,3,distance,cathedral,numerosity_judgement,1,31,3,countries_forward,"['_Peru_', '_Yemen_', '_Oman_']","['m', 'm', 'm']","['p307', 'p256', 'p229']","[3, 1, 10]","[89.14911522239515, 86.2038576498559, 93.00003341222717]",2.0,False,6.666666666666667,4.725815626252608,3.062260627746582,0.6106230847803882
0,,sub_117,2024-07-22 16:58:47,3,distance,cathedral,numerosity_judgement,1,32,2,countries_forward,"['_Britain_', '_Belgium_']","['f', 'f']","['p268', 'p248']","[6, 10]","[91.58892582949886, 93.00003341222717]",2.0,True,10.0,2.8284271247461903,2.9997901916503906,0.9208262399273636
0,,sub_117,2024-07-22 16:58:51,3,distance,cathedral,numerosity_judgement,1,33,4,countries_forward,"['_Yemen_', '_Peru_', '_Belgium_', '_Cuba_']","['f', 'm', 'm', 'm']","['p245', 'p229', 'p256', 'p307']","[6, 1, 2, 4]","[91.58892582949886, 86.2038576498559, 87.57049330475357, 89.31368318402099]",2.0,False,5.25,2.217355782608345,2.249842643737793,0.7576325048235161
0,,sub_117,2024-07-22 16:58:55,3,distance,cathedral,numerosity_judgement,1,34,6,countries_forward,"['_Cuba_', '_Mali_', '_Peru_', '_Oman_', '_Yemen_', '_Congo_']","['f', 'f', 'm', 'f', 'm', 'm']","['p268', 'p284', 'p307', 'p248', 'p229', 'p256']","[3, 8, 1, 2, 5, 4]","[89.14911522239515, 92.0152836843556, 86.2038576498559, 87.57049330475357, 90.34149293193902, 89.31368318402099]",2.0,False,5.833333333333333,2.48327740429189,2.249845266342163,0.7327772103053002
0,,sub_117,2024-07-22 16:59:01,3,distance,cathedral,numerosity_judgement,1,35,4,countries_forward,"['_Syria_', '_Tonga_', '_Oman_', '_Congo_']","['m', 'f', 'm', 'f']","['p318', 'p284', 'p256', 'p268']","[3, 10, 6, 7]","[89.14911522239515, 93.00003341222717, 91.58892582949886, 91.73820004985969]",3.0,False,8.5,2.886751345948129,3.4997551441192627,0.8039269095448871
0,,sub_117,2024-07-22 16:59:05,3,distance,cathedral,numerosity_judgement,1,36,5,countries_forward,"['_Britain_', '_Congo_', '_Cuba_', '_Peru_', '_Oman_']","['m', 'm', 'f', 'm', 'f']","['p256', 'p229', 'p248', 'p318', 'p284']","[5, 10, 9, 0, 8]","[90.34149293193902, 93.00003341222717, 92.00610777531934, 84.40078082039426, 92.0152836843556]",2.0,False,8.4,4.03732584763727,2.2498421669006348,0.8186471456134378
0,,sub_117,2024-07-22 16:59:09,3,distance,cathedral,numerosity_judgement,1,37,6,countries_forward,"['_Tonga_', '_Congo_', '_Peru_', '_Syria_', '_Sudan_', '_Yemen_']","['f', 'm', 'f', 'm', 'f', 'm']","['p248', 'p307', 'p284', 'p229', 'p268', 'p318']","[2, 1, 8, 10, 9, 0]","[87.57049330475357, 86.2038576498559, 92.0152836843556, 93.00003341222717, 92.00610777531934, 84.40078082039426]",3.0,False,7.0,4.47213595499958,1.9373629093170166,0.9551810237203496
0,,sub_117,2024-07-22 16:59:12,3,distance,cathedral,numerosity_judgement,1,38,3,countries_forward,"['_Tonga_', '_Togo_', '_Cuba_']","['m', 'm', 'm']","['p307', 'p256', 'p318']","[6, 0, 2]","[91.58892582949886, 84.40078082039426, 87.57049330475357]",2.0,False,4.666666666666667,3.0550504633038935,1.7498788833618164,0.8815003972307343
0,,sub_117,2024-07-22 16:59:17,3,distance,cathedral,numerosity_judgement,1,39,2,countries_forward,"['_Yemen_', '_Peru_']","['m', 'm']","['p256', 'p307']","[5, 10]","[90.34149293193902, 93.00003341222717]",2.0,True,9.5,3.5355339059327378,3.187276601791382,0.6123141527635909
0,,sub_117,2024-07-22 16:59:21,3,distance,cathedral,numerosity_judgement,1,40,6,countries_forward,"['_Mali_', '_Belgium_', '_Congo_', '_Oman_', '_Yemen_', '_Togo_']","['m', 'm', 'f', 'm', 'f', 'm']","['p256', 'p318', 'p268', 'p229', 'p245', 'p307']","[2, 3, 4, 6, 9, 8]","[87.57049330475357, 89.14911522239515, 89.31368318402099, 91.58892582949886, 92.00610777531934, 92.0152836843556]",3.0,False,7.333333333333333,2.804757862395017,2.3748867511749268,0.7957893542163205
0,,sub_117,2024-07-22 16:59:25,3,distance,cathedral,numerosity_judgement,1,41,2,countries_forward,"['_Oman_', '_Yemen_']","['m', 'f']","['p307', 'p268']","[2, 8]","[87.57049330475357, 92.0152836843556]",2.0,True,7.0,4.242640687119285,1.9373648166656494,0.7244807626830099
0,,sub_117,2024-07-22 16:59:29,3,distance,cathedral,numerosity_judgement,1,42,3,countries_forward,"['_Cuba_', '_Japan_', '_Yemen_']","['f', 'm', 'm']","['p284', 'p318', 'p307']","[2, 1, 6]","[87.57049330475357, 86.2038576498559, 91.58892582949886]",2.0,False,5.0,2.6457513110645907,2.8747987747192383,0.8650209964816706
0,,sub_117,2024-07-22 16:59:33,3,distance,cathedral,numerosity_judgement,1,43,5,countries_forward,"['_Tonga_', '_Oman_', '_Congo_', '_Britain_', '_Syria_']","['f', 'm', 'f', 'm', 'm']","['p284', 'p307', 'p248', 'p318', 'p229']","[6, 5, 7, 8, 4]","[91.58892582949886, 90.34149293193902, 91.73820004985969, 92.0152836843556, 89.31368318402099]",3.0,False,8.0,1.5811388300841898,2.2498419284820557,0.8702303938258994
0,,sub_117,2024-07-22 16:59:39,3,distance,cathedral,numerosity_judgement,1,44,4,countries_forward,"['_Syria_', '_Congo_', '_Oman_', '_Belgium_']","['m', 'f', 'm', 'm']","['p307', 'p245', 'p256', 'p318']","[8, 7, 6, 3]","[92.0152836843556, 91.73820004985969, 91.58892582949886, 89.14911522239515]",3.0,False,8.0,2.160246899469287,3.687242031097412,0.8829077289751447
0,,sub_117,2024-07-22 16:59:44,3,distance,cathedral,numerosity_judgement,1,45,5,countries_forward,"['_Cuba_', '_Mali_', '_Peru_', '_Yemen_', '_Oman_']","['m', 'm', 'f', 'f', 'f']","['p229', 'p256', 'p245', 'p248', 'p268']","[2, 1, 10, 7, 3]","[87.57049330475357, 86.2038576498559, 93.00003341222717, 91.73820004985969, 89.14911522239515]",2.0,False,6.6,3.7815340802378072,3.249772071838379,0.7842356145726932
0,,sub_117,2024-07-22 16:59:49,3,distance,cathedral,numerosity_judgement,1,46,6,countries_forward,"['_Syria_', '_Tonga_', '_Peru_', '_Yemen_', '_Mali_', '_Japan_']","['f', 'f', 'm', 'm', 'm', 'f']","['p245', 'p268', 'p256', 'p318', 'p229', 'p284']","[2, 5, 10, 0, 1, 3]","[87.57049330475357, 90.34149293193902, 93.00003341222717, 84.40078082039426, 86.2038576498559, 89.14911522239515]",3.0,False,5.5,3.6193922141707713,3.0622849464416504,0.8876517988877539
0,,sub_117,2024-07-22 16:59:53,3,distance,cathedral,numerosity_judgement,1,47,3,countries_forward,"['_Togo_', '_Peru_', '_Mali_']","['f', 'f', 'm']","['p245', 'p284', 'p318']","[10, 9, 5]","[93.00003341222717, 92.00610777531934, 90.34149293193902]",2.0,False,10.0,2.6457513110645907,2.4372711181640625,0.954942685279764
0,,sub_117,2024-07-22 16:59:57,3,distance,cathedral,numerosity_judgement,1,48,2,countries_forward,"['_Mali_', '_Cuba_']","['m', 'm']","['p307', 'p318']","[7, 5]","[91.73820004985969, 90.34149293193902]",2.0,True,8.0,1.4142135623730951,2.9997901916503906,0.6817614345704234
0,,sub_117,2024-07-22 17:00:01,3,distance,cathedral,numerosity_judgement,1,49,4,countries_forward,"['_Congo_', '_Oman_', '_Peru_', '_Yemen_']","['m', 'm', 'f', 'f']","['p307', 'p229', 'p284', 'p248']","[3, 10, 2, 6]","[89.14911522239515, 93.00003341222717, 87.57049330475357, 91.58892582949886]",2.0,False,7.25,3.593976442141304,1.812373161315918,0.672829417773238
0,,sub_117,2024-07-22 17:00:05,3,distance,cathedral,numerosity_judgement,1,50,3,countries_forward,"['_Mali_', '_Sudan_', '_Tonga_']","['m', 'm', 'f']","['p256', 'p307', 'p248']","[4, 5, 2]","[89.31368318402099, 90.34149293193902, 87.57049330475357]",2.0,False,5.666666666666667,1.5275252316519465,2.687312364578247,0.7903870162297129
0,,sub_117,2024-07-22 17:00:08,3,distance,cathedral,numerosity_judgement,1,51,2,countries_forward,"['_Yemen_', '_Oman_']","['f', 'm']","['p248', 'p307']","[7, 9]","[91.73820004985969, 92.00610777531934]",2.0,True,10.0,1.4142135623730951,1.9373650550842285,0.5863920099875156
0,,sub_117,2024-07-22 17:00:14,3,distance,cathedral,numerosity_judgement,1,52,6,countries_forward,"['_Oman_', '_Peru_', '_Japan_', '_Congo_', '_Togo_', '_Yemen_']","['m', 'f', 'm', 'm', 'f', 'm']","['p229', 'p248', 'p318', 'p256', 'p284', 'p307']","[6, 10, 3, 7, 5, 8]","[91.58892582949886, 93.00003341222717, 89.14911522239515, 91.73820004985969, 90.34149293193902, 92.0152836843556]",3.0,False,8.5,2.4289915602982237,3.3122472763061523,0.7817273862217683
0,,sub_117,2024-07-22 17:00:18,3,distance,cathedral,numerosity_judgement,1,53,5,countries_forward,"['_Mali_', '_Congo_', '_Belgium_', '_Japan_', '_Sudan_']","['f', 'm', 'f', 'm', 'm']","['p268', 'p318', 'p248', 'p307', 'p256']","[2, 6, 0, 9, 8]","[87.57049330475357, 91.58892582949886, 84.40078082039426, 92.00610777531934, 92.0152836843556]",2.0,False,7.0,3.872983346207417,2.31233811378479,0.8799682215412552
0,,sub_117,2024-07-22 17:00:22,3,distance,cathedral,numerosity_judgement,1,54,4,countries_forward,"['_Tonga_', '_Yemen_', '_Togo_', '_Oman_']","['f', 'm', 'f', 'm']","['p245', 'p318', 'p268', 'p256']","[7, 8, 0, 4]","[91.73820004985969, 92.0152836843556, 84.40078082039426, 89.31368318402099]",2.0,False,6.75,3.593976442141304,2.562350034713745,0.704937010554988
0,,sub_117,2024-07-22 17:00:28,3,distance,cathedral,numerosity_judgement,1,55,6,countries_forward,"['_Congo_', '_Japan_', '_Sudan_', '_Syria_', '_Mali_', '_Oman_']","['f', 'm', 'f', 'f', 'm', 'm']","['p268', 'p256', 'p284', 'p245', 'p307', 'p229']","[5, 8, 2, 0, 9, 6]","[90.34149293193902, 92.0152836843556, 87.57049330475357, 84.40078082039426, 92.00610777531934, 91.58892582949886]",3.0,False,7.0,3.4641016151377544,3.624748945236206,0.8276359096583815
0,,sub_117,2024-07-22 17:00:33,3,distance,cathedral,numerosity_judgement,1,56,5,countries_forward,"['_Togo_', '_Congo_', '_Oman_', '_Peru_', '_Britain_']","['f', 'f', 'f', 'm', 'm']","['p248', 'p245', 'p284', 'p229', 'p318']","[10, 8, 2, 6, 0]","[93.00003341222717, 92.0152836843556, 87.57049330475357, 91.58892582949886, 84.40078082039426]",3.0,False,7.2,4.147288270665544,2.8122365474700928,0.8371127000340484
0,,sub_117,2024-07-22 17:00:37,3,distance,cathedral,numerosity_judgement,1,57,2,countries_forward,"['_Sudan_', '_Tonga_']","['f', 'm']","['p268', 'p256']","[5, 0]","[90.34149293193902, 84.40078082039426]",2.0,True,4.5,3.5355339059327378,2.5623207092285156,0.9629780955623652
0,,sub_117,2024-07-22 17:00:40,3,distance,cathedral,numerosity_judgement,1,58,4,countries_forward,"['_Mali_', '_Britain_', '_Tonga_', '_Yemen_']","['m', 'f', 'f', 'f']","['p307', 'p245', 'p248', 'p268']","[9, 2, 0, 5]","[92.00610777531934, 87.57049330475357, 84.40078082039426, 90.34149293193902]",2.0,False,6.0,3.9157800414902435,1.9998600482940674,0.8599023947338554
0,,sub_117,2024-07-22 17:00:44,3,distance,cathedral,numerosity_judgement,1,59,3,countries_forward,"['_Cuba_', '_Mali_', '_Togo_']","['f', 'f', 'm']","['p268', 'p284', 'p307']","[3, 10, 1]","[89.14911522239515, 93.00003341222717, 86.2038576498559]",2.0,False,6.666666666666667,4.725815626252608,1.749878168106079,0.8193508114856429
0,,sub_117,2024-07-22 17:00:48,3,distance,cathedral,numerosity_judgement,1,60,4,countries_forward,"['_Britain_', '_Togo_', '_Peru_', '_Yemen_']","['f', 'm', 'f', 'm']","['p248', 'p307', 'p245', 'p256']","[0, 5, 4, 6]","[84.40078082039426, 90.34149293193902, 89.31368318402099, 91.58892582949886]",2.0,False,5.75,2.6299556396765835,2.4998247623443604,0.7334354783792986
0,,sub_117,2024-07-22 17:00:51,3,distance,cathedral,numerosity_judgement,1,61,2,countries_forward,"['_Peru_', '_Belgium_']","['f', 'm']","['p268', 'p229']","[9, 10]","[92.00610777531934, 93.00003341222717]",2.0,True,11.5,0.7071067811865476,1.7498779296875,0.8866870956758597
0,,sub_117,2024-07-22 17:00:55,3,distance,cathedral,numerosity_judgement,1,62,5,countries_forward,"['_Yemen_', '_Oman_', '_Sudan_', '_Cuba_', '_Congo_']","['f', 'm', 'f', 'm', 'm']","['p268', 'p256', 'p248', 'p307', 'p229']","[10, 9, 0, 5, 2]","[93.00003341222717, 92.00610777531934, 84.40078082039426, 90.34149293193902, 87.57049330475357]",3.0,False,7.2,4.324349662087931,2.3748340606689453,0.6902962206332993
0,,sub_117,2024-07-22 17:01:00,3,distance,cathedral,numerosity_judgement,1,63,6,countries_forward,"['_Peru_', '_Cuba_', '_Syria_', '_Togo_', '_Tonga_', '_Japan_']","['m', 'f', 'f', 'm', 'm', 'm']","['p307', 'p248', 'p268', 'p256', 'p318', 'p229']","[2, 4, 3, 8, 5, 7]","[87.57049330475357, 89.31368318402099, 89.14911522239515, 92.0152836843556, 90.34149293193902, 91.73820004985969]",3.0,False,6.833333333333333,2.316606713852541,2.2498393058776855,0.9151628646010668
0,,sub_117,2024-07-22 17:01:03,3,distance,cathedral,numerosity_judgement,1,64,3,countries_forward,"['_Japan_', '_Britain_', '_Tonga_']","['m', 'm', 'f']","['p307', 'p229', 'p268']","[7, 10, 5]","[91.73820004985969, 93.00003341222717, 90.34149293193902]",2.0,False,9.333333333333334,2.516611478423583,1.6873822212219238,0.8454431960049937
0,,sub_117,2024-07-22 17:01:07,3,distance,cathedral,numerosity_judgement,1,65,5,countries_forward,"['_Oman_', '_Tonga_', '_Togo_', '_Yemen_', '_Japan_']","['m', 'm', 'm', 'f', 'f']","['p229', 'p307', 'p256', 'p245', 'p248']","[10, 5, 4, 9, 0]","[93.00003341222717, 90.34149293193902, 89.31368318402099, 92.00610777531934, 84.40078082039426]",2.0,False,7.6,4.03732584763727,2.4998252391815186,0.7124730450573147
0,,sub_117,2024-07-22 17:01:10,3,distance,cathedral,numerosity_judgement,1,66,2,countries_forward,"['_Togo_', '_Syria_']","['m', 'm']","['p256', 'p318']","[0, 10]","[84.40078082039426, 93.00003341222717]",2.0,True,7.0,7.0710678118654755,1.6248867511749268,0.8556463511519691
0,,sub_117,2024-07-22 17:01:16,3,distance,cathedral,numerosity_judgement,1,67,4,countries_forward,"['_Yemen_', '_Sudan_', '_Tonga_', '_Peru_']","['f', 'm', 'f', 'm']","['p248', 'p318', 'p268', 'p307']","[10, 2, 5, 8]","[93.00003341222717, 87.57049330475357, 90.34149293193902, 92.0152836843556]",3.0,False,8.25,3.5,3.4372594356536865,0.7749063670411985
0,,sub_117,2024-07-22 17:01:20,3,distance,cathedral,numerosity_judgement,1,68,6,countries_forward,"['_Sudan_', '_Peru_', '_Mali_', '_Oman_', '_Tonga_', '_Cuba_']","['m', 'm', 'f', 'm', 'f', 'f']","['p256', 'p229', 'p248', 'p307', 'p245', 'p268']","[4, 6, 5, 8, 7, 3]","[89.31368318402099, 91.58892582949886, 90.34149293193902, 92.0152836843556, 91.73820004985969, 89.14911522239515]",3.0,False,7.5,1.8708286933869707,2.249837875366211,0.7172625127681308
0,,sub_117,2024-07-22 17:01:24,3,distance,cathedral,numerosity_judgement,1,69,3,countries_forward,"['_Cuba_', '_Congo_', '_Syria_']","['f', 'm', 'm']","['p245', 'p229', 'p307']","[5, 9, 7]","[90.34149293193902, 92.00610777531934, 91.73820004985969]",2.0,False,9.0,2.0,2.8123044967651367,0.7815911928271478
0,,sub_117,2024-07-22 17:01:29,3,distance,cathedral,numerosity_judgement,1,70,2,countries_forward,"['_Cuba_', '_Oman_']","['m', 'm']","['p229', 'p256']","[10, 3]","[93.00003341222717, 89.14911522239515]",2.0,True,8.5,4.949747468305833,3.6247456073760986,0.6922256270570877
0,,sub_117,2024-07-22 17:01:33,3,distance,cathedral,numerosity_judgement,1,71,5,countries_forward,"['_Oman_', '_Congo_', '_Britain_', '_Peru_', '_Cuba_']","['f', 'm', 'f', 'm', 'm']","['p248', 'p256', 'p268', 'p229', 'p307']","[8, 2, 0, 6, 5]","[92.0152836843556, 87.57049330475357, 84.40078082039426, 91.58892582949886, 90.34149293193902]",2.0,False,6.2,3.1937438845342623,1.6873819828033447,0.7274429690160027
0,,sub_117,2024-07-22 17:01:37,3,distance,cathedral,numerosity_judgement,1,72,3,countries_forward,"['_Japan_', '_Congo_', '_Britain_']","['f', 'f', 'm']","['p245', 'p284', 'p229']","[8, 7, 4]","[92.0152836843556, 91.73820004985969, 89.31368318402099]",2.0,False,8.333333333333334,2.0816659994661326,2.249842405319214,0.90501645670185
0,,sub_117,2024-07-22 17:01:43,3,distance,cathedral,numerosity_judgement,1,73,4,countries_forward,"['_Belgium_', '_Mali_', '_Togo_', '_Syria_']","['m', 'f', 'm', 'f']","['p307', 'p248', 'p318', 'p284']","[3, 1, 0, 7]","[89.14911522239515, 86.2038576498559, 84.40078082039426, 91.73820004985969]",2.0,False,4.75,3.095695936834452,4.562180995941162,0.9542957666553172
0,,sub_117,2024-07-22 17:01:47,3,distance,cathedral,numerosity_judgement,1,74,6,countries_forward,"['_Yemen_', '_Oman_', '_Belgium_', '_Japan_', '_Peru_', '_Britain_']","['m', 'f', 'm', 'm', 'm', 'f']","['p318', 'p268', 'p307', 'p229', 'p256', 'p248']","[0, 8, 7, 6, 5, 1]","[84.40078082039426, 92.0152836843556, 91.73820004985969, 91.58892582949886, 90.34149293193902, 86.2038576498559]",3.0,False,6.5,3.271085446759225,2.187347412109375,0.8198842356145727
0,,sub_117,2024-07-22 17:04:00,3,distance,cathedral,numerosity_judgement,2,0,3,countries_forward,"['_Yemen_', '_Britain_', '_Oman_']","['f', 'm', 'm']","['p245', 'p307', 'p256']","[4, 6, 7]","[89.31368318402099, 91.58892582949886, 91.73820004985969]",2.0,False,7.666666666666667,1.5275252316519465,2.4998252391815186,0.6955964135739416
0,,sub_117,2024-07-22 17:04:03,3,distance,cathedral,numerosity_judgement,2,1,2,countries_forward,"['_Oman_', '_Yemen_']","['m', 'm']","['p229', 'p256']","[3, 6]","[89.14911522239515, 91.58892582949886]",2.0,True,6.5,2.1213203435596424,1.499894380569458,0.5410623084780388
0,,sub_117,2024-07-22 17:04:08,3,distance,cathedral,numerosity_judgement,2,2,5,countries_forward,"['_Syria_', '_Tonga_', '_Oman_', '_Sudan_', '_Togo_']","['f', 'm', 'f', 'f', 'm']","['p284', 'p229', 'p248', 'p268', 'p318']","[5, 1, 8, 0, 7]","[90.34149293193902, 86.2038576498559, 92.0152836843556, 84.40078082039426, 91.73820004985969]",3.0,False,6.2,3.5637059362410923,2.8123035430908203,0.9609465440926116
0,,sub_117,2024-07-22 17:04:12,3,distance,cathedral,numerosity_judgement,2,3,6,countries_forward,"['_Belgium_', '_Yemen_', '_Tonga_', '_Japan_', '_Sudan_', '_Oman_']","['f', 'm', 'f', 'f', 'f', 'm']","['p248', 'p318', 'p284', 'p268', 'p245', 'p229']","[1, 2, 3, 4, 9, 0]","[86.2038576498559, 87.57049330475357, 89.14911522239515, 89.31368318402099, 92.00610777531934, 84.40078082039426]",2.0,False,5.166666666666667,3.1885210782848317,2.312338352203369,0.9164567018499604
0,,sub_117,2024-07-22 17:04:16,3,distance,cathedral,numerosity_judgement,2,4,4,countries_forward,"['_Cuba_', '_Yemen_', '_Congo_', '_Oman_']","['m', 'f', 'f', 'f']","['p307', 'p268', 'p245', 'p248']","[7, 8, 4, 3]","[91.73820004985969, 92.0152836843556, 89.31368318402099, 89.14911522239515]",2.0,False,7.5,2.3804761428476167,1.874868631362915,0.629043241402792
0,,sub_117,2024-07-22 17:04:20,3,distance,cathedral,numerosity_judgement,2,5,5,countries_forward,"['_Oman_', '_Peru_', '_Congo_', '_Britain_', '_Togo_']","['m', 'm', 'f', 'm', 'f']","['p229', 'p256', 'p248', 'p318', 'p268']","[6, 2, 10, 4, 9]","[91.58892582949886, 87.57049330475357, 93.00003341222717, 89.31368318402099, 92.00610777531934]",2.0,False,8.2,3.3466401061363023,1.8748910427093506,0.7160821700147543
0,,sub_117,2024-07-22 17:04:23,3,distance,cathedral,numerosity_judgement,2,6,3,countries_forward,"['_Yemen_', '_Congo_', '_Oman_']","['f', 'f', 'f']","['p248', 'p284', 'p245']","[5, 6, 9]","[90.34149293193902, 91.58892582949886, 92.00610777531934]",2.0,False,8.666666666666666,2.0816659994661326,1.7498786449432373,0.7150493701055499
0,,sub_117,2024-07-22 17:04:26,3,distance,cathedral,numerosity_judgement,2,7,4,countries_forward,"['_Mali_', '_Sudan_', '_Tonga_', '_Togo_']","['f', 'f', 'f', 'f']","['p284', 'p268', 'p248', 'p245']","[6, 9, 4, 2]","[91.58892582949886, 92.00610777531934, 89.31368318402099, 87.57049330475357]",2.0,False,7.25,2.9860788111948193,1.4998950958251953,0.9554874588582454
0,,sub_117,2024-07-22 17:04:29,3,distance,cathedral,numerosity_judgement,2,8,2,countries_forward,"['_Tonga_', '_Sudan_']","['f', 'm']","['p284', 'p307']","[7, 6]","[91.73820004985969, 91.58892582949886]",2.0,True,8.5,0.7071067811865476,1.6873819828033447,0.8799114742934968
0,,sub_117,2024-07-22 17:04:34,3,distance,cathedral,numerosity_judgement,2,9,6,countries_forward,"['_Syria_', '_Cuba_', '_Belgium_', '_Tonga_', '_Yemen_', '_Japan_']","['m', 'm', 'f', 'f', 'm', 'f']","['p229', 'p256', 'p268', 'p284', 'p307', 'p248']","[9, 10, 3, 0, 4, 5]","[92.00610777531934, 93.00003341222717, 89.14911522239515, 84.40078082039426, 89.31368318402099, 90.34149293193902]",3.0,False,7.166666666666667,3.763863263545405,2.1874005794525146,0.8605606628078538
0,,sub_117,2024-07-22 17:04:37,3,distance,cathedral,numerosity_judgement,2,10,4,countries_forward,"['_Britain_', '_Belgium_', '_Syria_', '_Mali_']","['f', 'm', 'f', 'm']","['p268', 'p229', 'p284', 'p318']","[2, 1, 4, 10]","[87.57049330475357, 86.2038576498559, 89.31368318402099, 93.00003341222717]",3.0,False,6.25,4.031128874149275,1.4998955726623535,0.9477925320621948
0,,sub_117,2024-07-22 17:04:42,3,distance,cathedral,numerosity_judgement,2,11,6,countries_forward,"['_Tonga_', '_Peru_', '_Britain_', '_Oman_', '_Yemen_', '_Mali_']","['f', 'f', 'm', 'f', 'm', 'f']","['p245', 'p268', 'p318', 'p248', 'p307', 'p284']","[10, 8, 6, 9, 2, 7]","[93.00003341222717, 92.0152836843556, 91.58892582949886, 92.00610777531934, 87.57049330475357, 91.73820004985969]",3.0,False,9.0,2.8284271247461903,3.3122684955596924,0.7124843945068664
0,,sub_117,2024-07-22 17:04:45,3,distance,cathedral,numerosity_judgement,2,12,3,countries_forward,"['_Cuba_', '_Togo_', '_Britain_']","['m', 'f', 'm']","['p307', 'p268', 'p229']","[2, 9, 10]","[87.57049330475357, 92.00610777531934, 93.00003341222717]",2.0,False,9.0,4.358898943540674,1.6248862743377686,0.8055839291794348
0,,sub_117,2024-07-22 17:04:49,3,distance,cathedral,numerosity_judgement,2,13,2,countries_forward,"['_Belgium_', '_Oman_']","['m', 'f']","['p229', 'p245']","[3, 10]","[89.14911522239515, 93.00003341222717]",2.0,True,8.5,4.949747468305833,1.9373643398284912,0.6528203382135966
0,,sub_117,2024-07-22 17:04:55,3,distance,cathedral,numerosity_judgement,2,14,5,countries_forward,"['_Yemen_', '_Togo_', '_Cuba_', '_Tonga_', '_Britain_']","['m', 'f', 'm', 'f', 'm']","['p256', 'p248', 'p318', 'p268', 'p229']","[6, 10, 1, 7, 8]","[91.58892582949886, 93.00003341222717, 86.2038576498559, 91.73820004985969, 92.0152836843556]",3.0,False,8.4,3.361547262794322,3.874727964401245,0.831097491771649
0,,sub_117,2024-07-22 17:04:58,3,distance,cathedral,numerosity_judgement,2,15,2,countries_forward,"['_Yemen_', '_Oman_']","['m', 'm']","['p256', 'p307']","[0, 5]","[84.40078082039426, 90.34149293193902]",2.0,True,4.5,3.5355339059327378,1.8748681545257568,0.608194302576325
0,,sub_117,2024-07-22 17:05:03,3,distance,cathedral,numerosity_judgement,2,16,6,countries_forward,"['_Belgium_', '_Mali_', '_Yemen_', '_Congo_', '_Togo_', '_Oman_']","['m', 'm', 'f', 'm', 'f', 'm']","['p256', 'p307', 'p268', 'p318', 'p284', 'p229']","[4, 2, 8, 3, 6, 9]","[89.31368318402099, 87.57049330475357, 92.0152836843556, 89.14911522239515, 91.58892582949886, 92.00610777531934]",2.0,False,7.333333333333333,2.804757862395017,2.687312364578247,0.8027125184428555
0,,sub_117,2024-07-22 17:05:06,3,distance,cathedral,numerosity_judgement,2,17,3,countries_forward,"['_Britain_', '_Sudan_', '_Congo_']","['m', 'f', 'f']","['p307', 'p248', 'p245']","[1, 3, 4]","[86.2038576498559, 89.14911522239515, 89.31368318402099]",3.0,True,4.666666666666667,1.5275252316519465,2.1873464584350586,0.904902962206333
0,,sub_117,2024-07-22 17:05:11,3,distance,cathedral,numerosity_judgement,2,18,5,countries_forward,"['_Cuba_', '_Mali_', '_Belgium_', '_Tonga_', '_Japan_']","['f', 'm', 'f', 'f', 'f']","['p245', 'p256', 'p268', 'p284', 'p248']","[10, 2, 1, 3, 8]","[93.00003341222717, 87.57049330475357, 86.2038576498559, 89.14911522239515, 92.0152836843556]",3.0,False,6.8,3.96232255123179,2.249842643737793,0.8652139371240495
0,,sub_117,2024-07-22 17:05:14,3,distance,cathedral,numerosity_judgement,2,19,4,countries_forward,"['_Congo_', '_Tonga_', '_Oman_', '_Yemen_']","['f', 'm', 'f', 'f']","['p245', 'p318', 'p248', 'p268']","[6, 0, 5, 4]","[91.58892582949886, 84.40078082039426, 90.34149293193902, 89.31368318402099]",2.0,False,5.75,2.6299556396765835,1.6873581409454346,0.7760186130972648
0,,sub_117,2024-07-22 17:05:19,3,distance,cathedral,numerosity_judgement,2,20,5,countries_forward,"['_Togo_', '_Britain_', '_Cuba_', '_Tonga_', '_Syria_']","['m', 'f', 'f', 'f', 'm']","['p256', 'p248', 'p245', 'p268', 'p318']","[3, 6, 9, 0, 1]","[89.14911522239515, 91.58892582949886, 92.00610777531934, 84.40078082039426, 86.2038576498559]",2.0,False,5.8,3.7013511046643495,2.9372944831848145,0.9103620474406992
0,,sub_117,2024-07-22 17:05:23,3,distance,cathedral,numerosity_judgement,2,21,3,countries_forward,"['_Peru_', '_Oman_', '_Yemen_']","['f', 'm', 'm']","['p248', 'p318', 'p256']","[6, 10, 5]","[91.58892582949886, 93.00003341222717, 90.34149293193902]",2.0,False,9.0,2.6457513110645907,2.687312126159668,0.6773918964930201
0,,sub_117,2024-07-22 17:05:28,3,distance,cathedral,numerosity_judgement,2,22,6,countries_forward,"['_Sudan_', '_Peru_', '_Mali_', '_Oman_', '_Tonga_', '_Cuba_']","['m', 'm', 'f', 'm', 'f', 'f']","['p256', 'p229', 'p248', 'p307', 'p245', 'p268']","[4, 6, 5, 8, 7, 3]","[89.31368318402099, 91.58892582949886, 90.34149293193902, 92.0152836843556, 91.73820004985969, 89.14911522239515]",2.0,False,7.5,1.8708286933869707,2.812300443649292,0.7172625127681308
0,,sub_117,2024-07-22 17:05:32,3,distance,cathedral,numerosity_judgement,2,23,4,countries_forward,"['_Togo_', '_Yemen_', '_Belgium_', '_Congo_']","['f', 'f', 'm', 'f']","['p284', 'p245', 'p318', 'p248']","[4, 6, 9, 0]","[89.31368318402099, 91.58892582949886, 92.00610777531934, 84.40078082039426]",3.0,False,6.75,3.774917217635375,2.687312126159668,0.9162978095562364
0,,sub_117,2024-07-22 17:05:36,3,distance,cathedral,numerosity_judgement,2,24,2,countries_forward,"['_Oman_', '_Peru_']","['m', 'f']","['p307', 'p245']","[8, 5]","[92.0152836843556, 90.34149293193902]",2.0,True,8.5,2.1213203435596424,1.7498769760131836,0.6746339802519578
0,,sub_117,2024-07-22 17:05:39,3,distance,cathedral,numerosity_judgement,2,25,3,countries_forward,"['_Mali_', '_Cuba_', '_Peru_']","['m', 'f', 'm']","['p229', 'p284', 'p256']","[10, 4, 6]","[93.00003341222717, 89.31368318402099, 91.58892582949886]",2.0,False,8.666666666666666,3.055050463303893,1.6248857975006104,0.8411077062762456
0,,sub_117,2024-07-22 17:05:42,3,distance,cathedral,numerosity_judgement,2,26,4,countries_forward,"['_Oman_', '_Yemen_', '_Mali_', '_Congo_']","['m', 'f', 'm', 'm']","['p229', 'p248', 'p318', 'p256']","[9, 6, 4, 3]","[92.00610777531934, 91.58892582949886, 89.31368318402099, 89.14911522239515]",2.0,False,7.5,2.6457513110645907,1.8123996257781982,0.7207240948813982
0,,sub_117,2024-07-22 17:05:46,3,distance,cathedral,numerosity_judgement,2,27,5,countries_forward,"['_Britain_', '_Peru_', '_Belgium_', '_Yemen_', '_Cuba_']","['m', 'm', 'f', 'm', 'm']","['p256', 'p229', 'p245', 'p318', 'p307']","[6, 10, 4, 2, 7]","[91.58892582949886, 93.00003341222717, 89.31368318402099, 87.57049330475357, 91.73820004985969]",2.0,False,7.8,3.03315017762062,1.8123490810394287,0.7614799682215413
0,,sub_117,2024-07-22 17:05:50,3,distance,cathedral,numerosity_judgement,2,28,2,countries_forward,"['_Oman_', '_Mali_']","['m', 'm']","['p256', 'p307']","[6, 1]","[91.58892582949886, 86.2038576498559]",2.0,True,5.5,3.5355339059327378,2.499882936477661,0.727919645897174
0,,sub_117,2024-07-22 17:05:55,3,distance,cathedral,numerosity_judgement,2,29,6,countries_forward,"['_Britain_', '_Togo_', '_Tonga_', '_Belgium_', '_Syria_', '_Japan_']","['m', 'm', 'm', 'm', 'f', 'f']","['p229', 'p307', 'p256', 'p318', 'p248', 'p284']","[8, 6, 10, 7, 0, 4]","[92.0152836843556, 91.58892582949886, 93.00003341222717, 91.73820004985969, 84.40078082039426, 89.31368318402099]",2.0,False,7.833333333333333,3.488074922742725,2.8123044967651367,0.94093746453297
0,,sub_117,2024-07-22 17:05:58,3,distance,cathedral,numerosity_judgement,2,30,2,countries_forward,"['_Togo_', '_Sudan_']","['m', 'f']","['p307', 'p284']","[1, 5]","[86.2038576498559, 90.34149293193902]",2.0,True,5.0,2.8284271247461903,1.499922513961792,0.9678810577686984
0,,sub_117,2024-07-22 17:06:02,3,distance,cathedral,numerosity_judgement,2,31,4,countries_forward,"['_Syria_', '_Congo_', '_Peru_', '_Togo_']","['m', 'f', 'm', 'm']","['p318', 'p248', 'p229', 'p307']","[10, 6, 4, 5]","[93.00003341222717, 91.58892582949886, 89.31368318402099, 90.34149293193902]",2.0,False,8.25,2.6299556396765835,2.374837636947632,0.865758710702531
0,,sub_117,2024-07-22 17:06:06,3,distance,cathedral,numerosity_judgement,2,32,6,countries_forward,"['_Togo_', '_Sudan_', '_Peru_', '_Yemen_', '_Britain_', '_Mali_']","['m', 'f', 'f', 'f', 'm', 'f']","['p307', 'p248', 'p268', 'p284', 'p229', 'p245']","[0, 5, 1, 10, 2, 4]","[84.40078082039426, 90.34149293193902, 86.2038576498559, 93.00003341222717, 87.57049330475357, 89.31368318402099]",2.0,False,5.666666666666667,3.6147844564602556,2.124851703643799,0.8861763704460334
0,,sub_117,2024-07-22 17:06:10,3,distance,cathedral,numerosity_judgement,2,33,3,countries_forward,"['_Congo_', '_Oman_', '_Yemen_']","['f', 'm', 'f']","['p268', 'p307', 'p245']","[3, 4, 6]","[89.14911522239515, 89.31368318402099, 91.58892582949886]",2.0,False,6.333333333333333,1.5275252316519465,1.9998595714569092,0.6248439450686641
0,,sub_117,2024-07-22 17:06:14,3,distance,cathedral,numerosity_judgement,2,34,5,countries_forward,"['_Mali_', '_Oman_', '_Yemen_', '_Japan_', '_Belgium_']","['m', 'f', 'f', 'm', 'm']","['p256', 'p248', 'p245', 'p307', 'p229']","[7, 5, 6, 0, 8]","[91.73820004985969, 90.34149293193902, 91.58892582949886, 84.40078082039426, 92.0152836843556]",3.0,False,7.2,3.1144823004794877,2.1248512268066406,0.8002383384405857
0,,sub_117,2024-07-22 17:06:19,3,distance,cathedral,numerosity_judgement,2,35,4,countries_forward,"['_Syria_', '_Tonga_', '_Mali_', '_Japan_']","['m', 'm', 'f', 'f']","['p307', 'p256', 'p245', 'p268']","[2, 9, 5, 4]","[87.57049330475357, 92.00610777531934, 90.34149293193902, 89.31368318402099]",2.0,False,7.0,2.943920288775949,3.9997200965881348,0.8442855521507207
0,,sub_117,2024-07-22 17:06:23,3,distance,cathedral,numerosity_judgement,2,36,5,countries_forward,"['_Syria_', '_Cuba_', '_Togo_', '_Tonga_', '_Oman_']","['f', 'f', 'm', 'f', 'm']","['p248', 'p268', 'p318', 'p245', 'p229']","[0, 3, 4, 6, 10]","[84.40078082039426, 89.14911522239515, 89.31368318402099, 91.58892582949886, 93.00003341222717]",3.0,False,6.6,3.714835124201342,1.4998953342437744,0.696220633299285
0,,sub_117,2024-07-22 17:06:27,3,distance,cathedral,numerosity_judgement,2,37,6,countries_forward,"['_Sudan_', '_Syria_', '_Oman_', '_Tonga_', '_Cuba_', '_Togo_']","['m', 'f', 'f', 'f', 'f', 'm']","['p256', 'p268', 'p284', 'p245', 'p248', 'p229']","[8, 7, 9, 2, 10, 1]","[92.0152836843556, 91.73820004985969, 92.00610777531934, 87.57049330475357, 93.00003341222717, 86.2038576498559]",3.0,False,8.166666666666666,3.763863263545405,2.4998254776000977,0.9058222676200204
0,,sub_117,2024-07-22 17:06:31,3,distance,cathedral,numerosity_judgement,2,38,2,countries_forward,"['_Peru_', '_Britain_']","['m', 'f']","['p318', 'p268']","[5, 9]","[90.34149293193902, 92.00610777531934]",2.0,True,9.0,2.8284271247461903,2.187347650527954,0.801384632845307
0,,sub_117,2024-07-22 17:06:34,3,distance,cathedral,numerosity_judgement,2,39,3,countries_forward,"['_Tonga_', '_Mali_', '_Oman_']","['f', 'f', 'm']","['p248', 'p268', 'p229']","[10, 9, 5]","[93.00003341222717, 92.00610777531934, 90.34149293193902]",2.0,False,10.0,2.6457513110645907,1.3124077320098877,0.8280217909431392
0,,sub_117,2024-07-22 17:06:38,3,distance,cathedral,numerosity_judgement,2,40,5,countries_forward,"['_Congo_', '_Belgium_', '_Syria_', '_Peru_', '_Mali_']","['m', 'm', 'f', 'f', 'm']","['p229', 'p256', 'p248', 'p268', 'p307']","[1, 4, 6, 3, 10]","[86.2038576498559, 89.31368318402099, 91.58892582949886, 89.14911522239515, 93.00003341222717]",3.0,False,6.8,3.420526275297414,1.874868392944336,0.8886392009987516
0,,sub_117,2024-07-22 17:06:41,3,distance,cathedral,numerosity_judgement,2,41,6,countries_forward,"['_Tonga_', '_Oman_', '_Britain_', '_Peru_', '_Syria_', '_Cuba_']","['f', 'm', 'm', 'm', 'f', 'f']","['p284', 'p229', 'p318', 'p307', 'p245', 'p248']","[2, 4, 5, 9, 0, 10]","[87.57049330475357, 89.31368318402099, 90.34149293193902, 92.00610777531934, 84.40078082039426, 93.00003341222717]",3.0,False,7.0,3.8987177379235853,1.6248893737792969,0.8304505731472024
0,,sub_117,2024-07-22 17:06:45,3,distance,cathedral,numerosity_judgement,2,42,3,countries_forward,"['_Mali_', '_Belgium_', '_Peru_']","['f', 'm', 'm']","['p268', 'p307', 'p256']","[9, 4, 3]","[92.00610777531934, 89.31368318402099, 89.14911522239515]",2.0,False,7.333333333333333,3.2145502536643185,1.8123743534088135,0.9107252298263534
0,,sub_117,2024-07-22 17:06:48,3,distance,cathedral,numerosity_judgement,2,43,2,countries_forward,"['_Oman_', '_Yemen_']","['m', 'f']","['p307', 'p245']","[6, 10]","[91.58892582949886, 93.00003341222717]",2.0,True,10.0,2.8284271247461903,2.1248507499694824,0.5938372488934287
0,,sub_117,2024-07-22 17:06:53,3,distance,cathedral,numerosity_judgement,2,44,4,countries_forward,"['_Oman_', '_Peru_', '_Britain_', '_Cuba_']","['f', 'm', 'm', 'f']","['p248', 'p307', 'p318', 'p268']","[7, 5, 10, 3]","[91.73820004985969, 90.34149293193902, 93.00003341222717, 89.14911522239515]",2.0,False,8.25,2.9860788111948193,2.5623207092285156,0.6691067983202814
0,,sub_117,2024-07-22 17:06:56,3,distance,cathedral,numerosity_judgement,2,45,2,countries_forward,"['_Tonga_', '_Mali_']","['m', 'm']","['p229', 'p256']","[9, 5]","[92.00610777531934, 90.34149293193902]",2.0,True,9.0,2.8284271247461903,1.9998598098754883,0.8222789694699807
0,,sub_117,2024-07-22 17:07:00,3,distance,cathedral,numerosity_judgement,2,46,3,countries_forward,"['_Oman_', '_Yemen_', '_Mali_']","['f', 'f', 'm']","['p284', 'p248', 'p318']","[1, 5, 3]","[86.2038576498559, 90.34149293193902, 89.14911522239515]",2.0,False,5.0,2.0,1.93733811378479,0.7673703325388719
0,,sub_117,2024-07-22 17:07:04,3,distance,cathedral,numerosity_judgement,2,47,6,countries_forward,"['_Britain_', '_Sudan_', '_Belgium_', '_Tonga_', '_Mali_', '_Syria_']","['f', 'm', 'm', 'f', 'f', 'f']","['p268', 'p229', 'p318', 'p248', 'p284', 'p245']","[9, 2, 8, 0, 7, 1]","[92.00610777531934, 87.57049330475357, 92.0152836843556, 84.40078082039426, 91.73820004985969, 86.2038576498559]",2.0,False,6.5,3.9370039370059056,2.6248161792755127,0.9618204517080922
0,,sub_117,2024-07-22 17:07:08,3,distance,cathedral,numerosity_judgement,2,48,5,countries_forward,"['_Tonga_', '_Yemen_', '_Cuba_', '_Togo_', '_Japan_']","['m', 'f', 'm', 'm', 'm']","['p307', 'p248', 'p318', 'p256', 'p229']","[10, 0, 7, 9, 3]","[93.00003341222717, 84.40078082039426, 91.73820004985969, 92.00610777531934, 89.14911522239515]",2.0,False,7.8,4.207136793592526,2.187347888946533,0.8370219044376348
0,,sub_117,2024-07-22 17:07:12,3,distance,cathedral,numerosity_judgement,2,49,4,countries_forward,"['_Yemen_', '_Oman_', '_Cuba_', '_Togo_']","['f', 'm', 'f', 'm']","['p284', 'p307', 'p248', 'p256']","[2, 3, 10, 4]","[87.57049330475357, 89.14911522239515, 93.00003341222717, 89.31368318402099]",2.0,False,6.75,3.593976442141304,1.8748695850372314,0.7913744183407104
0,,sub_117,2024-07-22 17:07:15,3,distance,cathedral,numerosity_judgement,2,50,3,countries_forward,"['_Britain_', '_Sudan_', '_Syria_']","['f', 'm', 'f']","['p248', 'p229', 'p284']","[1, 8, 5]","[86.2038576498559, 92.0152836843556, 90.34149293193902]",2.0,False,6.666666666666667,3.5118845842842465,1.8748693466186523,0.9688003631823856
0,,sub_117,2024-07-22 17:07:18,3,distance,cathedral,numerosity_judgement,2,51,2,countries_forward,"['_Oman_', '_Belgium_']","['f', 'm']","['p245', 'p307']","[5, 7]","[90.34149293193902, 91.73820004985969]",2.0,True,8.0,1.4142135623730951,1.687382459640503,0.6912949721938486
0,,sub_117,2024-07-22 17:07:23,3,distance,cathedral,numerosity_judgement,2,52,6,countries_forward,"['_Britain_', '_Oman_', '_Cuba_', '_Togo_', '_Yemen_', '_Peru_']","['f', 'm', 'f', 'f', 'f', 'm']","['p268', 'p256', 'p245', 'p248', 'p284', 'p318']","[8, 3, 10, 4, 0, 2]","[92.0152836843556, 89.14911522239515, 93.00003341222717, 89.31368318402099, 84.40078082039426, 87.57049330475357]",2.0,False,6.5,3.7815340802378077,2.312340259552002,0.75030076041312
0,,sub_117,2024-07-22 17:07:26,3,distance,cathedral,numerosity_judgement,2,53,4,countries_forward,"['_Cuba_', '_Belgium_', '_Japan_', '_Oman_']","['m', 'm', 'm', 'f']","['p318', 'p256', 'p229', 'p248']","[10, 2, 0, 3]","[93.00003341222717, 87.57049330475357, 84.40078082039426, 89.14911522239515]",2.0,False,5.75,4.349329450233296,1.312408447265625,0.8284984678243105
0,,sub_117,2024-07-22 17:07:29,3,distance,cathedral,numerosity_judgement,2,54,5,countries_forward,"['_Tonga_', '_Yemen_', '_Japan_', '_Mali_', '_Oman_']","['f', 'm', 'm', 'f', 'f']","['p245', 'p307', 'p229', 'p248', 'p268']","[5, 8, 0, 4, 7]","[90.34149293193902, 92.0152836843556, 84.40078082039426, 89.31368318402099, 91.73820004985969]",3.0,False,6.8,3.1144823004794877,1.374903917312622,0.7539098853705595
0,,sub_117,2024-07-22 17:07:33,3,distance,cathedral,numerosity_judgement,2,55,2,countries_forward,"['_Yemen_', '_Peru_']","['m', 'm']","['p229', 'p307']","[1, 3]","[86.2038576498559, 89.14911522239515]",2.0,True,4.0,1.4142135623730951,2.4998245239257812,0.7752922483259562
0,,sub_117,2024-07-22 17:07:38,3,distance,cathedral,numerosity_judgement,2,56,6,countries_forward,"['_Congo_', '_Togo_', '_Oman_', '_Cuba_', '_Tonga_', '_Mali_']","['f', 'f', 'm', 'f', 'f', 'm']","['p248', 'p284', 'p256', 'p268', 'p245', 'p229']","[1, 9, 3, 6, 4, 7]","[86.2038576498559, 92.00610777531934, 89.14911522239515, 91.58892582949886, 89.31368318402099, 91.73820004985969]",2.0,False,7.0,2.898275349237888,2.749861478805542,0.731472023606855
0,,sub_117,2024-07-22 17:07:41,3,distance,cathedral,numerosity_judgement,2,57,3,countries_forward,"['_Togo_', '_Tonga_', '_Oman_']","['f', 'f', 'm']","['p245', 'p248', 'p256']","[5, 1, 7]","[90.34149293193902, 86.2038576498559, 91.73820004985969]",2.0,False,6.333333333333333,3.0550504633038935,1.6248877048492432,0.7446600839859266
0,,sub_117,2024-07-22 17:07:44,3,distance,cathedral,numerosity_judgement,2,58,4,countries_forward,"['_Cuba_', '_Tonga_', '_Britain_', '_Yemen_']","['f', 'f', 'm', 'm']","['p268', 'p248', 'p307', 'p229']","[10, 7, 6, 1]","[93.00003341222717, 91.73820004985969, 91.58892582949886, 86.2038576498559]",2.0,False,8.0,3.7416573867739413,1.7499244213104248,0.7573601180342754
0,,sub_117,2024-07-22 17:07:48,3,distance,cathedral,numerosity_judgement,2,59,5,countries_forward,"['_Yemen_', '_Peru_', '_Congo_', '_Togo_', '_Oman_']","['m', 'f', 'f', 'm', 'm']","['p307', 'p284', 'p268', 'p229', 'p256']","[0, 1, 9, 5, 10]","[84.40078082039426, 86.2038576498559, 92.00610777531934, 90.34149293193902, 93.00003341222717]",3.0,False,7.0,4.527692569068709,1.2499144077301025,0.7302235841561684
0,,sub_117,2024-07-22 17:07:52,3,distance,cathedral,numerosity_judgement,2,60,3,countries_forward,"['_Cuba_', '_Syria_', '_Sudan_']","['m', 'm', 'm']","['p229', 'p256', 'p318']","[1, 10, 5]","[86.2038576498559, 93.00003341222717, 90.34149293193902]",2.0,False,7.333333333333333,4.509249752822894,2.6873114109039307,0.8803654522755646
0,,sub_117,2024-07-22 17:07:56,3,distance,cathedral,numerosity_judgement,2,61,4,countries_forward,"['_Yemen_', '_Peru_', '_Congo_', '_Oman_']","['f', 'm', 'm', 'm']","['p245', 'p318', 'p307', 'p256']","[4, 8, 3, 10]","[89.31368318402099, 92.0152836843556, 89.14911522239515, 93.00003341222717]",2.0,False,8.25,3.304037933599835,2.249842643737793,0.6971399387129724
0,,sub_117,2024-07-22 17:08:02,3,distance,cathedral,numerosity_judgement,2,62,6,countries_forward,"['_Sudan_', '_Tonga_', '_Oman_', '_Peru_', '_Mali_', '_Cuba_']","['f', 'm', 'm', 'f', 'm', 'm']","['p245', 'p229', 'p256', 'p284', 'p307', 'p318']","[7, 2, 8, 6, 4, 5]","[91.73820004985969, 87.57049330475357, 92.0152836843556, 91.58892582949886, 89.31368318402099, 90.34149293193902]",3.0,False,7.333333333333333,2.160246899469287,3.6247191429138184,0.8063670411985019
0,,sub_117,2024-07-22 17:08:05,3,distance,cathedral,numerosity_judgement,2,63,2,countries_forward,"['_Sudan_', '_Japan_']","['f', 'f']","['p248', 'p268']","[2, 1]","[87.57049330475357, 86.2038576498559]",2.0,True,3.5,0.7071067811865476,1.6873903274536133,0.9057882192713652
0,,sub_117,2024-07-22 17:08:09,3,distance,cathedral,numerosity_judgement,2,64,5,countries_forward,"['_Togo_', '_Britain_', '_Syria_', '_Japan_', '_Cuba_']","['m', 'f', 'm', 'f', 'm']","['p318', 'p268', 'p229', 'p245', 'p307']","[4, 10, 1, 2, 3]","[89.31368318402099, 93.00003341222717, 86.2038576498559, 87.57049330475357, 89.14911522239515]",3.0,False,6.0,3.5355339059327378,2.1248509883880615,0.9325048235160596
0,,sub_117,2024-07-22 17:08:13,3,distance,cathedral,numerosity_judgement,2,65,6,countries_forward,"['_Cuba_', '_Japan_', '_Belgium_', '_Oman_', '_Britain_', '_Mali_']","['m', 'f', 'f', 'm', 'f', 'f']","['p229', 'p284', 'p268', 'p307', 'p245', 'p248']","[5, 2, 9, 6, 4, 0]","[90.34149293193902, 87.57049330475357, 92.00610777531934, 91.58892582949886, 89.31368318402099, 84.40078082039426]",2.0,False,6.333333333333333,3.141125063837266,1.8748688697814941,0.8539666326183181
0,,sub_117,2024-07-22 17:08:17,3,distance,cathedral,numerosity_judgement,2,66,5,countries_forward,"['_Oman_', '_Yemen_', '_Congo_', '_Belgium_', '_Cuba_']","['f', 'f', 'f', 'm', 'f']","['p245', 'p284', 'p268', 'p229', 'p248']","[1, 9, 10, 5, 8]","[86.2038576498559, 92.00610777531934, 93.00003341222717, 90.34149293193902, 92.0152836843556]",3.0,False,8.6,3.646916505762094,2.31233811378479,0.7929179434797412
0,,sub_117,2024-07-22 17:08:21,3,distance,cathedral,numerosity_judgement,2,67,3,countries_forward,"['_Togo_', '_Britain_', '_Japan_']","['m', 'f', 'f']","['p318', 'p284', 'p245']","[5, 1, 2]","[90.34149293193902, 86.2038576498559, 87.57049330475357]",3.0,True,4.666666666666667,2.0816659994661326,2.999793529510498,0.9341618431506072
0,,sub_117,2024-07-22 17:08:25,3,distance,cathedral,numerosity_judgement,2,68,2,countries_forward,"['_Belgium_', '_Syria_']","['f', 'm']","['p268', 'p229']","[4, 0]","[89.31368318402099, 84.40078082039426]",2.0,True,4.0,2.8284271247461903,2.4373295307159424,0.9284190216774486
0,,sub_117,2024-07-22 17:08:29,3,distance,cathedral,numerosity_judgement,2,69,4,countries_forward,"['_Belgium_', '_Japan_', '_Sudan_', '_Oman_']","['m', 'm', 'f', 'f']","['p307', 'p318', 'p248', 'p245']","[3, 8, 9, 4]","[89.14911522239515, 92.0152836843556, 92.00610777531934, 89.31368318402099]",2.0,False,8.0,2.943920288775949,1.6248867511749268,0.8945976620133923
0,,sub_117,2024-07-22 17:08:32,3,distance,cathedral,numerosity_judgement,2,70,3,countries_forward,"['_Peru_', '_Britain_', '_Yemen_']","['f', 'f', 'm']","['p268', 'p245', 'p229']","[6, 3, 10]","[91.58892582949886, 89.14911522239515, 93.00003341222717]",2.0,False,8.333333333333334,3.511884584284246,1.562387466430664,0.6483486550902281
0,,sub_117,2024-07-22 17:08:35,3,distance,cathedral,numerosity_judgement,2,71,2,countries_forward,"['_Belgium_', '_Peru_']","['f', 'm']","['p248', 'p256']","[3, 8]","[89.14911522239515, 92.0152836843556]",2.0,True,7.5,3.5355339059327378,1.5623908042907715,0.854976733628419
0,,sub_117,2024-07-22 17:08:38,3,distance,cathedral,numerosity_judgement,2,72,4,countries_forward,"['_Oman_', '_Yemen_', '_Syria_', '_Britain_']","['m', 'm', 'f', 'm']","['p256', 'p318', 'p248', 'p307']","[10, 9, 8, 3]","[93.00003341222717, 92.00610777531934, 92.0152836843556, 89.14911522239515]",2.0,False,9.5,3.1091263510296048,1.6248860359191895,0.7364771308591533
0,,sub_117,2024-07-22 17:08:42,3,distance,cathedral,numerosity_judgement,2,73,5,countries_forward,"['_Syria_', '_Congo_', '_Belgium_', '_Cuba_', '_Peru_']","['f', 'm', 'm', 'm', 'f']","['p248', 'p256', 'p307', 'p318', 'p284']","[9, 6, 10, 4, 3]","[92.00610777531934, 91.58892582949886, 93.00003341222717, 89.31368318402099, 89.14911522239515]",2.0,False,8.4,3.0495901363953815,2.312338352203369,0.9126319373510384
0,,sub_117,2024-07-22 17:08:47,3,distance,cathedral,numerosity_judgement,2,74,6,countries_forward,"['_Syria_', '_Peru_', '_Yemen_', '_Tonga_', '_Japan_', '_Congo_']","['m', 'm', 'f', 'f', 'f', 'm']","['p229', 'p307', 'p284', 'p248', 'p245', 'p256']","[0, 6, 5, 10, 9, 8]","[84.40078082039426, 91.58892582949886, 90.34149293193902, 93.00003341222717, 92.00610777531934, 92.0152836843556]",2.0,False,8.333333333333334,3.6147844564602556,2.749807596206665,0.7808421291567359
0,,sub_117,2024-07-22 17:10:03,3,distance,cathedral,numerosity_judgement,3,0,5,countries_reversed,"['_Britain_reversed', '_Belgium_reversed', '_Tonga_reversed', '_Japan_reversed', '_Sudan_reversed']","['f', 'f', 'm', 'f', 'm']","['p248', 'p284', 'p229', 'p268', 'p307']","[4, 8, 7, 6, 5]","[89.31368318402099, 92.0152836843556, 91.73820004985969, 91.58892582949886, 90.34149293193902]",3.0,False,8.0,1.5811388300841898,4.499685525894165,0.8819316763136987
0,,sub_117,2024-07-22 17:10:06,3,distance,cathedral,numerosity_judgement,3,1,3,countries_reversed,"['_Peru_reversed', '_Britain_reversed', '_Yemen_reversed']","['m', 'm', 'f']","['p256', 'p318', 'p245']","[5, 4, 6]","[90.34149293193902, 89.31368318402099, 91.58892582949886]",2.0,False,7.0,1.0,1.9373652935028076,0.7132902054250368
0,,sub_117,2024-07-22 17:10:09,3,distance,cathedral,numerosity_judgement,3,2,2,countries_reversed,"['_Congo_reversed', '_Cuba_reversed']","['m', 'm']","['p229', 'p307']","[10, 8]","[93.00003341222717, 92.0152836843556]",2.0,True,11.0,1.4142135623730951,1.8123729228973389,0.8238451935081148
0,,sub_117,2024-07-22 17:10:14,3,distance,cathedral,numerosity_judgement,3,3,6,countries_reversed,"['_Togo_reversed', '_Cuba_reversed', '_Belgium_reversed', '_Congo_reversed', '_Yemen_reversed', '_Oman_reversed']","['m', 'f', 'm', 'm', 'f', 'f']","['p307', 'p284', 'p256', 'p318', 'p268', 'p245']","[9, 2, 1, 8, 0, 10]","[92.00610777531934, 87.57049330475357, 86.2038576498559, 92.0152836843556, 84.40078082039426, 93.00003341222717]",3.0,False,7.0,4.47213595499958,3.249802827835083,0.8404267393031438
0,,sub_117,2024-07-22 17:10:17,3,distance,cathedral,numerosity_judgement,3,4,4,countries_reversed,"['_Syria_reversed', '_Peru_reversed', '_Mali_reversed', '_Yemen_reversed']","['m', 'm', 'f', 'm']","['p229', 'p318', 'p284', 'p256']","[5, 1, 2, 4]","[90.34149293193902, 86.2038576498559, 87.57049330475357, 89.31368318402099]",2.0,False,5.0,1.8257418583505538,1.499894380569458,0.926160481216661
0,,sub_117,2024-07-22 17:10:21,3,distance,cathedral,numerosity_judgement,3,5,3,countries_reversed,"['_Yemen_reversed', '_Cuba_reversed', '_Oman_reversed']","['f', 'f', 'm']","['p268', 'p245', 'p256']","[8, 5, 9]","[92.0152836843556, 90.34149293193902, 92.00610777531934]",3.0,True,9.333333333333334,2.0816659994661326,2.8123035430908203,0.6368630121439111
0,,sub_117,2024-07-22 17:10:24,3,distance,cathedral,numerosity_judgement,3,6,4,countries_reversed,"['_Tonga_reversed', '_Togo_reversed', '_Japan_reversed', '_Sudan_reversed']","['m', 'f', 'm', 'f']","['p307', 'p284', 'p229', 'p268']","[4, 3, 5, 1]","[89.31368318402099, 89.14911522239515, 90.34149293193902, 86.2038576498559]",2.0,False,5.25,1.707825127659933,2.312337875366211,0.9645102712518444
0,,sub_117,2024-07-22 17:10:27,3,distance,cathedral,numerosity_judgement,3,7,6,countries_reversed,"['_Cuba_reversed', '_Tonga_reversed', '_Japan_reversed', '_Syria_reversed', '_Sudan_reversed', '_Peru_reversed']","['m', 'm', 'f', 'f', 'm', 'f']","['p307', 'p318', 'p284', 'p245', 'p256', 'p268']","[3, 1, 4, 10, 9, 5]","[89.14911522239515, 86.2038576498559, 89.31368318402099, 93.00003341222717, 92.00610777531934, 90.34149293193902]",2.0,False,7.333333333333333,3.5023801430836525,1.8123738765716553,0.8810804675973215
0,,sub_117,2024-07-22 17:10:31,3,distance,cathedral,numerosity_judgement,3,8,2,countries_reversed,"['_Britain_reversed', '_Yemen_reversed']","['f', 'f']","['p248', 'p245']","[2, 7]","[87.57049330475357, 91.73820004985969]",2.0,True,6.5,3.5355339059327378,2.0623555183410645,0.6982521847690387
0,,sub_117,2024-07-22 17:10:34,3,distance,cathedral,numerosity_judgement,3,9,5,countries_reversed,"['_Togo_reversed', '_Oman_reversed', '_Belgium_reversed', '_Yemen_reversed', '_Tonga_reversed']","['f', 'm', 'f', 'm', 'm']","['p248', 'p256', 'p245', 'p229', 'p307']","[7, 5, 9, 3, 10]","[91.73820004985969, 90.34149293193902, 92.00610777531934, 89.14911522239515, 93.00003341222717]",2.0,False,8.8,2.8635642126552705,1.6873812675476074,0.771558279423448
0,,sub_117,2024-07-22 17:10:36,3,distance,cathedral,numerosity_judgement,3,10,3,countries_reversed,"['_Sudan_reversed', '_Britain_reversed', '_Cuba_reversed']","['m', 'f', 'm']","['p256', 'p284', 'p318']","[2, 3, 0]","[87.57049330475357, 89.14911522239515, 84.40078082039426]",2.0,False,3.6666666666666665,1.5275252316519468,1.6248865127563477,0.91699012597889
0,,sub_117,2024-07-22 17:10:39,3,distance,cathedral,numerosity_judgement,3,11,6,countries_reversed,"['_Tonga_reversed', '_Japan_reversed', '_Mali_reversed', '_Sudan_reversed', '_Britain_reversed', '_Yemen_reversed']","['m', 'm', 'f', 'm', 'm', 'f']","['p318', 'p229', 'p245', 'p307', 'p256', 'p268']","[1, 0, 10, 4, 6, 3]","[86.2038576498559, 84.40078082039426, 93.00003341222717, 89.31368318402099, 91.58892582949886, 89.14911522239515]",2.0,False,6.0,3.63318042491699,1.562389850616455,0.8623992736352287
0,,sub_117,2024-07-22 17:10:42,3,distance,cathedral,numerosity_judgement,3,12,5,countries_reversed,"['_Britain_reversed', '_Belgium_reversed', '_Yemen_reversed', '_Oman_reversed', '_Cuba_reversed']","['f', 'm', 'm', 'm', 'f']","['p248', 'p318', 'p229', 'p256', 'p268']","[8, 4, 7, 0, 3]","[92.0152836843556, 89.31368318402099, 91.73820004985969, 84.40078082039426, 89.14911522239515]",3.0,False,6.4,3.2093613071762426,1.8123688697814941,0.6562705708773124
0,,sub_117,2024-07-22 17:10:46,3,distance,cathedral,numerosity_judgement,3,13,2,countries_reversed,"['_Oman_reversed', '_Peru_reversed']","['f', 'f']","['p245', 'p248']","[10, 8]","[93.00003341222717, 92.0152836843556]",2.0,True,11.0,1.4142135623730951,1.9998600482940674,0.6671433435478379
0,,sub_117,2024-07-22 17:10:49,3,distance,cathedral,numerosity_judgement,3,14,4,countries_reversed,"['_Peru_reversed', '_Britain_reversed', '_Syria_reversed', '_Cuba_reversed']","['m', 'f', 'f', 'f']","['p229', 'p248', 'p268', 'p284']","[9, 7, 0, 4]","[92.00610777531934, 91.73820004985969, 84.40078082039426, 89.31368318402099]",2.0,False,7.0,3.9157800414902435,2.249842643737793,0.8827601861309726
0,,sub_117,2024-07-22 17:10:52,3,distance,cathedral,numerosity_judgement,3,15,2,countries_reversed,"['_Peru_reversed', '_Syria_reversed']","['f', 'm']","['p245', 'p229']","[6, 7]","[91.58892582949886, 91.73820004985969]",2.0,True,8.5,0.7071067811865476,1.6248865127563477,0.7734422880490296
0,,sub_117,2024-07-22 17:10:55,3,distance,cathedral,numerosity_judgement,3,16,3,countries_reversed,"['_Japan_reversed', '_Syria_reversed', '_Tonga_reversed']","['m', 'm', 'f']","['p256', 'p229', 'p245']","[9, 7, 8]","[92.00610777531934, 91.73820004985969, 92.0152836843556]",2.0,False,10.0,1.0,2.0623254776000977,0.8396549767336284
0,,sub_117,2024-07-22 17:11:00,3,distance,cathedral,numerosity_judgement,3,17,5,countries_reversed,"['_Peru_reversed', '_Mali_reversed', '_Cuba_reversed', '_Yemen_reversed', '_Britain_reversed']","['m', 'f', 'f', 'm', 'm']","['p256', 'p284', 'p268', 'p318', 'p229']","[7, 3, 8, 4, 0]","[91.73820004985969, 89.14911522239515, 92.0152836843556, 89.31368318402099, 84.40078082039426]",2.0,False,6.4,3.2093613071762426,3.3747036457061768,0.8219157870843264
0,,sub_117,2024-07-22 17:11:04,3,distance,cathedral,numerosity_judgement,3,18,4,countries_reversed,"['_Tonga_reversed', '_Peru_reversed', '_Cuba_reversed', '_Belgium_reversed']","['f', 'f', 'm', 'f']","['p245', 'p248', 'p256', 'p284']","[5, 4, 10, 1]","[90.34149293193902, 89.31368318402099, 93.00003341222717, 86.2038576498559]",2.0,False,7.0,3.7416573867739413,2.5622947216033936,0.7026898195437521
0,,sub_117,2024-07-22 17:11:09,3,distance,cathedral,numerosity_judgement,3,19,6,countries_reversed,"['_Mali_reversed', '_Yemen_reversed', '_Belgium_reversed', '_Tonga_reversed', '_Peru_reversed', '_Togo_reversed']","['f', 'm', 'm', 'f', 'f', 'm']","['p245', 'p318', 'p256', 'p284', 'p268', 'p229']","[5, 0, 3, 8, 10, 6]","[90.34149293193902, 84.40078082039426, 89.14911522239515, 92.0152836843556, 93.00003341222717, 91.58892582949886]",2.0,False,7.333333333333333,3.559026084010437,3.6247456073760986,0.753183520599251
0,,sub_117,2024-07-22 17:11:11,3,distance,cathedral,numerosity_judgement,3,20,3,countries_reversed,"['_Togo_reversed', '_Japan_reversed', '_Congo_reversed']","['f', 'm', 'm']","['p245', 'p229', 'p256']","[2, 7, 10]","[87.57049330475357, 91.73820004985969, 93.00003341222717]",2.0,False,8.333333333333334,4.041451884327381,1.499894618988037,0.8498921802292588
0,,sub_117,2024-07-22 17:11:15,3,distance,cathedral,numerosity_judgement,3,21,2,countries_reversed,"['_Japan_reversed', '_Britain_reversed']","['m', 'f']","['p256', 'p284']","[7, 5]","[91.73820004985969, 90.34149293193902]",2.0,True,8.0,1.4142135623730951,1.8748159408569336,0.7959368970604925
0,,sub_117,2024-07-22 17:11:18,3,distance,cathedral,numerosity_judgement,3,22,4,countries_reversed,"['_Japan_reversed', '_Cuba_reversed', '_Peru_reversed', '_Oman_reversed']","['f', 'm', 'm', 'f']","['p245', 'p307', 'p229', 'p248']","[5, 2, 7, 3]","[90.34149293193902, 87.57049330475357, 91.73820004985969, 89.14911522239515]",3.0,False,6.25,2.217355782608345,2.1873462200164795,0.7429009193054137
0,,sub_117,2024-07-22 17:11:23,3,distance,cathedral,numerosity_judgement,3,23,5,countries_reversed,"['_Oman_reversed', '_Syria_reversed', '_Yemen_reversed', '_Cuba_reversed', '_Britain_reversed']","['m', 'm', 'f', 'f', 'm']","['p307', 'p256', 'p248', 'p245', 'p229']","[5, 3, 0, 2, 4]","[90.34149293193902, 89.14911522239515, 84.40078082039426, 87.57049330475357, 89.31368318402099]",2.0,False,4.8,1.9235384061671346,3.2497718334198,0.736715469299739
0,,sub_117,2024-07-22 17:11:26,3,distance,cathedral,numerosity_judgement,3,24,6,countries_reversed,"['_Cuba_reversed', '_Mali_reversed', '_Oman_reversed', '_Japan_reversed', '_Togo_reversed', '_Britain_reversed']","['m', 'm', 'f', 'm', 'f', 'f']","['p229', 'p307', 'p245', 'p256', 'p248', 'p284']","[10, 5, 7, 8, 0, 6]","[93.00003341222717, 90.34149293193902, 91.73820004985969, 92.0152836843556, 84.40078082039426, 91.58892582949886]",3.0,False,8.0,3.40587727318528,1.9373643398284912,0.7385767790262172
0,,sub_117,2024-07-22 17:11:29,3,distance,cathedral,numerosity_judgement,3,25,4,countries_reversed,"['_Britain_reversed', '_Togo_reversed', '_Cuba_reversed', '_Yemen_reversed']","['f', 'm', 'm', 'm']","['p248', 'p307', 'p318', 'p229']","[4, 3, 9, 0]","[89.31368318402099, 89.14911522239515, 92.00610777531934, 84.40078082039426]",2.0,False,6.0,3.7416573867739413,1.6248860359191895,0.8111451594597662
0,,sub_117,2024-07-22 17:11:32,3,distance,cathedral,numerosity_judgement,3,26,3,countries_reversed,"['_Oman_reversed', '_Yemen_reversed', '_Cuba_reversed']","['f', 'm', 'f']","['p284', 'p307', 'p268']","[9, 7, 3]","[92.00610777531934, 91.73820004985969, 89.14911522239515]",2.0,False,8.333333333333334,3.055050463303893,1.7498798370361328,0.5765633866757462
0,,sub_117,2024-07-22 17:11:34,3,distance,cathedral,numerosity_judgement,3,27,5,countries_reversed,"['_Sudan_reversed', '_Britain_reversed', '_Congo_reversed', '_Tonga_reversed', '_Cuba_reversed']","['f', 'f', 'm', 'm', 'f']","['p268', 'p245', 'p318', 'p307', 'p248']","[3, 4, 7, 1, 0]","[89.14911522239515, 89.31368318402099, 91.73820004985969, 86.2038576498559, 84.40078082039426]",2.0,False,5.0,2.7386127875258306,1.2499125003814697,0.9270797866303484
0,,sub_117,2024-07-22 17:11:37,3,distance,cathedral,numerosity_judgement,3,28,2,countries_reversed,"['_Oman_reversed', '_Cuba_reversed']","['f', 'f']","['p245', 'p248']","[6, 7]","[91.58892582949886, 91.73820004985969]",2.0,True,8.5,0.7071067811865476,1.437398910522461,0.630915900578822
0,,sub_117,2024-07-22 17:11:40,3,distance,cathedral,numerosity_judgement,3,29,6,countries_reversed,"['_Mali_reversed', '_Oman_reversed', '_Togo_reversed', '_Sudan_reversed', '_Tonga_reversed', '_Japan_reversed']","['m', 'f', 'f', 'f', 'm', 'm']","['p229', 'p268', 'p284', 'p245', 'p256', 'p318']","[0, 5, 3, 10, 4, 2]","[84.40078082039426, 90.34149293193902, 89.14911522239515, 93.00003341222717, 89.31368318402099, 87.57049330475357]",3.0,False,6.0,3.40587727318528,1.3749043941497803,0.933571671773919
0,,sub_117,2024-07-22 17:11:44,3,distance,cathedral,numerosity_judgement,3,30,3,countries_reversed,"['_Sudan_reversed', '_Cuba_reversed', '_Oman_reversed']","['m', 'f', 'f']","['p256', 'p284', 'p248']","[8, 3, 6]","[92.0152836843556, 89.14911522239515, 91.58892582949886]",3.0,True,7.666666666666667,2.516611478423583,3.1872527599334717,0.7467029849052321
0,,sub_117,2024-07-22 17:11:47,3,distance,cathedral,numerosity_judgement,3,31,4,countries_reversed,"['_Oman_reversed', '_Yemen_reversed', '_Britain_reversed', '_Mali_reversed']","['m', 'm', 'm', 'm']","['p229', 'p318', 'p307', 'p256']","[5, 7, 9, 6]","[90.34149293193902, 91.73820004985969, 92.00610777531934, 91.58892582949886]",2.0,False,8.75,1.707825127659933,1.8124005794525146,0.6135966405629327
0,,sub_117,2024-07-22 17:11:50,3,distance,cathedral,numerosity_judgement,3,32,6,countries_reversed,"['_Britain_reversed', '_Sudan_reversed', '_Oman_reversed', '_Tonga_reversed', '_Cuba_reversed', '_Japan_reversed']","['m', 'm', 'f', 'f', 'f', 'm']","['p229', 'p307', 'p268', 'p284', 'p248', 'p256']","[10, 7, 8, 0, 9, 4]","[93.00003341222717, 91.73820004985969, 92.0152836843556, 84.40078082039426, 92.00610777531934, 89.31368318402099]",3.0,False,8.333333333333334,3.723797345005051,1.437398910522461,0.7770854613551242
0,,sub_117,2024-07-22 17:11:53,3,distance,cathedral,numerosity_judgement,3,33,2,countries_reversed,"['_Yemen_reversed', '_Sudan_reversed']","['m', 'f']","['p256', 'p268']","[4, 6]","[89.31368318402099, 91.58892582949886]",2.0,True,7.0,1.4142135623730951,1.6248862743377686,0.8659289524458064
0,,sub_117,2024-07-22 17:11:56,3,distance,cathedral,numerosity_judgement,3,34,5,countries_reversed,"['_Belgium_reversed', '_Britain_reversed', '_Japan_reversed', '_Peru_reversed', '_Sudan_reversed']","['f', 'm', 'f', 'f', 'm']","['p284', 'p318', 'p268', 'p248', 'p229']","[5, 1, 3, 0, 9]","[90.34149293193902, 86.2038576498559, 89.14911522239515, 84.40078082039426, 92.00610777531934]",2.0,False,5.6,3.5777087639996634,1.8123729228973389,0.957598456474861
0,,sub_117,2024-07-22 17:12:00,3,distance,cathedral,numerosity_judgement,3,35,4,countries_reversed,"['_Oman_reversed', '_Yemen_reversed', '_Peru_reversed', '_Togo_reversed']","['m', 'f', 'm', 'm']","['p229', 'p268', 'p307', 'p256']","[3, 6, 1, 7]","[89.14911522239515, 91.58892582949886, 86.2038576498559, 91.73820004985969]",2.0,False,6.25,2.753785273643051,2.4998245239257812,0.7116558846895925
0,,sub_117,2024-07-22 17:12:03,3,distance,cathedral,numerosity_judgement,3,36,5,countries_reversed,"['_Mali_reversed', '_Britain_reversed', '_Congo_reversed', '_Tonga_reversed', '_Oman_reversed']","['m', 'm', 'f', 'm', 'm']","['p307', 'p318', 'p284', 'p229', 'p256']","[10, 5, 1, 8, 7]","[93.00003341222717, 90.34149293193902, 86.2038576498559, 92.0152836843556, 91.73820004985969]",2.0,False,8.2,3.420526275297414,2.249842882156372,0.6888888888888889
0,,sub_117,2024-07-22 17:12:06,3,distance,cathedral,numerosity_judgement,3,37,2,countries_reversed,"['_Oman_reversed', '_Tonga_reversed']","['f', 'm']","['p284', 'p229']","[8, 7]","[92.0152836843556, 91.73820004985969]",2.0,True,9.5,0.7071067811865476,1.9374313354492188,0.8801952105322892
0,,sub_117,2024-07-22 17:12:10,3,distance,cathedral,numerosity_judgement,3,38,6,countries_reversed,"['_Oman_reversed', '_Congo_reversed', '_Belgium_reversed', '_Togo_reversed', '_Syria_reversed', '_Mali_reversed']","['m', 'm', 'm', 'f', 'f', 'f']","['p256', 'p307', 'p318', 'p248', 'p268', 'p284']","[1, 9, 4, 7, 0, 10]","[86.2038576498559, 92.00610777531934, 89.31368318402099, 91.73820004985969, 84.40078082039426, 93.00003341222717]",2.0,False,7.166666666666667,4.167333280008532,2.499826192855835,0.9504823516059472
0,,sub_117,2024-07-22 17:12:13,3,distance,cathedral,numerosity_judgement,3,39,3,countries_reversed,"['_Mali_reversed', '_Yemen_reversed', '_Sudan_reversed']","['f', 'f', 'm']","['p268', 'p284', 'p229']","[3, 4, 1]","[89.14911522239515, 89.31368318402099, 86.2038576498559]",2.0,False,4.666666666666667,1.5275252316519465,1.2499127388000488,0.9580410850073772
0,,sub_117,2024-07-22 17:12:15,3,distance,cathedral,numerosity_judgement,3,40,4,countries_reversed,"['_Oman_reversed', '_Peru_reversed', '_Tonga_reversed', '_Mali_reversed']","['m', 'f', 'f', 'm']","['p318', 'p248', 'p245', 'p256']","[3, 9, 6, 0]","[89.14911522239515, 92.00610777531934, 91.58892582949886, 84.40078082039426]",2.0,False,6.5,3.872983346207417,1.5623900890350342,0.7591306321643401
0,,sub_117,2024-07-22 17:12:18,3,distance,cathedral,numerosity_judgement,3,41,6,countries_reversed,"['_Oman_reversed', '_Congo_reversed', '_Yemen_reversed', '_Mali_reversed', '_Tonga_reversed', '_Togo_reversed']","['f', 'm', 'f', 'm', 'f', 'm']","['p284', 'p307', 'p268', 'p256', 'p245', 'p229']","[9, 0, 1, 3, 2, 6]","[92.00610777531934, 84.40078082039426, 86.2038576498559, 89.14911522239515, 87.57049330475357, 91.58892582949886]",2.0,False,5.5,3.391164991562634,1.4374005794525146,0.8922483259561911
0,,sub_117,2024-07-22 17:12:21,3,distance,cathedral,numerosity_judgement,3,42,5,countries_reversed,"['_Togo_reversed', '_Congo_reversed', '_Japan_reversed', '_Tonga_reversed', '_Britain_reversed']","['m', 'f', 'm', 'f', 'f']","['p318', 'p268', 'p229', 'p245', 'p284']","[3, 6, 1, 10, 4]","[89.14911522239515, 91.58892582949886, 86.2038576498559, 93.00003341222717, 89.31368318402099]",2.0,False,6.8,3.420526275297414,1.1874172687530518,0.8526727953694245
0,,sub_117,2024-07-22 17:12:25,3,distance,cathedral,numerosity_judgement,3,43,2,countries_reversed,"['_Sudan_reversed', '_Congo_reversed']","['f', 'm']","['p284', 'p318']","[2, 0]","[87.57049330475357, 84.40078082039426]",2.0,True,3.0,1.4142135623730951,2.687309980392456,0.917444103960958
0,,sub_117,2024-07-22 17:12:28,3,distance,cathedral,numerosity_judgement,3,44,3,countries_reversed,"['_Mali_reversed', '_Syria_reversed', '_Congo_reversed']","['m', 'm', 'm']","['p307', 'p256', 'p318']","[9, 3, 4]","[92.00610777531934, 89.14911522239515, 89.31368318402099]",2.0,False,7.333333333333333,3.2145502536643185,1.6873812675476074,0.8827601861309726
0,,sub_117,2024-07-22 17:12:30,3,distance,cathedral,numerosity_judgement,3,45,4,countries_reversed,"['_Peru_reversed', '_Britain_reversed', '_Yemen_reversed', '_Congo_reversed']","['m', 'f', 'f', 'm']","['p307', 'p245', 'p268', 'p256']","[6, 0, 4, 3]","[91.58892582949886, 84.40078082039426, 89.31368318402099, 89.14911522239515]",3.0,False,5.25,2.5,1.4373993873596191,0.6504256043581886
0,,sub_117,2024-07-22 17:12:34,3,distance,cathedral,numerosity_judgement,3,46,5,countries_reversed,"['_Britain_reversed', '_Syria_reversed', '_Japan_reversed', '_Mali_reversed', '_Yemen_reversed']","['f', 'f', 'm', 'f', 'm']","['p245', 'p268', 'p318', 'p248', 'p256']","[9, 5, 1, 8, 7]","[92.00610777531934, 90.34149293193902, 86.2038576498559, 92.0152836843556, 91.73820004985969]",3.0,False,8.0,3.1622776601683795,2.187344789505005,0.8887980932924753
0,,sub_117,2024-07-22 17:12:37,3,distance,cathedral,numerosity_judgement,3,47,3,countries_reversed,"['_Congo_reversed', '_Cuba_reversed', '_Oman_reversed']","['f', 'f', 'f']","['p245', 'p284', 'p248']","[0, 5, 4]","[84.40078082039426, 90.34149293193902, 89.31368318402099]",2.0,False,5.0,2.6457513110645907,1.8124377727508545,0.7825785949381455
0,,sub_117,2024-07-22 17:12:41,3,distance,cathedral,numerosity_judgement,3,48,6,countries_reversed,"['_Congo_reversed', '_Japan_reversed', '_Syria_reversed', '_Cuba_reversed', '_Belgium_reversed', '_Yemen_reversed']","['f', 'm', 'm', 'f', 'm', 'm']","['p248', 'p256', 'p318', 'p284', 'p229', 'p307']","[10, 3, 6, 4, 5, 8]","[93.00003341222717, 89.14911522239515, 91.58892582949886, 89.31368318402099, 90.34149293193902, 92.0152836843556]",3.0,False,8.0,2.6076809620810595,2.8123042583465576,0.702621722846442
0,,sub_117,2024-07-22 17:12:44,3,distance,cathedral,numerosity_judgement,3,49,2,countries_reversed,"['_Togo_reversed', '_Cuba_reversed']","['f', 'm']","['p268', 'p229']","[8, 10]","[92.0152836843556, 93.00003341222717]",2.0,True,11.0,1.4142135623730951,2.0623557567596436,0.7457042333446828
0,,sub_117,2024-07-22 17:12:49,3,distance,cathedral,numerosity_judgement,3,50,5,countries_reversed,"['_Sudan_reversed', '_Congo_reversed', '_Yemen_reversed', '_Peru_reversed', '_Mali_reversed']","['f', 'm', 'm', 'm', 'f']","['p245', 'p229', 'p318', 'p256', 'p284']","[8, 2, 0, 1, 9]","[92.0152836843556, 87.57049330475357, 84.40078082039426, 86.2038576498559, 92.00610777531934]",2.0,False,6.0,4.183300132670378,3.4372596740722656,0.9346612189308818
0,,sub_117,2024-07-22 17:12:52,3,distance,cathedral,numerosity_judgement,3,51,2,countries_reversed,"['_Yemen_reversed', '_Oman_reversed']","['f', 'm']","['p268', 'p307']","[6, 5]","[91.58892582949886, 90.34149293193902]",2.0,True,7.5,0.7071067811865476,2.3123385906219482,0.5917716490750199
0,,sub_117,2024-07-22 17:12:56,3,distance,cathedral,numerosity_judgement,3,52,4,countries_reversed,"['_Cuba_reversed', '_Tonga_reversed', '_Sudan_reversed', '_Oman_reversed']","['f', 'm', 'f', 'f']","['p248', 'p318', 'p245', 'p268']","[8, 0, 4, 10]","[92.0152836843556, 84.40078082039426, 89.31368318402099, 93.00003341222717]",2.0,False,7.5,4.43471156521669,2.0623552799224854,0.7978209056860742
0,,sub_117,2024-07-22 17:13:00,3,distance,cathedral,numerosity_judgement,3,53,3,countries_reversed,"['_Oman_reversed', '_Cuba_reversed', '_Congo_reversed']","['f', 'm', 'f']","['p245', 'p256', 'p248']","[1, 2, 10]","[86.2038576498559, 87.57049330475357, 93.00003341222717]",2.0,False,6.333333333333333,4.932882862316247,3.0623106956481934,0.7942231301781864
0,,sub_117,2024-07-22 17:13:05,3,distance,cathedral,numerosity_judgement,3,54,6,countries_reversed,"['_Tonga_reversed', '_Congo_reversed', '_Yemen_reversed', '_Togo_reversed', '_Belgium_reversed', '_Britain_reversed']","['f', 'f', 'm', 'f', 'm', 'm']","['p248', 'p268', 'p318', 'p284', 'p229', 'p256']","[8, 0, 6, 3, 4, 9]","[92.0152836843556, 84.40078082039426, 91.58892582949886, 89.14911522239515, 89.31368318402099, 92.00610777531934]",2.0,False,7.0,3.3466401061363023,3.9997200965881348,0.9179775280898876
0,,sub_117,2024-07-22 17:13:09,3,distance,cathedral,numerosity_judgement,3,55,4,countries_reversed,"['_Tonga_reversed', '_Togo_reversed', '_Congo_reversed', '_Yemen_reversed']","['f', 'f', 'm', 'f']","['p268', 'p245', 'p307', 'p248']","[8, 10, 1, 5]","[92.0152836843556, 93.00003341222717, 86.2038576498559, 90.34149293193902]",2.0,False,8.0,3.9157800414902435,1.9373648166656494,0.6683690840994212
0,,sub_117,2024-07-22 17:13:14,3,distance,cathedral,numerosity_judgement,3,56,5,countries_reversed,"['_Tonga_reversed', '_Peru_reversed', '_Congo_reversed', '_Cuba_reversed', '_Sudan_reversed']","['f', 'm', 'm', 'm', 'f']","['p248', 'p318', 'p256', 'p307', 'p284']","[6, 0, 10, 2, 1]","[91.58892582949886, 84.40078082039426, 93.00003341222717, 87.57049330475357, 86.2038576498559]",3.0,False,5.8,4.147288270665544,3.624746561050415,0.8041311996368176
0,,sub_117,2024-07-22 17:13:17,3,distance,cathedral,numerosity_judgement,3,57,2,countries_reversed,"['_Tonga_reversed', '_Oman_reversed']","['m', 'm']","['p307', 'p229']","[1, 6]","[86.2038576498559, 91.58892582949886]",2.0,True,5.5,3.5355339059327378,1.8123741149902344,0.6847576892520713
0,,sub_117,2024-07-22 17:13:22,3,distance,cathedral,numerosity_judgement,3,58,6,countries_reversed,"['_Mali_reversed', '_Yemen_reversed', '_Oman_reversed', '_Britain_reversed', '_Cuba_reversed', '_Togo_reversed']","['m', 'f', 'm', 'm', 'f', 'm']","['p307', 'p245', 'p256', 'p318', 'p248', 'p229']","[6, 7, 8, 3, 2, 0]","[91.58892582949886, 91.73820004985969, 92.0152836843556, 89.14911522239515, 87.57049330475357, 84.40078082039426]",3.0,False,6.333333333333333,3.141125063837266,3.8747284412384033,0.6907615480649189
0,,sub_117,2024-07-22 17:13:24,3,distance,cathedral,numerosity_judgement,3,59,3,countries_reversed,"['_Congo_reversed', '_Oman_reversed', '_Peru_reversed']","['m', 'm', 'f']","['p307', 'p256', 'p248']","[6, 5, 4]","[91.58892582949886, 90.34149293193902, 89.31368318402099]",2.0,False,7.0,1.0,1.374903917312622,0.6642151855635001
0,,sub_117,2024-07-22 17:13:27,3,distance,cathedral,numerosity_judgement,3,60,2,countries_reversed,"['_Peru_reversed', '_Oman_reversed']","['m', 'm']","['p307', 'p256']","[3, 5]","[89.14911522239515, 90.34149293193902]",2.0,True,6.0,1.4142135623730951,1.4373996257781982,0.5539098853705595
0,,sub_117,2024-07-22 17:13:30,3,distance,cathedral,numerosity_judgement,3,61,5,countries_reversed,"['_Britain_reversed', '_Oman_reversed', '_Cuba_reversed', '_Congo_reversed', '_Peru_reversed']","['f', 'f', 'f', 'm', 'm']","['p245', 'p268', 'p248', 'p307', 'p256']","[3, 9, 10, 5, 4]","[89.14911522239515, 92.00610777531934, 93.00003341222717, 90.34149293193902, 89.31368318402099]",3.0,False,8.2,3.1144823004794873,1.3124074935913086,0.6833163091590058
0,,sub_117,2024-07-22 17:13:34,3,distance,cathedral,numerosity_judgement,3,62,6,countries_reversed,"['_Peru_reversed', '_Syria_reversed', '_Oman_reversed', '_Congo_reversed', '_Tonga_reversed', '_Togo_reversed']","['f', 'm', 'm', 'm', 'f', 'm']","['p268', 'p318', 'p256', 'p307', 'p284', 'p229']","[10, 1, 5, 6, 7, 9]","[93.00003341222717, 86.2038576498559, 90.34149293193902, 91.58892582949886, 91.73820004985969, 92.00610777531934]",3.0,False,8.333333333333334,3.204163957519444,2.749807119369507,0.8170582226762002
0,,sub_117,2024-07-22 17:13:37,3,distance,cathedral,numerosity_judgement,3,63,3,countries_reversed,"['_Japan_reversed', '_Togo_reversed', '_Syria_reversed']","['m', 'f', 'f']","['p229', 'p268', 'p248']","[0, 10, 7]","[84.40078082039426, 93.00003341222717, 91.73820004985969]",2.0,False,7.666666666666667,5.131601439446884,1.9998576641082764,0.9298717512200658
0,,sub_117,2024-07-22 17:13:41,3,distance,cathedral,numerosity_judgement,3,64,4,countries_reversed,"['_Togo_reversed', '_Peru_reversed', '_Cuba_reversed', '_Belgium_reversed']","['f', 'f', 'm', 'm']","['p248', 'p245', 'p256', 'p229']","[0, 10, 6, 8]","[84.40078082039426, 93.00003341222717, 91.58892582949886, 92.0152836843556]",3.0,False,8.0,4.320493798938574,3.124713659286499,0.8696061741005561
0,,sub_117,2024-07-22 17:13:45,3,distance,cathedral,numerosity_judgement,3,65,6,countries_reversed,"['_Belgium_reversed', '_Yemen_reversed', '_Cuba_reversed', '_Tonga_reversed', '_Peru_reversed', '_Oman_reversed']","['f', 'm', 'm', 'f', 'm', 'm']","['p268', 'p318', 'p229', 'p245', 'p307', 'p256']","[5, 0, 3, 7, 1, 10]","[90.34149293193902, 84.40078082039426, 89.14911522239515, 91.73820004985969, 86.2038576498559, 93.00003341222717]",2.0,False,6.333333333333333,3.777124126457412,2.4998252391815186,0.6814890477811826
0,,sub_117,2024-07-22 17:13:49,3,distance,cathedral,numerosity_judgement,3,66,4,countries_reversed,"['_Cuba_reversed', '_Syria_reversed', '_Tonga_reversed', '_Yemen_reversed']","['f', 'm', 'f', 'f']","['p248', 'p229', 'p268', 'p284']","[3, 9, 5, 8]","[89.14911522239515, 92.00610777531934, 90.34149293193902, 92.0152836843556]",2.0,False,8.25,2.753785273643051,2.1248342990875244,0.8445238905913063
0,,sub_117,2024-07-22 17:13:52,3,distance,cathedral,numerosity_judgement,3,67,3,countries_reversed,"['_Oman_reversed', '_Cuba_reversed', '_Yemen_reversed']","['m', 'm', 'f']","['p256', 'p307', 'p248']","[10, 7, 4]","[93.00003341222717, 91.73820004985969, 89.31368318402099]",2.0,False,9.0,3.0,2.0623717308044434,0.6046419248666439
0,,sub_117,2024-07-22 17:13:57,3,distance,cathedral,numerosity_judgement,3,68,5,countries_reversed,"['_Cuba_reversed', '_Tonga_reversed', '_Syria_reversed', '_Japan_reversed', '_Yemen_reversed']","['m', 'f', 'm', 'f', 'm']","['p307', 'p245', 'p229', 'p268', 'p256']","[8, 6, 10, 4, 3]","[92.0152836843556, 91.58892582949886, 93.00003341222717, 89.31368318402099, 89.14911522239515]",3.0,False,8.2,2.8635642126552705,3.562185525894165,0.788548405402338
0,,sub_117,2024-07-22 17:14:00,3,distance,cathedral,numerosity_judgement,3,69,2,countries_reversed,"['_Sudan_reversed', '_Mali_reversed']","['f', 'm']","['p245', 'p318']","[4, 1]","[89.31368318402099, 86.2038576498559]",2.0,True,4.5,2.1213203435596424,1.8748688697814941,0.9644648734536376
0,,sub_117,2024-07-22 17:14:04,3,distance,cathedral,numerosity_judgement,3,70,4,countries_reversed,"['_Britain_reversed', '_Togo_reversed', '_Syria_reversed', '_Cuba_reversed']","['m', 'f', 'm', 'f']","['p307', 'p245', 'p229', 'p248']","[5, 0, 9, 2]","[90.34149293193902, 84.40078082039426, 92.00610777531934, 87.57049330475357]",2.0,False,6.0,3.9157800414902435,3.3122684955596924,0.9125411417546248
0,,sub_117,2024-07-22 17:14:09,3,distance,cathedral,numerosity_judgement,3,71,6,countries_reversed,"['_Cuba_reversed', '_Yemen_reversed', '_Mali_reversed', '_Oman_reversed', '_Syria_reversed', '_Togo_reversed']","['m', 'f', 'f', 'm', 'f', 'm']","['p318', 'p248', 'p268', 'p307', 'p284', 'p256']","[5, 10, 7, 0, 1, 3]","[90.34149293193902, 93.00003341222717, 91.73820004985969, 84.40078082039426, 86.2038576498559, 89.14911522239515]",2.0,False,6.333333333333333,3.777124126457412,2.812300682067871,0.7903416184315061
0,,sub_117,2024-07-22 17:14:13,3,distance,cathedral,numerosity_judgement,3,72,3,countries_reversed,"['_Cuba_reversed', '_Oman_reversed', '_Yemen_reversed']","['f', 'f', 'm']","['p268', 'p248', 'p307']","[10, 1, 8]","[93.00003341222717, 86.2038576498559, 92.0152836843556]",2.0,False,8.333333333333334,4.725815626252608,2.9997901916503906,0.6884122120077176
0,,sub_117,2024-07-22 17:14:15,3,distance,cathedral,numerosity_judgement,3,73,2,countries_reversed,"['_Mali_reversed', '_Sudan_reversed']","['f', 'f']","['p245', 'p284']","[0, 2]","[84.40078082039426, 87.57049330475357]",2.0,True,3.0,1.4142135623730951,1.3749034404754639,0.9276813074565884
0,,sub_117,2024-07-22 17:14:19,3,distance,cathedral,numerosity_judgement,3,74,5,countries_reversed,"['_Congo_reversed', '_Britain_reversed', '_Mali_reversed', '_Tonga_reversed', '_Yemen_reversed']","['f', 'f', 'm', 'f', 'm']","['p284', 'p268', 'p256', 'p248', 'p229']","[7, 8, 10, 9, 6]","[91.73820004985969, 92.0152836843556, 93.00003341222717, 92.00610777531934, 91.58892582949886]",3.0,False,10.0,1.5811388300841898,2.4373297691345215,0.7088412212007718
0,,sub_117,2024-07-22 17:16:27,3,distance,cathedral,numerosity_judgement,4,0,5,countries_reversed,"['_Mali_reversed', '_Sudan_reversed', '_Oman_reversed', '_Japan_reversed', '_Yemen_reversed']","['f', 'm', 'm', 'f', 'f']","['p245', 'p256', 'p318', 'p284', 'p268']","[4, 5, 7, 1, 3]","[89.31368318402099, 90.34149293193902, 91.73820004985969, 86.2038576498559, 89.14911522239515]",3.0,False,6.0,2.23606797749979,3.8747286796569824,0.7634661218930882
0,,sub_117,2024-07-22 17:16:29,3,distance,cathedral,numerosity_judgement,4,1,3,countries_reversed,"['_Yemen_reversed', '_Congo_reversed', '_Peru_reversed']","['m', 'f', 'm']","['p256', 'p245', 'p307']","[3, 0, 2]","[89.14911522239515, 84.40078082039426, 87.57049330475357]",2.0,False,3.6666666666666665,1.5275252316519468,1.2499117851257324,0.7886505504483032
0,,sub_117,2024-07-22 17:16:32,3,distance,cathedral,numerosity_judgement,4,2,4,countries_reversed,"['_Britain_reversed', '_Peru_reversed', '_Oman_reversed', '_Syria_reversed']","['m', 'f', 'm', 'm']","['p318', 'p245', 'p229', 'p256']","[6, 9, 7, 5]","[91.58892582949886, 92.00610777531934, 91.73820004985969, 90.34149293193902]",2.0,False,8.75,1.707825127659933,1.9998624324798584,0.6560549313358303
0,,sub_117,2024-07-22 17:16:35,3,distance,cathedral,numerosity_judgement,4,3,2,countries_reversed,"['_Sudan_reversed', '_Peru_reversed']","['f', 'm']","['p245', 'p307']","[1, 3]","[86.2038576498559, 89.14911522239515]",2.0,True,4.0,1.4142135623730951,1.624889612197876,0.7963000794461469
0,,sub_117,2024-07-22 17:16:38,3,distance,cathedral,numerosity_judgement,4,4,6,countries_reversed,"['_Tonga_reversed', '_Syria_reversed', '_Oman_reversed', '_Peru_reversed', '_Japan_reversed', '_Sudan_reversed']","['m', 'm', 'm', 'f', 'f', 'm']","['p318', 'p307', 'p229', 'p284', 'p268', 'p256']","[1, 8, 2, 9, 0, 3]","[86.2038576498559, 92.0152836843556, 87.57049330475357, 92.00610777531934, 84.40078082039426, 89.14911522239515]",2.0,False,5.833333333333333,3.763863263545405,1.812373399734497,0.9075814323005336
0,,sub_117,2024-07-22 17:16:42,3,distance,cathedral,numerosity_judgement,4,5,4,countries_reversed,"['_Japan_reversed', '_Yemen_reversed', '_Cuba_reversed', '_Sudan_reversed']","['f', 'f', 'm', 'f']","['p245', 'p268', 'p229', 'p284']","[3, 7, 0, 10]","[89.14911522239515, 91.73820004985969, 84.40078082039426, 93.00003341222717]",2.0,False,7.0,4.396968652757639,1.9373645782470703,0.937271592327772
0,,sub_117,2024-07-22 17:16:45,3,distance,cathedral,numerosity_judgement,4,6,2,countries_reversed,"['_Sudan_reversed', '_Belgium_reversed']","['m', 'f']","['p256', 'p245']","[8, 2]","[92.0152836843556, 87.57049330475357]",2.0,True,7.0,4.242640687119285,1.8123719692230225,0.7544773578481444
0,,sub_117,2024-07-22 17:16:48,3,distance,cathedral,numerosity_judgement,4,7,3,countries_reversed,"['_Britain_reversed', '_Mali_reversed', '_Yemen_reversed']","['m', 'm', 'f']","['p318', 'p307', 'p284']","[3, 5, 8]","[89.14911522239515, 90.34149293193902, 92.0152836843556]",2.0,False,7.333333333333333,2.516611478423583,2.3123393058776855,0.7142889569855863
0,,sub_117,2024-07-22 17:16:53,3,distance,cathedral,numerosity_judgement,4,8,5,countries_reversed,"['_Britain_reversed', '_Yemen_reversed', '_Belgium_reversed', '_Peru_reversed', '_Cuba_reversed']","['f', 'f', 'm', 'm', 'm']","['p248', 'p245', 'p318', 'p229', 'p307']","[4, 8, 7, 10, 6]","[89.31368318402099, 92.0152836843556, 91.73820004985969, 93.00003341222717, 91.58892582949886]",2.0,False,9.0,2.23606797749979,3.312267780303955,0.8366133242537737
0,,sub_117,2024-07-22 17:16:56,3,distance,cathedral,numerosity_judgement,4,9,6,countries_reversed,"['_Mali_reversed', '_Yemen_reversed', '_Belgium_reversed', '_Tonga_reversed', '_Peru_reversed', '_Togo_reversed']","['f', 'm', 'm', 'f', 'f', 'm']","['p245', 'p318', 'p256', 'p284', 'p268', 'p229']","[5, 0, 3, 8, 10, 6]","[90.34149293193902, 84.40078082039426, 89.14911522239515, 92.0152836843556, 93.00003341222717, 91.58892582949886]",2.0,False,7.333333333333333,3.559026084010437,2.1248512268066406,0.753183520599251
0,,sub_117,2024-07-22 17:17:01,3,distance,cathedral,numerosity_judgement,4,10,5,countries_reversed,"['_Togo_reversed', '_Belgium_reversed', '_Britain_reversed', '_Cuba_reversed', '_Peru_reversed']","['f', 'f', 'f', 'f', 'm']","['p245', 'p284', 'p248', 'p268', 'p307']","[9, 2, 0, 3, 10]","[92.00610777531934, 87.57049330475357, 84.40078082039426, 89.14911522239515, 93.00003341222717]",2.0,False,6.8,4.43846820423443,3.1872780323028564,0.802247191011236
0,,sub_117,2024-07-22 17:17:05,3,distance,cathedral,numerosity_judgement,4,11,4,countries_reversed,"['_Mali_reversed', '_Togo_reversed', '_Tonga_reversed', '_Sudan_reversed']","['f', 'f', 'f', 'm']","['p268', 'p248', 'p284', 'p229']","[8, 1, 10, 9]","[92.0152836843556, 86.2038576498559, 93.00003341222717, 92.00610777531934]",2.0,False,9.0,4.08248290463863,3.4997575283050537,0.9487118374758824
0,,sub_117,2024-07-22 17:17:09,3,distance,cathedral,numerosity_judgement,4,12,3,countries_reversed,"['_Oman_reversed', '_Yemen_reversed', '_Congo_reversed']","['f', 'f', 'f']","['p245', 'p284', 'p268']","[5, 7, 10]","[90.34149293193902, 91.73820004985969, 93.00003341222717]",2.0,False,9.333333333333334,2.516611478423583,2.0623550415039062,0.70127113834979
0,,sub_117,2024-07-22 17:17:13,3,distance,cathedral,numerosity_judgement,4,13,6,countries_reversed,"['_Cuba_reversed', '_Yemen_reversed', '_Japan_reversed', '_Britain_reversed', '_Togo_reversed', '_Peru_reversed']","['f', 'm', 'm', 'm', 'f', 'f']","['p245', 'p256', 'p229', 'p307', 'p284', 'p248']","[7, 8, 2, 3, 4, 10]","[91.73820004985969, 92.0152836843556, 87.57049330475357, 89.14911522239515, 89.31368318402099, 93.00003341222717]",2.0,False,7.666666666666667,3.141125063837266,2.8783955574035645,0.7373283395755306
0,,sub_117,2024-07-22 17:17:16,3,distance,cathedral,numerosity_judgement,4,14,2,countries_reversed,"['_Oman_reversed', '_Cuba_reversed']","['m', 'f']","['p256', 'p245']","[9, 5]","[92.00610777531934, 90.34149293193902]",2.0,True,9.0,2.8284271247461903,1.6248862743377686,0.6623992736352287
0,,sub_117,2024-07-22 17:17:19,3,distance,cathedral,numerosity_judgement,4,15,5,countries_reversed,"['_Britain_reversed', '_Togo_reversed', '_Oman_reversed', '_Cuba_reversed', '_Syria_reversed']","['m', 'm', 'm', 'f', 'f']","['p256', 'p229', 'p307', 'p268', 'p248']","[0, 1, 9, 6, 2]","[84.40078082039426, 86.2038576498559, 92.00610777531934, 91.58892582949886, 87.57049330475357]",2.0,False,5.6,3.7815340802378072,1.8123705387115479,0.6839859266825559
0,,sub_117,2024-07-22 17:17:21,3,distance,cathedral,numerosity_judgement,4,16,2,countries_reversed,"['_Yemen_reversed', '_Sudan_reversed']","['m', 'm']","['p307', 'p229']","[1, 2]","[86.2038576498559, 87.57049330475357]",2.0,True,3.5,0.7071067811865476,1.3749289512634277,0.950221314266258
0,,sub_117,2024-07-22 17:17:26,3,distance,cathedral,numerosity_judgement,4,17,3,countries_reversed,"['_Tonga_reversed', '_Yemen_reversed', '_Mali_reversed']","['f', 'f', 'm']","['p248', 'p245', 'p318']","[9, 5, 0]","[92.00610777531934, 90.34149293193902, 84.40078082039426]",3.0,True,6.666666666666667,4.509249752822894,2.999790906906128,0.7568380433548972
0,,sub_117,2024-07-22 17:17:29,3,distance,cathedral,numerosity_judgement,4,18,4,countries_reversed,"['_Japan_reversed', '_Togo_reversed', '_Cuba_reversed', '_Yemen_reversed']","['m', 'm', 'f', 'm']","['p256', 'p307', 'p268', 'p318']","[7, 6, 5, 8]","[91.73820004985969, 91.58892582949886, 90.34149293193902, 92.0152836843556]",2.0,False,8.5,1.2909944487358056,1.6873817443847656,0.7112700034048348
0,,sub_117,2024-07-22 17:17:32,3,distance,cathedral,numerosity_judgement,4,19,6,countries_reversed,"['_Syria_reversed', '_Yemen_reversed', '_Oman_reversed', '_Peru_reversed', '_Sudan_reversed', '_Cuba_reversed']","['m', 'f', 'm', 'f', 'f', 'm']","['p256', 'p248', 'p307', 'p268', 'p284', 'p318']","[2, 3, 5, 6, 0, 10]","[87.57049330475357, 89.14911522239515, 90.34149293193902, 91.58892582949886, 84.40078082039426, 93.00003341222717]",2.0,False,6.333333333333333,3.5023801430836525,1.4998958110809326,0.6612870275791624
0,,sub_117,2024-07-22 17:17:35,3,distance,cathedral,numerosity_judgement,4,20,3,countries_reversed,"['_Congo_reversed', '_Syria_reversed', '_Yemen_reversed']","['f', 'm', 'f']","['p245', 'p318', 'p248']","[8, 7, 0]","[92.0152836843556, 91.73820004985969, 84.40078082039426]",2.0,False,7.0,4.358898943540674,2.3123130798339844,0.8473385540801271
0,,sub_117,2024-07-22 17:17:39,3,distance,cathedral,numerosity_judgement,4,21,6,countries_reversed,"['_Yemen_reversed', '_Congo_reversed', '_Tonga_reversed', '_Togo_reversed', '_Britain_reversed', '_Syria_reversed']","['m', 'm', 'f', 'f', 'f', 'm']","['p307', 'p256', 'p245', 'p268', 'p284', 'p318']","[5, 8, 6, 4, 10, 1]","[90.34149293193902, 92.0152836843556, 91.58892582949886, 89.31368318402099, 93.00003341222717, 86.2038576498559]",2.0,False,7.666666666666667,3.141125063837266,2.562252998352051,0.7191578708432641
0,,sub_117,2024-07-22 17:17:43,3,distance,cathedral,numerosity_judgement,4,22,5,countries_reversed,"['_Mali_reversed', '_Oman_reversed', '_Britain_reversed', '_Peru_reversed', '_Yemen_reversed']","['f', 'm', 'm', 'm', 'f']","['p268', 'p256', 'p318', 'p307', 'p245']","[1, 6, 10, 9, 5]","[86.2038576498559, 91.58892582949886, 93.00003341222717, 92.00610777531934, 90.34149293193902]",2.0,False,8.2,3.5637059362410923,2.4373292922973633,0.6607536034502327
0,,sub_117,2024-07-22 17:17:47,3,distance,cathedral,numerosity_judgement,4,23,4,countries_reversed,"['_Oman_reversed', '_Tonga_reversed', '_Peru_reversed', '_Togo_reversed']","['f', 'f', 'm', 'f']","['p284', 'p268', 'p229', 'p248']","[9, 5, 3, 8]","[92.00610777531934, 90.34149293193902, 89.14911522239515, 92.0152836843556]",2.0,False,8.25,2.753785273643051,2.8747739791870117,0.9038588128475769
0,,sub_117,2024-07-22 17:17:51,3,distance,cathedral,numerosity_judgement,4,24,2,countries_reversed,"['_Oman_reversed', '_Tonga_reversed']","['m', 'f']","['p229', 'p245']","[6, 5]","[91.58892582949886, 90.34149293193902]",2.0,True,7.5,0.7071067811865476,2.749807596206665,0.6289183974577233
0,,sub_117,2024-07-22 17:17:54,3,distance,cathedral,numerosity_judgement,4,25,3,countries_reversed,"['_Yemen_reversed', '_Oman_reversed', '_Tonga_reversed']","['m', 'm', 'f']","['p256', 'p307', 'p245']","[2, 5, 10]","[87.57049330475357, 90.34149293193902, 93.00003341222717]",2.0,False,7.666666666666667,4.041451884327381,2.1873462200164795,0.5832936102599023
0,,sub_117,2024-07-22 17:17:57,3,distance,cathedral,numerosity_judgement,4,26,6,countries_reversed,"['_Togo_reversed', '_Oman_reversed', '_Tonga_reversed', '_Sudan_reversed', '_Britain_reversed', '_Japan_reversed']","['m', 'm', 'f', 'f', 'm', 'f']","['p318', 'p229', 'p284', 'p248', 'p307', 'p245']","[3, 8, 4, 1, 6, 0]","[89.14911522239515, 92.0152836843556, 89.31368318402099, 86.2038576498559, 91.58892582949886, 84.40078082039426]",3.0,False,5.666666666666667,3.011090610836324,1.2499127388000488,0.939779820678697
0,,sub_117,2024-07-22 17:17:59,3,distance,cathedral,numerosity_judgement,4,27,2,countries_reversed,"['_Sudan_reversed', '_Belgium_reversed']","['f', 'f']","['p248', 'p284']","[0, 7]","[84.40078082039426, 91.73820004985969]",2.0,True,5.5,4.949747468305833,1.312408685684204,0.9594143684031324
0,,sub_117,2024-07-22 17:18:03,3,distance,cathedral,numerosity_judgement,4,28,4,countries_reversed,"['_Togo_reversed', '_Yemen_reversed', '_Tonga_reversed', '_Britain_reversed']","['m', 'f', 'm', 'f']","['p229', 'p268', 'p256', 'p245']","[10, 1, 4, 3]","[93.00003341222717, 86.2038576498559, 89.31368318402099, 89.14911522239515]",2.0,False,6.5,3.872983346207417,2.687286853790283,0.8186811939620928
0,,sub_117,2024-07-22 17:18:07,3,distance,cathedral,numerosity_judgement,4,29,5,countries_reversed,"['_Yemen_reversed', '_Oman_reversed', '_Mali_reversed', '_Congo_reversed', '_Togo_reversed']","['f', 'm', 'f', 'm', 'm']","['p268', 'p256', 'p284', 'p229', 'p307']","[4, 9, 6, 1, 7]","[89.31368318402099, 92.00610777531934, 91.58892582949886, 86.2038576498559, 91.73820004985969]",2.0,False,7.4,3.0495901363953815,2.749809503555298,0.7046305754170923
0,,sub_117,2024-07-22 17:18:10,3,distance,cathedral,numerosity_judgement,4,30,2,countries_reversed,"['_Oman_reversed', '_Peru_reversed']","['m', 'm']","['p229', 'p318']","[9, 7]","[92.00610777531934, 91.73820004985969]",2.0,True,10.0,1.4142135623730951,1.4373981952667236,0.6950289410963568
0,,sub_117,2024-07-22 17:18:14,3,distance,cathedral,numerosity_judgement,4,31,5,countries_reversed,"['_Tonga_reversed', '_Peru_reversed', '_Congo_reversed', '_Oman_reversed', '_Yemen_reversed']","['f', 'f', 'm', 'm', 'f']","['p284', 'p245', 'p256', 'p318', 'p268']","[2, 0, 3, 5, 10]","[87.57049330475357, 84.40078082039426, 89.14911522239515, 90.34149293193902, 93.00003341222717]",2.0,False,6.0,3.8078865529319543,2.187375068664551,0.7484734990352968
0,,sub_117,2024-07-22 17:18:17,3,distance,cathedral,numerosity_judgement,4,32,6,countries_reversed,"['_Yemen_reversed', '_Congo_reversed', '_Oman_reversed', '_Tonga_reversed', '_Britain_reversed', '_Togo_reversed']","['m', 'f', 'f', 'm', 'm', 'f']","['p307', 'p248', 'p245', 'p256', 'p229', 'p268']","[0, 10, 9, 5, 8, 7]","[84.40078082039426, 93.00003341222717, 92.00610777531934, 90.34149293193902, 92.0152836843556, 91.73820004985969]",2.0,False,8.5,3.6193922141707713,1.6873817443847656,0.8181250709340597
0,,sub_117,2024-07-22 17:18:19,3,distance,cathedral,numerosity_judgement,4,33,3,countries_reversed,"['_Belgium_reversed', '_Peru_reversed', '_Oman_reversed']","['m', 'm', 'f']","['p307', 'p318', 'p248']","[2, 10, 4]","[87.57049330475357, 93.00003341222717, 89.31368318402099]",2.0,False,7.333333333333333,4.163331998932266,1.5623908042907715,0.8297355578254455
0,,sub_117,2024-07-22 17:18:22,3,distance,cathedral,numerosity_judgement,4,34,4,countries_reversed,"['_Japan_reversed', '_Peru_reversed', '_Belgium_reversed', '_Sudan_reversed']","['m', 'm', 'f', 'f']","['p318', 'p307', 'p268', 'p245']","[3, 8, 9, 1]","[89.14911522239515, 92.0152836843556, 92.00610777531934, 86.2038576498559]",2.0,False,7.25,3.8622100754188224,1.6248862743377686,0.89056860742254
