,event_id,timestamp,subject_id,session_index,plane,setup,task,block,trial_index,stim_type,headpose_offset_azi,headpose_offset_ele,stim_filename,stim_level,mgb_level,fluctuation,speaker_id,speaker_proc,speaker_chan,stim_azi,stim_ele,stim_dist,resp_azi,resp_ele,resp_dist,reaction_time
0,,2024-08-07 11:35:48,sub_103_collocated,3,distance,cathedral,localisation_accuracy,1,0,pinknoise,,,pinknoise_3.wav,90.15218068657028,30,-0.2694459093300029,5,RX81,6,0.0,0.0,7.0,0,0,8.263929618768328,3.452885389328003
0,,2024-08-07 11:35:52,sub_103_collocated,3,distance,cathedral,localisation_accuracy,1,1,pinknoise,,,pinknoise_0.wav,87.60002412473773,30,0.04278707410136029,2,RX81,3,0.0,0.0,4.0,0,0,6.049853372434018,2.2029716968536377
0,,2024-08-07 11:35:56,sub_103_collocated,3,distance,cathedral,localisation_accuracy,1,2,pinknoise,,,pinknoise_0.wav,93.34303859991314,30,0.4861099897337068,10,RX81,11,0.0,0.0,12.0,0,0,9.436950146627566,2.187361001968384
0,,2024-08-07 11:36:00,sub_103_collocated,3,distance,cathedral,localisation_accuracy,1,3,pinknoise,,,pinknoise_3.wav,84.2346527470348,30,-0.2459411895637118,0,RX81,1,0.0,0.0,2.0,0,0,3.7331378299120237,2.7341854572296143
0,,2024-08-07 11:36:04,sub_103_collocated,3,distance,cathedral,localisation_accuracy,1,4,pinknoise,,,pinknoise_1.wav,91.84161067907651,30,0.14320206405996505,7,RX81,8,0.0,0.0,9.0,0,0,8.219941348973608,2.6248176097869873
0,,2024-08-07 11:36:08,sub_103_collocated,3,distance,cathedral,localisation_accuracy,1,5,pinknoise,,,pinknoise_3.wav,91.59460833294014,30,0.008100664654715928,6,RX81,7,0.0,0.0,8.0,0,0,9.52492668621701,1.8748693466186523
0,,2024-08-07 11:36:12,sub_103_collocated,3,distance,cathedral,localisation_accuracy,1,6,pinknoise,,,pinknoise_8.wav,92.10751308967218,30,0.1305608345346837,8,RX81,9,0.0,0.0,10.0,0,0,10.448680351906159,2.3592112064361572
0,,2024-08-07 11:36:16,sub_103_collocated,3,distance,cathedral,localisation_accuracy,1,7,pinknoise,,,pinknoise_6.wav,88.91390806060768,30,-0.333159967597067,3,RX81,4,0.0,0.0,5.0,0,0,6.137829912023461,2.5310733318328857
0,,2024-08-07 11:36:20,sub_103_collocated,3,distance,cathedral,localisation_accuracy,1,8,pinknoise,,,pinknoise_7.wav,89.37394858112535,30,0.08057962729952284,4,RX81,5,0.0,0.0,6.0,0,0,8.87976539589443,1.9061174392700195
0,,2024-08-07 11:36:24,sub_103_collocated,3,distance,cathedral,localisation_accuracy,1,9,pinknoise,,,pinknoise_6.wav,91.731973845012,30,-0.3829201131913461,9,RX81,10,0.0,0.0,11.0,0,0,10.316715542521996,2.296715021133423
0,,2024-08-07 11:36:28,sub_103_collocated,3,distance,cathedral,localisation_accuracy,1,10,pinknoise,,,pinknoise_7.wav,86.28411769444904,30,0.11766549041346397,1,RX81,2,0.0,0.0,3.0,0,0,5.111436950146628,1.7967503070831299
0,,2024-08-07 11:36:31,sub_103_collocated,3,distance,cathedral,localisation_accuracy,1,11,pinknoise,,,pinknoise_7.wav,92.05646653346722,30,0.058228782501727805,8,RX81,9,0.0,0.0,10.0,0,0,8.63049853372434,2.0467331409454346
0,,2024-08-07 11:36:35,sub_103_collocated,3,distance,cathedral,localisation_accuracy,1,12,pinknoise,,,pinknoise_7.wav,92.92858830755412,30,-0.10027310578365434,10,RX81,11,0.0,0.0,12.0,0,0,10.404692082111438,1.4842724800109863
0,,2024-08-07 11:36:40,sub_103_collocated,3,distance,cathedral,localisation_accuracy,1,13,pinknoise,,,pinknoise_5.wav,84.70495396262893,30,0.45558810467411426,0,RX81,1,0.0,0.0,2.0,0,0,3.2199413489736077,3.8122353553771973
0,,2024-08-07 11:36:44,sub_103_collocated,3,distance,cathedral,localisation_accuracy,1,14,pinknoise,,,pinknoise_7.wav,90.50957300455826,30,0.24127222564439899,5,RX81,6,0.0,0.0,7.0,0,0,6.357771260997067,1.8436226844787598
0,,2024-08-07 11:36:48,sub_103_collocated,3,distance,cathedral,localisation_accuracy,1,15,pinknoise,,,pinknoise_9.wav,91.79479184392072,30,-0.2956076252779857,9,RX81,10,0.0,0.0,11.0,0,0,8.997067448680353,1.812373161315918
0,,2024-08-07 11:36:52,sub_103_collocated,3,distance,cathedral,localisation_accuracy,1,16,pinknoise,,,pinknoise_3.wav,91.69585635991558,30,0.15280153391316342,6,RX81,7,0.0,0.0,8.0,0,0,6.6950146627565985,1.7030065059661865
0,,2024-08-07 11:36:56,sub_103_collocated,3,distance,cathedral,localisation_accuracy,1,17,pinknoise,,,pinknoise_9.wav,87.52828389409801,30,-0.06105125181504689,2,RX81,3,0.0,0.0,4.0,0,0,5.008797653958944,1.9061167240142822
0,,2024-08-07 11:36:59,sub_103_collocated,3,distance,cathedral,localisation_accuracy,1,18,pinknoise,,,pinknoise_8.wav,86.37578742846469,30,0.25262287636636416,1,RX81,2,0.0,0.0,3.0,0,0,3.2199413489736077,1.5311448574066162
0,,2024-08-07 11:37:03,sub_103_collocated,3,distance,cathedral,localisation_accuracy,1,19,pinknoise,,,pinknoise_9.wav,91.42671634881455,30,-0.42724201855999333,7,RX81,8,0.0,0.0,9.0,0,0,7.428152492668623,2.265467643737793
0,,2024-08-07 11:37:07,sub_103_collocated,3,distance,cathedral,localisation_accuracy,1,20,pinknoise,,,pinknoise_7.wav,89.25990073227095,30,0.158216092337788,3,RX81,4,0.0,0.0,5.0,0,0,6.079178885630499,1.6248862743377686
0,,2024-08-07 11:37:11,sub_103_collocated,3,distance,cathedral,localisation_accuracy,1,21,pinknoise,,,pinknoise_9.wav,88.96992063154082,30,-0.4555278361543331,4,RX81,5,0.0,0.0,6.0,0,0,7.618768328445748,2.0154848098754883
0,,2024-08-07 11:37:14,sub_103_collocated,3,distance,cathedral,localisation_accuracy,1,22,pinknoise,,,pinknoise_1.wav,91.67734193522327,30,0.12628920039517466,6,RX81,7,0.0,0.0,8.0,0,0,9.275659824046922,1.4373996257781982
0,,2024-08-07 11:37:17,sub_103_collocated,3,distance,cathedral,localisation_accuracy,1,23,pinknoise,,,pinknoise_0.wav,93.19959087100499,30,0.2818636186281126,10,RX81,11,0.0,0.0,12.0,0,0,10.639296187683286,1.2967865467071533
0,,2024-08-07 11:37:21,sub_103_collocated,3,distance,cathedral,localisation_accuracy,1,24,pinknoise,,,pinknoise_7.wav,87.67682145628069,30,0.15434430926608755,2,RX81,3,0.0,0.0,4.0,0,0,5.2434017595307925,2.3435864448547363
0,,2024-08-07 11:37:24,sub_103_collocated,3,distance,cathedral,localisation_accuracy,1,25,pinknoise,,,pinknoise_0.wav,91.83592560774221,30,0.13531170397706427,7,RX81,8,0.0,0.0,9.0,0,0,8.645161290322582,1.6717565059661865
0,,2024-08-07 11:37:28,sub_103_collocated,3,distance,cathedral,localisation_accuracy,1,26,pinknoise,,,pinknoise_0.wav,86.35050483081677,30,0.2153412247041585,1,RX81,2,0.0,0.0,3.0,0,0,3.7331378299120237,2.531074047088623
0,,2024-08-07 11:37:31,sub_103_collocated,3,distance,cathedral,localisation_accuracy,1,27,pinknoise,,,pinknoise_5.wav,89.66505331352724,30,0.47286800641138227,4,RX81,5,0.0,0.0,6.0,0,0,5.697947214076247,1.390528917312622
0,,2024-08-07 11:37:36,sub_103_collocated,3,distance,cathedral,localisation_accuracy,1,28,pinknoise,,,pinknoise_5.wav,84.28377795242918,30,-0.17342540271470408,0,RX81,1,0.0,0.0,2.0,0,0,2.6920821114369504,3.5622522830963135
0,,2024-08-07 11:37:40,sub_103_collocated,3,distance,cathedral,localisation_accuracy,1,29,pinknoise,,,pinknoise_8.wav,90.4023333220804,30,0.08711085954802411,5,RX81,6,0.0,0.0,7.0,0,0,4.803519061583578,1.45302414894104
0,,2024-08-07 11:37:43,sub_103_collocated,3,distance,cathedral,localisation_accuracy,1,30,pinknoise,,,pinknoise_9.wav,92.21774381040763,30,0.28735009574462844,8,RX81,9,0.0,0.0,10.0,0,0,8.967741935483872,2.374835252761841
0,,2024-08-07 11:37:47,sub_103_collocated,3,distance,cathedral,localisation_accuracy,1,31,pinknoise,,,pinknoise_1.wav,89.02536513820566,30,-0.17574997086064537,3,RX81,4,0.0,0.0,5.0,0,0,6.284457478005866,1.578014612197876
0,,2024-08-07 11:37:49,sub_103_collocated,3,distance,cathedral,localisation_accuracy,1,32,pinknoise,,,pinknoise_1.wav,92.06744894564748,30,0.0863591394766976,9,RX81,10,0.0,0.0,11.0,0,0,8.791788856304986,1.4374001026153564
0,,2024-08-07 11:37:52,sub_103_collocated,3,distance,cathedral,localisation_accuracy,1,33,pinknoise,,,pinknoise_1.wav,92.11461081805763,30,0.14063196206024398,8,RX81,9,0.0,0.0,10.0,0,0,10.243401759530792,1.3749043941497803
0,,2024-08-07 11:37:56,sub_103_collocated,3,distance,cathedral,localisation_accuracy,1,34,pinknoise,,,pinknoise_2.wav,86.12994797460297,30,-0.10794888723106077,1,RX81,2,0.0,0.0,3.0,0,0,4.143695014662757,1.999861478805542
0,,2024-08-07 11:37:59,sub_103_collocated,3,distance,cathedral,localisation_accuracy,1,35,pinknoise,,,pinknoise_2.wav,93.07299999891089,30,0.10275561077004258,10,RX81,11,0.0,0.0,12.0,0,0,8.439882697947215,1.3905296325683594
0,,2024-08-07 11:38:02,sub_103_collocated,3,distance,cathedral,localisation_accuracy,1,36,pinknoise,,,pinknoise_1.wav,91.70816853483883,30,-0.4159406798430314,9,RX81,10,0.0,0.0,11.0,0,0,9.715542521994136,1.3280324935913086
0,,2024-08-07 11:38:05,sub_103_collocated,3,distance,cathedral,localisation_accuracy,1,37,pinknoise,,,pinknoise_7.wav,84.11851626453722,30,-0.4166748486833355,0,RX81,1,0.0,0.0,2.0,0,0,2.3695014662756604,2.5779457092285156
0,,2024-08-07 11:38:09,sub_103_collocated,3,distance,cathedral,localisation_accuracy,1,38,pinknoise,,,pinknoise_6.wav,88.85682361305145,30,-0.4134579117289614,3,RX81,4,0.0,0.0,5.0,0,0,3.703812316715543,1.8279995918273926
0,,2024-08-07 11:38:12,sub_103_collocated,3,distance,cathedral,localisation_accuracy,1,39,pinknoise,,,pinknoise_8.wav,89.2110480751373,30,-0.1367347723898389,4,RX81,5,0.0,0.0,6.0,0,0,5.653958944281525,1.265537977218628
0,,2024-08-07 11:38:15,sub_103_collocated,3,distance,cathedral,localisation_accuracy,1,40,pinknoise,,,pinknoise_4.wav,91.83887743928034,30,0.13940831888345517,7,RX81,8,0.0,0.0,9.0,0,0,9.363636363636365,1.8436212539672852
0,,2024-08-07 11:38:18,sub_103_collocated,3,distance,cathedral,localisation_accuracy,1,41,pinknoise,,,pinknoise_8.wav,87.66398325971937,30,0.13566651093046234,2,RX81,3,0.0,0.0,4.0,0,0,6.343108504398828,1.3436558246612549
0,,2024-08-07 11:38:21,sub_103_collocated,3,distance,cathedral,localisation_accuracy,1,42,pinknoise,,,pinknoise_8.wav,90.27434182888439,30,-0.09585371601042725,5,RX81,6,0.0,0.0,7.0,0,0,8.997067448680353,1.4374024868011475
0,,2024-08-07 11:38:25,sub_103_collocated,3,distance,cathedral,localisation_accuracy,1,43,pinknoise,,,pinknoise_6.wav,91.78560453922267,30,0.28165041310195216,6,RX81,7,0.0,0.0,8.0,0,0,9.671554252199414,1.8279972076416016
0,,2024-08-07 11:38:28,sub_103_collocated,3,distance,cathedral,localisation_accuracy,1,44,pinknoise,,,pinknoise_0.wav,84.49404082540781,30,0.13895488566013714,0,RX81,1,0.0,0.0,2.0,0,0,3.2785923753665696,1.8279976844787598
0,,2024-08-07 11:38:31,sub_103_collocated,3,distance,cathedral,localisation_accuracy,1,45,pinknoise,,,pinknoise_1.wav,90.51983068142806,30,0.25605937690151825,5,RX81,6,0.0,0.0,7.0,0,0,7.809384164222875,1.2499136924743652
0,,2024-08-07 11:38:33,sub_103_collocated,3,distance,cathedral,localisation_accuracy,1,46,pinknoise,,,pinknoise_5.wav,91.50076597683599,30,-0.32622751019335894,7,RX81,8,0.0,0.0,9.0,0,0,9.217008797653959,1.3436570167541504
0,,2024-08-07 11:38:36,sub_103_collocated,3,distance,cathedral,localisation_accuracy,1,47,pinknoise,,,pinknoise_8.wav,91.84966702107779,30,-0.2330300912191383,8,RX81,9,0.0,0.0,10.0,0,0,11.035190615835777,1.4686479568481445
0,,2024-08-07 11:38:40,sub_103_collocated,3,distance,cathedral,localisation_accuracy,1,48,pinknoise,,,pinknoise_2.wav,92.31436410442177,30,0.43650016846019635,9,RX81,10,0.0,0.0,11.0,0,0,11.72434017595308,1.8436219692230225
0,,2024-08-07 11:38:44,sub_103_collocated,3,distance,cathedral,localisation_accuracy,1,49,pinknoise,,,pinknoise_4.wav,87.57409186938062,30,0.005210682170201375,2,RX81,3,0.0,0.0,4.0,0,0,5.639296187683285,2.6091930866241455
0,,2024-08-07 11:38:47,sub_103_collocated,3,distance,cathedral,localisation_accuracy,1,50,pinknoise,,,pinknoise_8.wav,88.99626522583279,30,-0.4208640678706963,4,RX81,5,0.0,0.0,6.0,0,0,7.442815249266863,1.2186644077301025
0,,2024-08-07 11:38:50,sub_103_collocated,3,distance,cathedral,localisation_accuracy,1,51,pinknoise,,,pinknoise_5.wav,93.00021268428948,30,0.00025203058203249196,10,RX81,11,0.0,0.0,12.0,0,0,9.114369501466276,1.624887228012085
0,,2024-08-07 11:38:52,sub_103_collocated,3,distance,cathedral,localisation_accuracy,1,52,pinknoise,,,pinknoise_2.wav,86.00883798925616,30,-0.28399716943081743,1,RX81,2,0.0,0.0,3.0,0,0,3.4692082111436955,1.46864652633667
0,,2024-08-07 11:38:56,sub_103_collocated,3,distance,cathedral,localisation_accuracy,1,53,pinknoise,,,pinknoise_6.wav,91.33099365958711,30,-0.36540076292633905,6,RX81,7,0.0,0.0,8.0,0,0,5.419354838709678,1.7655038833618164
0,,2024-08-07 11:38:59,sub_103_collocated,3,distance,cathedral,localisation_accuracy,1,54,pinknoise,,,pinknoise_2.wav,89.4446142017782,30,0.4238684901959935,3,RX81,4,0.0,0.0,5.0,0,0,6.944281524926687,1.390528678894043
0,,2024-08-07 11:40:09,sub_103_collocated,3,distance,cathedral,localisation_accuracy,2,0,pinknoise,,,pinknoise_6.wav,90.59304022841897,30,0.3618061709255077,5,RX81,6,0.0,0.0,7.0,0,0,8.263929618768328,2.5623221397399902
0,,2024-08-07 11:40:13,sub_103_collocated,3,distance,cathedral,localisation_accuracy,2,1,pinknoise,,,pinknoise_1.wav,87.43552480608002,30,-0.19478086082570667,2,RX81,3,0.0,0.0,4.0,0,0,5.228739002932552,1.6717591285705566
0,,2024-08-07 11:40:16,sub_103_collocated,3,distance,cathedral,localisation_accuracy,2,2,pinknoise,,,pinknoise_5.wav,92.11381931409954,30,0.15180659599083535,9,RX81,10,0.0,0.0,11.0,0,0,9.935483870967742,1.7967498302459717
0,,2024-08-07 11:40:19,sub_103_collocated,3,distance,cathedral,localisation_accuracy,2,3,pinknoise,,,pinknoise_7.wav,92.81088464435682,30,-0.2647396481115548,10,RX81,11,0.0,0.0,12.0,0,0,11.548387096774194,1.5467674732208252
0,,2024-08-07 11:40:22,sub_103_collocated,3,distance,cathedral,localisation_accuracy,2,4,pinknoise,,,pinknoise_9.wav,91.92358658031296,30,0.48082206026791574,6,RX81,7,0.0,0.0,8.0,0,0,9.143695014662757,1.781125783920288
0,,2024-08-07 11:40:26,sub_103_collocated,3,distance,cathedral,localisation_accuracy,2,5,pinknoise,,,pinknoise_6.wav,85.88648314402366,30,-0.4608021585822475,1,RX81,2,0.0,0.0,3.0,0,0,3.4985337243401764,1.7342557907104492
0,,2024-08-07 11:40:29,sub_103_collocated,3,distance,cathedral,localisation_accuracy,2,6,pinknoise,,,pinknoise_9.wav,89.15269852521782,30,0.005104408832597995,3,RX81,4,0.0,0.0,5.0,0,0,5.111436950146628,1.171792984008789
0,,2024-08-07 11:40:32,sub_103_collocated,3,distance,cathedral,localisation_accuracy,2,7,pinknoise,,,pinknoise_5.wav,91.50151804694609,30,-0.3251998087212177,7,RX81,8,0.0,0.0,9.0,0,0,8.087976539589443,1.4842698574066162
0,,2024-08-07 11:40:34,sub_103_collocated,3,distance,cathedral,localisation_accuracy,2,8,pinknoise,,,pinknoise_1.wav,89.20519893985683,30,-0.14450843701031357,4,RX81,5,0.0,0.0,6.0,0,0,6.548387096774194,1.3280315399169922
0,,2024-08-07 11:40:38,sub_103_collocated,3,distance,cathedral,localisation_accuracy,2,9,pinknoise,,,pinknoise_8.wav,84.54589019482589,30,0.2164872376503456,0,RX81,1,0.0,0.0,2.0,0,0,1.9589442815249267,1.546766996383667
0,,2024-08-07 11:40:41,sub_103_collocated,3,distance,cathedral,localisation_accuracy,2,10,pinknoise,,,pinknoise_0.wav,92.05258556615439,30,0.052736629546260905,8,RX81,9,0.0,0.0,10.0,0,0,8.27859237536657,1.885920524597168
0,,2024-08-07 11:40:44,sub_103_collocated,3,distance,cathedral,localisation_accuracy,2,11,pinknoise,,,pinknoise_3.wav,89.0489783258291,30,-0.3513829186567724,4,RX81,5,0.0,0.0,6.0,0,0,7.105571847507331,1.4731571674346924
0,,2024-08-07 11:40:48,sub_103_collocated,3,distance,cathedral,localisation_accuracy,2,12,pinknoise,,,pinknoise_6.wav,91.75918870802617,30,-0.34512496926130476,9,RX81,10,0.0,0.0,11.0,0,0,10.712609970674487,2.1167871952056885
0,,2024-08-07 11:40:53,sub_103_collocated,3,distance,cathedral,localisation_accuracy,2,13,pinknoise,,,pinknoise_0.wav,92.07412307034954,30,0.46768432560558715,7,RX81,8,0.0,0.0,9.0,0,0,11.533724340175954,3.2201547622680664
0,,2024-08-07 11:40:56,sub_103_collocated,3,distance,cathedral,localisation_accuracy,2,14,pinknoise,,,pinknoise_9.wav,87.38300445554357,30,-0.2702337628763082,2,RX81,3,0.0,0.0,4.0,0,0,5.741935483870968,1.8939158916473389
0,,2024-08-07 11:40:59,sub_103_collocated,3,distance,cathedral,localisation_accuracy,2,15,pinknoise,,,pinknoise_7.wav,91.846598316714,30,-0.2373307722866005,8,RX81,9,0.0,0.0,10.0,0,0,10.78592375366569,1.7050230503082275
0,,2024-08-07 11:41:02,sub_103_collocated,3,distance,cathedral,localisation_accuracy,2,16,pinknoise,,,pinknoise_2.wav,90.15924859080856,30,-0.2594298683813092,5,RX81,6,0.0,0.0,7.0,0,0,8.615835777126101,1.4321794509887695
0,,2024-08-07 11:41:06,sub_103_collocated,3,distance,cathedral,localisation_accuracy,2,17,pinknoise,,,pinknoise_2.wav,84.69479693759567,30,0.4402639153815976,0,RX81,1,0.0,0.0,2.0,0,0,2.325513196480939,2.443598508834839
0,,2024-08-07 11:41:10,sub_103_collocated,3,distance,cathedral,localisation_accuracy,2,18,pinknoise,,,pinknoise_4.wav,88.99253924689822,30,-0.22219630144514502,3,RX81,4,0.0,0.0,5.0,0,0,4.847507331378299,1.8939151763916016
0,,2024-08-07 11:41:14,sub_103_collocated,3,distance,cathedral,localisation_accuracy,2,19,pinknoise,,,pinknoise_6.wav,93.1045960418345,30,0.14736004693852822,10,RX81,11,0.0,0.0,12.0,0,0,9.378299120234605,2.760418176651001
0,,2024-08-07 11:41:18,sub_103_collocated,3,distance,cathedral,localisation_accuracy,2,20,pinknoise,,,pinknoise_8.wav,91.45656504119412,30,-0.18806882311415185,6,RX81,7,0.0,0.0,8.0,0,0,6.5043988269794735,1.721013069152832
0,,2024-08-07 11:41:22,sub_103_collocated,3,distance,cathedral,localisation_accuracy,2,21,pinknoise,,,pinknoise_8.wav,86.37491837610483,30,0.2513406109535682,1,RX81,2,0.0,0.0,3.0,0,0,3.674486803519062,3.2121598720550537
0,,2024-08-07 11:41:25,sub_103_collocated,3,distance,cathedral,localisation_accuracy,2,22,pinknoise,,,pinknoise_0.wav,89.522017540999,30,0.2794799518476585,4,RX81,5,0.0,0.0,6.0,0,0,6.636363636363637,1.4981415271759033
0,,2024-08-07 11:41:28,sub_103_collocated,3,distance,cathedral,localisation_accuracy,2,23,pinknoise,,,pinknoise_2.wav,87.33265149767901,30,-0.34239354268596733,2,RX81,3,0.0,0.0,4.0,0,0,7.8240469208211145,1.4141910076141357
0,,2024-08-07 11:41:31,sub_103_collocated,3,distance,cathedral,localisation_accuracy,2,24,pinknoise,,,pinknoise_7.wav,92.09960481257157,30,0.13172903321204066,9,RX81,10,0.0,0.0,11.0,0,0,9.920821114369502,1.3922040462493896
0,,2024-08-07 11:41:34,sub_103_collocated,3,distance,cathedral,localisation_accuracy,2,25,pinknoise,,,pinknoise_0.wav,92.00826949790226,30,0.37542955976878334,7,RX81,8,0.0,0.0,9.0,0,0,10.521994134897362,1.2672719955444336
0,,2024-08-07 11:41:38,sub_103_collocated,3,distance,cathedral,localisation_accuracy,2,26,pinknoise,,,pinknoise_3.wav,91.53686291758865,30,-0.07411630308722628,6,RX81,7,0.0,0.0,8.0,0,0,11.563049853372435,2.2557077407836914
0,,2024-08-07 11:41:41,sub_103_collocated,3,distance,cathedral,localisation_accuracy,2,27,pinknoise,,,pinknoise_1.wav,93.19408098419419,30,0.27404577897587634,10,RX81,11,0.0,0.0,12.0,0,0,12.208211143695015,1.338233232498169
0,,2024-08-07 11:41:44,sub_103_collocated,3,distance,cathedral,localisation_accuracy,2,28,pinknoise,,,pinknoise_1.wav,91.70755074861367,30,-0.43155049096576314,8,RX81,9,0.0,0.0,10.0,0,0,12.208211143695015,1.0314087867736816
0,,2024-08-07 11:41:47,sub_103_collocated,3,distance,cathedral,localisation_accuracy,2,29,pinknoise,,,pinknoise_4.wav,84.20918091396958,30,-0.28347180192011834,0,RX81,1,0.0,0.0,2.0,0,0,2.9266862170087977,2.0918009281158447
0,,2024-08-07 11:41:51,sub_103_collocated,3,distance,cathedral,localisation_accuracy,2,30,pinknoise,,,pinknoise_4.wav,86.50640708220834,30,0.4459682700572263,1,RX81,2,0.0,0.0,3.0,0,0,3.997067448680352,2.397627830505371
0,,2024-08-07 11:41:55,sub_103_collocated,3,distance,cathedral,localisation_accuracy,2,31,pinknoise,,,pinknoise_1.wav,88.94081292878589,30,-0.2952386588394894,3,RX81,4,0.0,0.0,5.0,0,0,4.9501466275659824,2.376638889312744
0,,2024-08-07 11:41:58,sub_103_collocated,3,distance,cathedral,localisation_accuracy,2,32,pinknoise,,,pinknoise_2.wav,90.10798132248547,30,-0.33200508061781386,5,RX81,6,0.0,0.0,7.0,0,0,6.167155425219942,1.6210711002349854
0,,2024-08-07 11:42:01,sub_103_collocated,3,distance,cathedral,localisation_accuracy,2,33,pinknoise,,,pinknoise_1.wav,91.83098919638385,30,-0.25919678803770396,8,RX81,9,0.0,0.0,10.0,0,0,8.29325513196481,1.55710768699646
0,,2024-08-07 11:42:04,sub_103_collocated,3,distance,cathedral,localisation_accuracy,2,34,pinknoise,,,pinknoise_0.wav,89.36655684294354,30,0.07068465210335328,4,RX81,5,0.0,0.0,6.0,0,0,6.768328445747802,1.4411742687225342
0,,2024-08-07 11:42:08,sub_103_collocated,3,distance,cathedral,localisation_accuracy,2,35,pinknoise,,,pinknoise_2.wav,89.18312775185997,30,0.048485808559600385,3,RX81,4,0.0,0.0,5.0,0,0,6.0205278592375375,1.9698703289031982
0,,2024-08-07 11:42:11,sub_103_collocated,3,distance,cathedral,localisation_accuracy,2,36,pinknoise,,,pinknoise_8.wav,91.82672466486733,30,0.34086917804724015,6,RX81,7,0.0,0.0,8.0,0,0,7.692082111436951,1.3950200080871582
0,,2024-08-07 11:42:15,sub_103_collocated,3,distance,cathedral,localisation_accuracy,2,37,pinknoise,,,pinknoise_0.wav,92.67741240546303,30,-0.45014520673751957,10,RX81,11,0.0,0.0,12.0,0,0,9.363636363636365,2.171724319458008
0,,2024-08-07 11:42:19,sub_103_collocated,3,distance,cathedral,localisation_accuracy,2,38,pinknoise,,,pinknoise_1.wav,87.75178737029913,30,0.2636407243526553,2,RX81,3,0.0,0.0,4.0,0,0,4.378299120234605,1.748831033706665
0,,2024-08-07 11:42:22,sub_103_collocated,3,distance,cathedral,localisation_accuracy,2,39,pinknoise,,,pinknoise_6.wav,90.05920042393014,30,-0.4008960918082781,5,RX81,6,0.0,0.0,7.0,0,0,5.81524926686217,1.879119634628296
0,,2024-08-07 11:42:26,sub_103_collocated,3,distance,cathedral,localisation_accuracy,2,40,pinknoise,,,pinknoise_4.wav,91.74237160883729,30,0.005763545477398435,7,RX81,8,0.0,0.0,9.0,0,0,9.686217008797655,2.734184741973877
0,,2024-08-07 11:42:31,sub_103_collocated,3,distance,cathedral,localisation_accuracy,2,41,pinknoise,,,pinknoise_4.wav,91.81309710538513,30,-0.27011623360262393,9,RX81,10,0.0,0.0,11.0,0,0,10.419354838709678,2.870492696762085
0,,2024-08-07 11:42:36,sub_103_collocated,3,distance,cathedral,localisation_accuracy,2,42,pinknoise,,,pinknoise_7.wav,84.66858724308322,30,0.4007562225556096,0,RX81,1,0.0,0.0,2.0,0,0,2.648093841642229,3.577876567840576
0,,2024-08-07 11:42:39,sub_103_collocated,3,distance,cathedral,localisation_accuracy,2,43,pinknoise,,,pinknoise_2.wav,86.12013509651842,30,-0.122251861311096,1,RX81,2,0.0,0.0,3.0,0,0,4.085043988269795,1.8592464923858643
0,,2024-08-07 11:42:43,sub_103_collocated,3,distance,cathedral,localisation_accuracy,2,44,pinknoise,,,pinknoise_8.wav,93.32420761378668,30,0.4592193572786759,10,RX81,11,0.0,0.0,12.0,0,0,8.982404692082111,1.999861478805542
0,,2024-08-07 11:42:46,sub_103_collocated,3,distance,cathedral,localisation_accuracy,2,45,pinknoise,,,pinknoise_9.wav,89.13853952395533,30,-0.2329578574021124,4,RX81,5,0.0,0.0,6.0,0,0,6.636363636363637,1.4373996257781982
0,,2024-08-07 11:42:48,sub_103_collocated,3,distance,cathedral,localisation_accuracy,2,46,pinknoise,,,pinknoise_4.wav,91.79102926926586,30,-0.3008445721292281,9,RX81,10,0.0,0.0,11.0,0,0,9.774193548387098,1.3280322551727295
0,,2024-08-07 11:42:52,sub_103_collocated,3,distance,cathedral,localisation_accuracy,2,47,pinknoise,,,pinknoise_8.wav,85.94008069321274,30,-0.3834825665798549,1,RX81,2,0.0,0.0,3.0,0,0,2.06158357771261,1.578014612197876
0,,2024-08-07 11:42:56,sub_103_collocated,3,distance,cathedral,localisation_accuracy,2,48,pinknoise,,,pinknoise_7.wav,84.14449955690137,30,-0.37856176812108044,0,RX81,1,0.0,0.0,2.0,0,0,1.9442815249266863,3.1716556549072266
0,,2024-08-07 11:43:00,sub_103_collocated,3,distance,cathedral,localisation_accuracy,2,49,pinknoise,,,pinknoise_5.wav,90.66575054565271,30,0.4671976743325481,5,RX81,6,0.0,0.0,7.0,0,0,6.519061583577713,2.077981948852539
0,,2024-08-07 11:43:02,sub_103_collocated,3,distance,cathedral,localisation_accuracy,2,50,pinknoise,,,pinknoise_9.wav,89.4046970156376,30,0.36626263683965854,3,RX81,4,0.0,0.0,5.0,0,0,5.580645161290323,1.2342889308929443
0,,2024-08-07 11:43:06,sub_103_collocated,3,distance,cathedral,localisation_accuracy,2,51,pinknoise,,,pinknoise_5.wav,92.25226773669075,30,0.3366235967940774,8,RX81,9,0.0,0.0,10.0,0,0,8.967741935483872,1.4842712879180908
0,,2024-08-07 11:43:08,sub_103_collocated,3,distance,cathedral,localisation_accuracy,2,52,pinknoise,,,pinknoise_8.wav,91.69286276384284,30,-0.06256794117937403,7,RX81,8,0.0,0.0,9.0,0,0,10.19941348973607,1.2499134540557861
0,,2024-08-07 11:43:12,sub_103_collocated,3,distance,cathedral,localisation_accuracy,2,53,pinknoise,,,pinknoise_7.wav,87.83230866600027,30,0.3814779126953598,2,RX81,3,0.0,0.0,4.0,0,0,6.093841642228739,1.9061155319213867
0,,2024-08-07 11:43:15,sub_103_collocated,3,distance,cathedral,localisation_accuracy,2,54,pinknoise,,,pinknoise_5.wav,91.23653770444673,30,-0.498095996808664,6,RX81,7,0.0,0.0,8.0,0,0,8.90909090909091,1.3280315399169922
0,,2024-08-07 11:43:57,sub_103_collocated,3,distance,cathedral,localisation_accuracy,3,0,babble,,,babble-reversed_n13_p229-eight-p256-nine-p318-four-p245-three-p268-five-p284-two.wav,92.86300204581244,30,-0.19202824984056488,10,RX81,11,0.0,0.0,12.0,0,0,9.87683284457478,3.999722957611084
0,,2024-08-07 11:44:00,sub_103_collocated,3,distance,cathedral,localisation_accuracy,3,1,babble,,,babble-reversed_n13_p229-eight-p256-nine-p318-four-p245-three-p268-five-p284-two.wav,91.98198427456862,30,-0.03389430942521554,9,RX81,10,0.0,0.0,11.0,0,0,11.211143695014664,1.718630313873291
0,,2024-08-07 11:44:03,sub_103_collocated,3,distance,cathedral,localisation_accuracy,3,2,babble,,,babble-reversed_n13_p318-five-p229-four-p256-eight-p284-one-p245-three-p248-two.wav,91.75055439942986,30,-0.37161934702389154,8,RX81,9,0.0,0.0,10.0,0,0,11.768328445747802,1.8123717308044434
0,,2024-08-07 11:44:06,sub_103_collocated,3,distance,cathedral,localisation_accuracy,3,3,babble,,,babble-reversed_n13_p229-two-p307-five-p318-four-p284-one-p248-nine-p268-eight.wav,86.4915697523675,30,0.42394374429020687,1,RX81,2,0.0,0.0,3.0,0,0,5.023460410557185,1.49989652633667
0,,2024-08-07 11:44:09,sub_103_collocated,3,distance,cathedral,localisation_accuracy,3,4,babble,,,babble-reversed_n13_p307-one-p318-five-p229-four-p268-eight-p284-two-p245-three.wav,90.58703530362865,30,0.353118520837185,5,RX81,6,0.0,0.0,7.0,0,0,6.841642228739003,2.1092278957366943
0,,2024-08-07 11:44:14,sub_103_collocated,3,distance,cathedral,localisation_accuracy,3,5,babble,,,babble-reversed_n13_p229-two-p256-three-p318-eight-p284-five-p268-four-p245-one.wav,91.27056047986235,30,-0.4503681425792976,6,RX81,7,0.0,0.0,8.0,0,0,9.290322580645162,2.8747992515563965
0,,2024-08-07 11:44:18,sub_103_collocated,3,distance,cathedral,localisation_accuracy,3,6,babble,,,babble-reversed_n13_p256-eight-p318-two-p307-five-p245-four-p268-nine-p284-one.wav,88.80497090360274,30,-0.4862082328050352,3,RX81,4,0.0,0.0,5.0,0,0,5.653958944281525,2.3123393058776855
0,,2024-08-07 11:44:21,sub_103_collocated,3,distance,cathedral,localisation_accuracy,3,7,babble,,,babble-reversed_n13_p229-five-p256-three-p318-nine-p248-two-p284-four-p268-one.wav,91.953464425451,30,0.29886573195678956,7,RX81,8,0.0,0.0,9.0,0,0,8.747800586510264,1.6092638969421387
0,,2024-08-07 11:44:25,sub_103_collocated,3,distance,cathedral,localisation_accuracy,3,8,babble,,,babble-reversed_n13_p307-five-p229-three-p318-nine-p245-four-p268-eight-p284-two.wav,84.35040856728205,30,-0.07478664030512405,0,RX81,1,0.0,0.0,2.0,0,0,2.8240469208211145,2.015484571456909
0,,2024-08-07 11:44:28,sub_103_collocated,3,distance,cathedral,localisation_accuracy,3,9,babble,,,babble-reversed_n13_p229-five-p318-three-p307-two-p245-four-p284-nine-p248-eight.wav,87.88103274521069,30,0.4530048407943691,2,RX81,3,0.0,0.0,4.0,0,0,4.011730205278592,1.48427152633667
0,,2024-08-07 11:44:31,sub_103_collocated,3,distance,cathedral,localisation_accuracy,3,10,babble,,,babble-reversed_n13_p307-four-p318-three-p256-eight-p284-two-p245-nine-p248-five.wav,89.40403993163406,30,0.12089513405563868,4,RX81,5,0.0,0.0,6.0,0,0,4.671554252199414,1.3749024868011475
0,,2024-08-07 11:44:34,sub_103_collocated,3,distance,cathedral,localisation_accuracy,3,11,babble,,,babble-reversed_n13_p307-two-p256-four-p318-three-p284-eight-p248-five-p245-nine.wav,88.81312209272528,30,-0.47478382333296965,3,RX81,4,0.0,0.0,5.0,0,0,5.15542521994135,1.5623915195465088
0,,2024-08-07 11:44:37,sub_103_collocated,3,distance,cathedral,localisation_accuracy,3,12,babble,,,babble-reversed_n13_p318-three-p229-one-p256-eight-p245-five-p248-four-p284-nine.wav,84.1388463025305,30,-0.3868583102017217,0,RX81,1,0.0,0.0,2.0,0,0,2.5747800586510268,1.5467674732208252
0,,2024-08-07 11:44:40,sub_103_collocated,3,distance,cathedral,localisation_accuracy,3,13,babble,,,babble-reversed_n13_p256-five-p307-nine-p318-three-p284-eight-p268-one-p248-two.wav,91.47721603101179,30,-0.3583904377982269,7,RX81,8,0.0,0.0,9.0,0,0,5.536656891495602,1.6873822212219238
0,,2024-08-07 11:44:44,sub_103_collocated,3,distance,cathedral,localisation_accuracy,3,14,babble,,,babble-reversed_n13_p229-two-p318-eight-p256-three-p268-one-p248-nine-p284-five.wav,92.90925263221128,30,-0.12735302554283268,10,RX81,11,0.0,0.0,12.0,0,0,8.381231671554254,3.1560306549072266
0,,2024-08-07 11:44:48,sub_103_collocated,3,distance,cathedral,localisation_accuracy,3,15,babble,,,babble-reversed_n13_p229-nine-p307-five-p256-two-p248-three-p245-one-p268-eight.wav,91.82852864624863,30,-0.26264218040583087,8,RX81,9,0.0,0.0,10.0,0,0,9.906158357771261,2.202971935272217
0,,2024-08-07 11:44:52,sub_103_collocated,3,distance,cathedral,localisation_accuracy,3,16,babble,,,babble-reversed_n13_p307-five-p229-three-p318-nine-p245-four-p268-eight-p284-two.wav,89.62778707061304,30,0.4223644244272361,4,RX81,5,0.0,0.0,6.0,0,0,6.8269794721407635,2.9529197216033936
0,,2024-08-07 11:44:56,sub_103_collocated,3,distance,cathedral,localisation_accuracy,3,17,babble,,,babble-reversed_n13_p318-nine-p256-five-p307-eight-p268-three-p248-one-p245-four.wav,87.88608040132472,30,0.46042441735699646,2,RX81,3,0.0,0.0,4.0,0,0,5.272727272727273,1.937363624572754
0,,2024-08-07 11:44:59,sub_103_collocated,3,distance,cathedral,localisation_accuracy,3,18,babble,,,babble-reversed_n13_p256-four-p229-eight-p307-five-p248-three-p245-one-p284-two.wav,92.28145077830847,30,0.3895926707978733,9,RX81,10,0.0,0.0,11.0,0,0,8.894428152492669,1.9529874324798584
0,,2024-08-07 11:45:03,sub_103_collocated,3,distance,cathedral,localisation_accuracy,3,19,babble,,,babble-reversed_n13_p256-four-p229-two-p318-five-p268-one-p248-eight-p245-three.wav,85.92214560935017,30,-0.40937814531064354,1,RX81,2,0.0,0.0,3.0,0,0,3.7917888563049855,2.327963352203369
0,,2024-08-07 11:45:06,sub_103_collocated,3,distance,cathedral,localisation_accuracy,3,20,babble,,,babble-reversed_n13_p229-one-p318-nine-p256-four-p284-eight-p268-five-p245-two.wav,90.23346889397887,30,-0.154047099306308,5,RX81,6,0.0,0.0,7.0,0,0,6.812316715542522,1.859246015548706
0,,2024-08-07 11:45:10,sub_103_collocated,3,distance,cathedral,localisation_accuracy,3,21,babble,,,babble-reversed_n13_p229-one-p318-eight-p256-three-p268-nine-p248-five-p284-four.wav,91.39109331371995,30,-0.2806600148721393,6,RX81,7,0.0,0.0,8.0,0,0,9.363636363636365,1.7655022144317627
0,,2024-08-07 11:45:13,sub_103_collocated,3,distance,cathedral,localisation_accuracy,3,22,babble,,,babble-reversed_n13_p229-three-p307-one-p318-two-p245-eight-p268-five-p284-four.wav,91.84309332861889,30,-0.22829703451627748,9,RX81,10,0.0,0.0,11.0,0,0,10.43401759530792,2.3123395442962646
0,,2024-08-07 11:45:16,sub_103_collocated,3,distance,cathedral,localisation_accuracy,3,23,babble,,,babble-reversed_n13_p229-one-p318-nine-p256-four-p284-eight-p268-five-p245-two.wav,91.5935433359344,30,-0.19917852435183392,7,RX81,8,0.0,0.0,9.0,0,0,11.695014662756599,1.3124089241027832
0,,2024-08-07 11:45:20,sub_103_collocated,3,distance,cathedral,localisation_accuracy,3,24,babble,,,babble-reversed_n13_p256-three-p318-one-p307-two-p284-nine-p268-four-p245-eight.wav,89.15243567342102,30,-0.2145409015106844,4,RX81,5,0.0,0.0,6.0,0,0,11.064516129032258,2.499826192855835
0,,2024-08-07 11:45:23,sub_103_collocated,3,distance,cathedral,localisation_accuracy,3,25,babble,,,babble-reversed_n13_p229-two-p307-five-p318-four-p284-one-p248-nine-p268-eight.wav,87.80038779132676,30,0.33470919084553297,2,RX81,3,0.0,0.0,4.0,0,0,6.841642228739003,1.7967514991760254
0,,2024-08-07 11:45:28,sub_103_collocated,3,distance,cathedral,localisation_accuracy,3,26,babble,,,babble-reversed_n13_p318-four-p256-five-p229-three-p284-one-p245-eight-p248-nine.wav,88.8232048226088,30,-0.46064611829823976,3,RX81,4,0.0,0.0,5.0,0,0,7.3695014662756595,2.999790906906128
0,,2024-08-07 11:45:31,sub_103_collocated,3,distance,cathedral,localisation_accuracy,3,27,babble,,,babble-reversed_n13_p307-one-p318-five-p229-four-p268-eight-p284-two-p245-three.wav,91.70014749845178,30,0.15894969929586633,6,RX81,7,0.0,0.0,8.0,0,0,9.348973607038124,1.21866774559021
0,,2024-08-07 11:45:33,sub_103_collocated,3,distance,cathedral,localisation_accuracy,3,28,babble,,,babble-reversed_n13_p229-one-p318-eight-p256-three-p268-nine-p248-five-p284-four.wav,92.14915401374648,30,0.18969416303453313,8,RX81,9,0.0,0.0,10.0,0,0,10.316715542521996,1.421776294708252
0,,2024-08-07 11:45:38,sub_103_collocated,3,distance,cathedral,localisation_accuracy,3,29,babble,,,babble-reversed_n13_p256-nine-p307-four-p229-one-p284-three-p248-two-p245-five.wav,90.41134133040796,30,0.10002994513612562,5,RX81,6,0.0,0.0,7.0,0,0,10.727272727272728,2.734184503555298
0,,2024-08-07 11:45:41,sub_103_collocated,3,distance,cathedral,localisation_accuracy,3,30,babble,,,babble-reversed_n13_p307-two-p229-one-p256-five-p248-nine-p284-three-p268-eight.wav,86.40136799062165,30,0.2903907228513358,1,RX81,2,0.0,0.0,3.0,0,0,4.143695014662757,1.8128852844238281
0,,2024-08-07 11:45:44,sub_103_collocated,3,distance,cathedral,localisation_accuracy,3,31,babble,,,babble-reversed_n13_p307-five-p229-three-p318-nine-p245-four-p268-eight-p284-two.wav,84.6081504075681,30,0.30985091278541543,0,RX81,1,0.0,0.0,2.0,0,0,2.897360703812317,1.7811253070831299
0,,2024-08-07 11:45:47,sub_103_collocated,3,distance,cathedral,localisation_accuracy,3,32,babble,,,babble-reversed_n13_p229-two-p307-five-p318-four-p284-one-p248-nine-p268-eight.wav,92.85404514417493,30,-0.20453707835128787,10,RX81,11,0.0,0.0,12.0,0,0,6.6950146627565985,1.4686484336853027
0,,2024-08-07 11:45:51,sub_103_collocated,3,distance,cathedral,localisation_accuracy,3,33,babble,,,babble-reversed_n13_p229-five-p256-one-p318-three-p248-nine-p268-four-p284-eight.wav,89.44575290707368,30,0.1768703324424763,4,RX81,5,0.0,0.0,6.0,0,0,10.111436950146627,2.09360408782959
0,,2024-08-07 11:45:55,sub_103_collocated,3,distance,cathedral,localisation_accuracy,3,34,babble,,,babble-reversed_n13_p256-four-p307-eight-p318-two-p248-three-p284-nine-p268-one.wav,84.46490488527141,30,0.09547413415512906,0,RX81,1,0.0,0.0,2.0,0,0,2.6334310850439886,1.7342541217803955
0,,2024-08-07 11:45:57,sub_103_collocated,3,distance,cathedral,localisation_accuracy,3,35,babble,,,babble-reversed_n13_p307-one-p318-five-p229-four-p268-eight-p284-two-p245-three.wav,89.29587438461382,30,0.2097703886513358,3,RX81,4,0.0,0.0,5.0,0,0,6.343108504398828,1.4217755794525146
0,,2024-08-07 11:46:00,sub_103_collocated,3,distance,cathedral,localisation_accuracy,3,36,babble,,,babble-reversed_n13_p256-two-p307-five-p318-nine-p248-eight-p245-four-p284-one.wav,92.01125119164418,30,-0.005695509095600904,8,RX81,9,0.0,0.0,10.0,0,0,8.894428152492669,1.4373996257781982
0,,2024-08-07 11:46:03,sub_103_collocated,3,distance,cathedral,localisation_accuracy,3,37,babble,,,babble-reversed_n13_p318-five-p229-four-p256-eight-p284-one-p245-three-p248-two.wav,91.89551270249044,30,0.44019264821377024,6,RX81,7,0.0,0.0,8.0,0,0,9.173020527859238,1.6405093669891357
0,,2024-08-07 11:46:06,sub_103_collocated,3,distance,cathedral,localisation_accuracy,3,38,babble,,,babble-reversed_n13_p256-eight-p318-two-p307-five-p245-four-p268-nine-p284-one.wav,90.54243288410913,30,0.28866754027392405,5,RX81,6,0.0,0.0,7.0,0,0,7.560117302052786,1.593639850616455
0,,2024-08-07 11:46:10,sub_103_collocated,3,distance,cathedral,localisation_accuracy,3,39,babble,,,babble-reversed_n13_p229-five-p256-one-p318-three-p248-nine-p268-four-p284-eight.wav,91.85295693811631,30,-0.21453284719011423,9,RX81,10,0.0,0.0,11.0,0,0,9.304985337243403,2.0779809951782227
0,,2024-08-07 11:46:14,sub_103_collocated,3,distance,cathedral,localisation_accuracy,3,40,babble,,,babble-reversed_n13_p229-two-p307-five-p318-four-p284-one-p248-nine-p268-eight.wav,92.82911738509691,30,-0.23932250125715104,10,RX81,11,0.0,0.0,12.0,0,0,11.870967741935484,2.062356472015381
0,,2024-08-07 11:46:17,sub_103_collocated,3,distance,cathedral,localisation_accuracy,3,41,babble,,,babble-reversed_n13_p307-four-p318-three-p256-eight-p284-two-p245-nine-p248-five.wav,86.39857236997528,30,0.28626089772685115,1,RX81,2,0.0,0.0,3.0,0,0,5.609970674486804,1.6405105590820312
0,,2024-08-07 11:46:21,sub_103_collocated,3,distance,cathedral,localisation_accuracy,3,42,babble,,,babble-reversed_n13_p229-one-p318-eight-p256-three-p268-nine-p248-five-p284-four.wav,87.3584040209467,30,-0.3055100441099742,2,RX81,3,0.0,0.0,4.0,0,0,7.472140762463344,2.35921049118042
0,,2024-08-07 11:46:24,sub_103_collocated,3,distance,cathedral,localisation_accuracy,3,43,babble,,,babble-reversed_n13_p229-one-p318-nine-p256-four-p284-eight-p268-five-p245-two.wav,91.66817317611965,30,-0.096586028175638,7,RX81,8,0.0,0.0,9.0,0,0,10.18475073313783,1.4998958110809326
0,,2024-08-07 11:46:28,sub_103_collocated,3,distance,cathedral,localisation_accuracy,3,44,babble,,,babble-reversed_n13_p229-five-p318-three-p307-two-p245-four-p284-nine-p248-eight.wav,92.02713527136424,30,0.01674549062253472,8,RX81,9,0.0,0.0,10.0,0,0,11.0791788856305,3.2029027938842773
0,,2024-08-07 11:46:32,sub_103_collocated,3,distance,cathedral,localisation_accuracy,3,45,babble,,,babble-reversed_n13_p256-three-p318-one-p307-two-p284-nine-p268-four-p245-eight.wav,92.77223859558411,30,-0.3185419917233331,10,RX81,11,0.0,0.0,12.0,0,0,10.639296187683286,2.3748340606689453
0,,2024-08-07 11:46:35,sub_103_collocated,3,distance,cathedral,localisation_accuracy,3,46,babble,,,babble-reversed_n13_p318-five-p256-nine-p307-two-p245-eight-p248-one-p284-four.wav,89.16275003131116,30,0.019427397832053495,3,RX81,4,0.0,0.0,5.0,0,0,6.563049853372435,1.624887466430664
0,,2024-08-07 11:46:38,sub_103_collocated,3,distance,cathedral,localisation_accuracy,3,47,babble,,,babble-reversed_n13_p229-five-p318-two-p307-eight-p268-three-p248-four-p245-one.wav,91.33376347134819,30,-0.3615006340880488,6,RX81,7,0.0,0.0,8.0,0,0,9.217008797653959,1.0936734676361084
0,,2024-08-07 11:46:40,sub_103_collocated,3,distance,cathedral,localisation_accuracy,3,48,babble,,,babble-reversed_n13_p256-four-p229-eight-p307-five-p248-three-p245-one-p284-two.wav,92.14989071427141,30,0.20281645195878273,9,RX81,10,0.0,0.0,11.0,0,0,10.961876832844576,1.3592808246612549
0,,2024-08-07 11:46:44,sub_103_collocated,3,distance,cathedral,localisation_accuracy,3,49,babble,,,babble-reversed_n13_p229-nine-p307-five-p256-two-p248-three-p245-one-p268-eight.wav,86.21571128271998,30,0.01734907915299988,1,RX81,2,0.0,0.0,3.0,0,0,4.055718475073314,1.7498772144317627
0,,2024-08-07 11:46:47,sub_103_collocated,3,distance,cathedral,localisation_accuracy,3,50,babble,,,babble-reversed_n13_p229-one-p318-eight-p256-three-p268-two-p245-five-p248-nine.wav,90.34937468207954,30,0.01127080074554565,5,RX81,6,0.0,0.0,7.0,0,0,7.486803519061585,1.7498779296875
0,,2024-08-07 11:46:50,sub_103_collocated,3,distance,cathedral,localisation_accuracy,3,51,babble,,,babble-reversed_n13_p256-five-p307-nine-p318-three-p284-eight-p268-one-p248-two.wav,84.06871702222514,30,-0.4895848786643826,0,RX81,1,0.0,0.0,2.0,0,0,2.7653958944281527,1.3280341625213623
0,,2024-08-07 11:46:53,sub_103_collocated,3,distance,cathedral,localisation_accuracy,3,52,babble,,,babble-reversed_n13_p256-eight-p318-five-p307-four-p245-three-p268-one-p284-nine.wav,89.21754443797289,30,-0.12809855176976093,4,RX81,5,0.0,0.0,6.0,0,0,6.093841642228739,1.3749051094055176
0,,2024-08-07 11:46:56,sub_103_collocated,3,distance,cathedral,localisation_accuracy,3,53,babble,,,babble-reversed_n13_p229-eight-p256-nine-p318-four-p245-three-p268-five-p284-two.wav,87.38500246426105,30,-0.26736683926468796,2,RX81,3,0.0,0.0,4.0,0,0,2.809384164222874,1.7342514991760254
0,,2024-08-07 11:46:59,sub_103_collocated,3,distance,cathedral,localisation_accuracy,3,54,babble,,,babble-reversed_n13_p318-one-p307-two-p256-eight-p284-three-p248-five-p245-four.wav,91.89739862834912,30,0.2207403374219008,7,RX81,8,0.0,0.0,9.0,0,0,5.9178885630498534,1.2186644077301025
0,,2024-08-07 11:48:08,sub_103_collocated,3,distance,cathedral,localisation_accuracy,4,0,babble,,,babble-reversed_n13_p318-four-p256-five-p229-three-p284-one-p245-eight-p248-nine.wav,91.60971838530463,30,0.02965136765369847,6,RX81,7,0.0,0.0,8.0,0,0,9.642228739002933,2.734185218811035
0,,2024-08-07 11:48:12,sub_103_collocated,3,distance,cathedral,localisation_accuracy,4,1,babble,,,babble-reversed_n13_p256-eight-p318-five-p307-four-p245-three-p268-one-p284-nine.wav,87.87571811142794,30,0.44519478550656155,2,RX81,3,0.0,0.0,4.0,0,0,6.093841642228739,2.2654671669006348
0,,2024-08-07 11:48:16,sub_103_collocated,3,distance,cathedral,localisation_accuracy,4,2,babble,,,babble-reversed_n13_p256-three-p318-one-p307-two-p284-nine-p268-four-p245-eight.wav,84.20331612756199,30,-0.2921063665577214,0,RX81,1,0.0,0.0,2.0,0,0,2.8240469208211145,1.421776294708252
0,,2024-08-07 11:48:19,sub_103_collocated,3,distance,cathedral,localisation_accuracy,4,3,babble,,,babble-reversed_n13_p229-three-p256-one-p307-two-p284-eight-p268-five-p248-nine.wav,92.67721719597893,30,-0.45041552278418084,10,RX81,11,0.0,0.0,12.0,0,0,10.258064516129034,1.8904943466186523
0,,2024-08-07 11:48:23,sub_103_collocated,3,distance,cathedral,localisation_accuracy,4,4,babble,,,babble-reversed_n13_p229-nine-p256-four-p318-three-p268-eight-p248-two-p284-five.wav,91.42585525511704,30,-0.4284146512474095,7,RX81,8,0.0,0.0,9.0,0,0,7.809384164222875,2.4998254776000977
0,,2024-08-07 11:48:26,sub_103_collocated,3,distance,cathedral,localisation_accuracy,4,5,babble,,,babble-reversed_n13_p318-three-p307-one-p256-five-p248-nine-p245-two-p284-eight.wav,86.125040135635,30,-0.11510327044225632,1,RX81,2,0.0,0.0,3.0,0,0,3.7331378299120237,1.7342534065246582
0,,2024-08-07 11:48:29,sub_103_collocated,3,distance,cathedral,localisation_accuracy,4,6,babble,,,babble-reversed_n13_p256-four-p229-two-p318-five-p268-one-p248-eight-p245-three.wav,91.91766680479306,30,-0.12407542431876684,9,RX81,10,0.0,0.0,11.0,0,0,10.82991202346041,1.6717579364776611
0,,2024-08-07 11:48:32,sub_103_collocated,3,distance,cathedral,localisation_accuracy,4,7,babble,,,babble-reversed_n13_p256-nine-p307-four-p229-one-p284-three-p248-two-p245-five.wav,90.64259175911572,30,0.433590039004779,5,RX81,6,0.0,0.0,7.0,0,0,7.428152492668623,1.4061524868011475
0,,2024-08-07 11:48:35,sub_103_collocated,3,distance,cathedral,localisation_accuracy,4,8,babble,,,babble-reversed_n13_p229-eight-p256-nine-p318-four-p245-three-p268-five-p284-two.wav,91.91483458326456,30,-0.1415531785700801,8,RX81,9,0.0,0.0,10.0,0,0,10.580645161290324,1.2186639308929443
0,,2024-08-07 11:48:37,sub_103_collocated,3,distance,cathedral,localisation_accuracy,4,9,babble,,,babble-reversed_n13_p307-one-p318-five-p229-four-p268-eight-p284-two-p245-three.wav,89.11306121381571,30,-0.05131057599937816,3,RX81,4,0.0,0.0,5.0,0,0,6.211143695014663,1.4217751026153564
0,,2024-08-07 11:48:40,sub_103_collocated,3,distance,cathedral,localisation_accuracy,4,10,babble,,,babble-reversed_n13_p318-five-p229-three-p256-four-p268-eight-p248-one-p245-nine.wav,89.14351127497326,30,-0.22636996524683706,4,RX81,5,0.0,0.0,6.0,0,0,8.982404692082111,1.4061496257781982
0,,2024-08-07 11:48:43,sub_103_collocated,3,distance,cathedral,localisation_accuracy,4,11,babble,,,babble-reversed_n13_p229-one-p318-nine-p256-four-p284-eight-p268-five-p245-two.wav,92.3279514671524,30,0.4558857486873479,9,RX81,10,0.0,0.0,11.0,0,0,10.961876832844576,1.2186658382415771
0,,2024-08-07 11:48:46,sub_103_collocated,3,distance,cathedral,localisation_accuracy,4,12,babble,,,babble-reversed_n13_p318-three-p229-one-p256-eight-p245-five-p248-four-p284-nine.wav,87.7552967627469,30,0.2687669320409001,2,RX81,3,0.0,0.0,4.0,0,0,6.313782991202347,1.3280322551727295
0,,2024-08-07 11:48:49,sub_103_collocated,3,distance,cathedral,localisation_accuracy,4,13,babble,,,babble-reversed_n13_p318-five-p229-four-p256-eight-p284-one-p245-three-p248-two.wav,85.94022433477906,30,-0.383275078191298,1,RX81,2,0.0,0.0,3.0,0,0,3.8797653958944283,1.3124089241027832
0,,2024-08-07 11:48:51,sub_103_collocated,3,distance,cathedral,localisation_accuracy,4,14,babble,,,babble-reversed_n13_p318-nine-p256-five-p307-eight-p268-three-p248-one-p245-four.wav,91.53504726801415,30,-0.07669773900113841,6,RX81,7,0.0,0.0,8.0,0,0,7.35483870967742,1.2499136924743652
0,,2024-08-07 11:48:54,sub_103_collocated,3,distance,cathedral,localisation_accuracy,4,15,babble,,,babble-reversed_n13_p318-five-p229-four-p256-eight-p284-one-p245-three-p248-two.wav,93.10687746868938,30,0.15058331631204158,10,RX81,11,0.0,0.0,12.0,0,0,10.492668621700881,1.281162977218628
0,,2024-08-07 11:48:57,sub_103_collocated,3,distance,cathedral,localisation_accuracy,4,16,babble,,,babble-reversed_n13_p307-two-p256-four-p318-three-p284-eight-p248-five-p245-nine.wav,89.35374085654877,30,0.05353620233494316,4,RX81,5,0.0,0.0,6.0,0,0,5.81524926686217,1.1561691761016846
0,,2024-08-07 11:48:59,sub_103_collocated,3,distance,cathedral,localisation_accuracy,4,17,babble,,,babble-reversed_n13_p256-four-p307-eight-p318-two-p248-three-p284-nine-p268-one.wav,91.68218621583648,30,-0.46684239119928594,8,RX81,9,0.0,0.0,10.0,0,0,7.897360703812318,0.9530589580535889
0,,2024-08-07 11:49:03,sub_103_collocated,3,distance,cathedral,localisation_accuracy,4,18,babble,,,babble-reversed_n13_p229-nine-p307-five-p256-two-p248-three-p245-one-p268-eight.wav,89.22549940633502,30,0.1089974145533894,3,RX81,4,0.0,0.0,5.0,0,0,4.319648093841643,2.437329053878784
0,,2024-08-07 11:49:08,sub_103_collocated,3,distance,cathedral,localisation_accuracy,4,19,babble,,,babble-reversed_n13_p307-two-p229-one-p256-five-p248-nine-p284-three-p268-eight.wav,84.60954740517354,30,0.31194911708303164,0,RX81,1,0.0,0.0,2.0,0,0,2.266862170087977,3.6403722763061523
0,,2024-08-07 11:49:11,sub_103_collocated,3,distance,cathedral,localisation_accuracy,4,20,babble,,,babble-reversed_n13_p229-two-p256-three-p318-eight-p284-five-p268-four-p245-one.wav,91.7442349385363,30,0.008338332955262429,7,RX81,8,0.0,0.0,9.0,0,0,5.49266862170088,1.952988862991333
0,,2024-08-07 11:49:15,sub_103_collocated,3,distance,cathedral,localisation_accuracy,4,21,babble,,,babble-reversed_n13_p318-five-p229-four-p256-eight-p284-one-p245-three-p248-two.wav,90.23259159042195,30,-0.15529492966288938,5,RX81,6,0.0,0.0,7.0,0,0,6.812316715542522,2.171724796295166
0,,2024-08-07 11:49:20,sub_103_collocated,3,distance,cathedral,localisation_accuracy,4,22,babble,,,babble-reversed_n13_p256-three-p318-one-p307-two-p284-nine-p268-four-p245-eight.wav,87.29610744665226,30,-0.39465435680364214,2,RX81,3,0.0,0.0,4.0,0,0,4.143695014662757,3.140407085418701
0,,2024-08-07 11:49:24,sub_103_collocated,3,distance,cathedral,localisation_accuracy,4,23,babble,,,babble-reversed_n13_p229-five-p318-two-p307-eight-p268-three-p248-four-p245-one.wav,92.33354186102227,30,0.46386534981757366,9,RX81,10,0.0,0.0,11.0,0,0,8.571847507331379,3.0310399532318115
0,,2024-08-07 11:49:28,sub_103_collocated,3,distance,cathedral,localisation_accuracy,4,24,babble,,,babble-reversed_n13_p256-five-p307-nine-p318-three-p284-eight-p268-one-p248-two.wav,89.55262516139064,30,0.32075876599917474,4,RX81,5,0.0,0.0,6.0,0,0,6.181818181818182,2.1092288494110107
0,,2024-08-07 11:49:33,sub_103_collocated,3,distance,cathedral,localisation_accuracy,4,25,babble,,,babble-reversed_n13_p229-three-p256-nine-p318-five-p248-one-p245-eight-p284-two.wav,84.673665143487,30,0.4084064876226611,0,RX81,1,0.0,0.0,2.0,0,0,2.648093841642229,3.249774217605591
0,,2024-08-07 11:49:38,sub_103_collocated,3,distance,cathedral,localisation_accuracy,4,26,babble,,,babble-reversed_n13_p229-eight-p256-nine-p318-four-p245-three-p268-five-p284-two.wav,91.94003391253358,30,0.28013248563855275,7,RX81,8,0.0,0.0,9.0,0,0,9.378299120234605,3.54662823677063
0,,2024-08-07 11:49:41,sub_103_collocated,3,distance,cathedral,localisation_accuracy,4,27,babble,,,babble-reversed_n13_p318-three-p229-one-p256-eight-p245-five-p248-four-p284-nine.wav,90.05294208122135,30,-0.40972287434732146,5,RX81,6,0.0,0.0,7.0,0,0,7.780058651026394,2.1717236042022705
0,,2024-08-07 11:49:44,sub_103_collocated,3,distance,cathedral,localisation_accuracy,4,28,babble,,,babble-reversed_n13_p229-two-p307-five-p318-four-p284-one-p248-nine-p268-eight.wav,91.84389523942014,30,-0.24111852517565102,8,RX81,9,0.0,0.0,10.0,0,0,10.580645161290324,1.656134843826294
0,,2024-08-07 11:49:48,sub_103_collocated,3,distance,cathedral,localisation_accuracy,4,29,babble,,,babble-reversed_n13_p256-five-p229-one-p318-three-p248-nine-p284-eight-p268-two.wav,88.8852941984648,30,-0.3734369138968814,3,RX81,4,0.0,0.0,5.0,0,0,6.841642228739003,1.9217400550842285
0,,2024-08-07 11:49:50,sub_103_collocated,3,distance,cathedral,localisation_accuracy,4,30,babble,,,babble-reversed_n13_p318-five-p229-three-p256-four-p268-eight-p248-one-p245-nine.wav,86.21646368819063,30,0.018450644852021303,1,RX81,2,0.0,0.0,3.0,0,0,4.422287390029326,1.359281063079834
0,,2024-08-07 11:49:53,sub_103_collocated,3,distance,cathedral,localisation_accuracy,4,31,babble,,,babble-reversed_n13_p256-five-p307-nine-p318-three-p284-eight-p268-one-p248-two.wav,91.48962248406863,30,-0.14120890452658896,6,RX81,7,0.0,0.0,8.0,0,0,6.6950146627565985,1.1405465602874756
0,,2024-08-07 11:49:56,sub_103_collocated,3,distance,cathedral,localisation_accuracy,4,32,babble,,,babble-reversed_n13_p229-nine-p256-four-p318-three-p268-eight-p248-two-p284-five.wav,92.89859116487436,30,-0.14227408808999675,10,RX81,11,0.0,0.0,12.0,0,0,10.360703812316716,1.421776294708252
0,,2024-08-07 11:50:01,sub_103_collocated,3,distance,cathedral,localisation_accuracy,4,33,babble,,,babble-reversed_n13_p229-three-p256-nine-p318-five-p248-one-p245-eight-p284-two.wav,91.92401267151082,30,0.25780076965655063,7,RX81,8,0.0,0.0,9.0,0,0,10.331378299120235,2.671689033508301
0,,2024-08-07 11:50:03,sub_103_collocated,3,distance,cathedral,localisation_accuracy,4,34,babble,,,babble-reversed_n13_p229-five-p256-three-p318-nine-p248-two-p284-four-p268-one.wav,91.66899946194297,30,-0.47019236072064263,9,RX81,10,0.0,0.0,11.0,0,0,11.826979472140764,1.2499127388000488
0,,2024-08-07 11:50:06,sub_103_collocated,3,distance,cathedral,localisation_accuracy,4,35,babble,,,babble-reversed_n13_p229-five-p318-three-p307-two-p245-four-p284-nine-p248-eight.wav,91.40698018256921,30,-0.2582190022338535,6,RX81,7,0.0,0.0,8.0,0,0,11.900293255131965,1.4373998641967773
0,,2024-08-07 11:50:09,sub_103_collocated,3,distance,cathedral,localisation_accuracy,4,36,babble,,,babble-reversed_n13_p229-three-p256-nine-p318-five-p248-one-p245-eight-p284-two.wav,92.83803437472534,30,-0.2268839624520651,10,RX81,11,0.0,0.0,12.0,0,0,10.082111436950147,1.5155210494995117
0,,2024-08-07 11:50:12,sub_103_collocated,3,distance,cathedral,localisation_accuracy,4,37,babble,,,babble-reversed_n13_p318-three-p229-one-p256-eight-p245-five-p248-four-p284-nine.wav,90.47764447530027,30,0.1952912817278345,5,RX81,6,0.0,0.0,7.0,0,0,10.844574780058652,1.062427282333374
0,,2024-08-07 11:50:15,sub_103_collocated,3,distance,cathedral,localisation_accuracy,4,38,babble,,,babble-reversed_n13_p229-two-p307-five-p318-four-p284-one-p248-nine-p268-eight.wav,84.41134138698285,30,0.015702738131432525,0,RX81,1,0.0,0.0,2.0,0,0,3.0,1.7811260223388672
0,,2024-08-07 11:50:19,sub_103_collocated,3,distance,cathedral,localisation_accuracy,4,39,babble,,,babble-reversed_n13_p318-three-p307-one-p256-five-p248-nine-p245-two-p284-eight.wav,89.33692572603209,30,0.031051523625052924,4,RX81,5,0.0,0.0,6.0,0,0,5.771260997067449,2.187347650527954
0,,2024-08-07 11:50:21,sub_103_collocated,3,distance,cathedral,localisation_accuracy,4,40,babble,,,babble-reversed_n13_p256-four-p229-eight-p307-five-p248-three-p245-one-p284-two.wav,89.12030748482866,30,-0.04100503378233278,3,RX81,4,0.0,0.0,5.0,0,0,6.958944281524927,1.0468025207519531
0,,2024-08-07 11:50:24,sub_103_collocated,3,distance,cathedral,localisation_accuracy,4,41,babble,,,babble-reversed_n13_p229-three-p256-nine-p318-five-p248-one-p245-eight-p284-two.wav,86.00978651672804,30,-0.2826224043079478,1,RX81,2,0.0,0.0,3.0,0,0,3.3079178885630505,1.3749055862426758
0,,2024-08-07 11:50:26,sub_103_collocated,3,distance,cathedral,localisation_accuracy,4,42,babble,,,babble-reversed_n13_p307-four-p318-three-p256-eight-p284-two-p245-nine-p248-five.wav,87.30728104651524,30,-0.37868502795889436,2,RX81,3,0.0,0.0,4.0,0,0,5.9178885630498534,1.0624263286590576
0,,2024-08-07 11:50:29,sub_103_collocated,3,distance,cathedral,localisation_accuracy,4,43,babble,,,babble-reversed_n13_p229-five-p318-three-p307-two-p245-four-p284-nine-p248-eight.wav,92.14135800263948,30,0.17861440212021296,8,RX81,9,0.0,0.0,10.0,0,0,8.498533724340177,1.031177282333374
0,,2024-08-07 11:50:32,sub_103_collocated,3,distance,cathedral,localisation_accuracy,4,44,babble,,,babble-reversed_n13_p307-nine-p229-one-p256-eight-p248-four-p284-two-p268-three.wav,92.91604148305969,30,-0.11784792736430649,10,RX81,11,0.0,0.0,12.0,0,0,10.390029325513197,1.0155549049377441
0,,2024-08-07 11:50:35,sub_103_collocated,3,distance,cathedral,localisation_accuracy,4,45,babble,,,babble-reversed_n13_p229-two-p256-three-p318-eight-p284-five-p268-four-p245-one.wav,91.5613139184737,30,-0.2433749163751282,7,RX81,8,0.0,0.0,9.0,0,0,9.348973607038124,1.9217414855957031
0,,2024-08-07 11:50:38,sub_103_collocated,3,distance,cathedral,localisation_accuracy,4,46,babble,,,babble-reversed_n13_p318-four-p256-five-p229-three-p284-one-p245-eight-p248-nine.wav,91.61241526359478,30,0.033499416049878716,6,RX81,7,0.0,0.0,8.0,0,0,11.475073313782993,1.2967853546142578
0,,2024-08-07 11:50:41,sub_103_collocated,3,distance,cathedral,localisation_accuracy,4,47,babble,,,babble-reversed_n13_p318-five-p229-four-p256-eight-p284-one-p245-three-p248-two.wav,88.97750060161121,30,-0.24345076167534985,3,RX81,4,0.0,0.0,5.0,0,0,5.536656891495602,1.4998948574066162
0,,2024-08-07 11:50:44,sub_103_collocated,3,distance,cathedral,localisation_accuracy,4,48,babble,,,babble-reversed_n13_p256-eight-p318-five-p307-four-p245-three-p268-one-p284-nine.wav,90.00249916558631,30,-0.480771648376604,5,RX81,6,0.0,0.0,7.0,0,0,7.35483870967742,1.3280317783355713
0,,2024-08-07 11:50:47,sub_103_collocated,3,distance,cathedral,localisation_accuracy,4,49,babble,,,babble-reversed_n13_p229-five-p318-three-p307-two-p245-four-p284-nine-p248-eight.wav,84.29951986228147,30,-0.15015073593182637,0,RX81,1,0.0,0.0,2.0,0,0,3.3079178885630505,1.2811603546142578
0,,2024-08-07 11:50:50,sub_103_collocated,3,distance,cathedral,localisation_accuracy,4,50,babble,,,babble-reversed_n13_p229-two-p318-eight-p256-three-p268-one-p248-nine-p284-five.wav,92.22391856853521,30,0.2961570004039601,8,RX81,9,0.0,0.0,10.0,0,0,7.912023460410557,1.3124089241027832
0,,2024-08-07 11:50:52,sub_103_collocated,3,distance,cathedral,localisation_accuracy,4,51,babble,,,babble-reversed_n13_p256-four-p307-eight-p318-two-p248-three-p284-nine-p268-one.wav,92.30048729747567,30,0.41671436394317385,9,RX81,10,0.0,0.0,11.0,0,0,9.87683284457478,1.015554428100586
0,,2024-08-07 11:50:55,sub_103_collocated,3,distance,cathedral,localisation_accuracy,4,52,babble,,,babble-reversed_n13_p256-five-p307-nine-p318-three-p284-eight-p268-one-p248-two.wav,87.63211724287959,30,0.08935585001677615,2,RX81,3,0.0,0.0,4.0,0,0,4.451612903225807,1.515519142150879
0,,2024-08-07 11:50:58,sub_103_collocated,3,distance,cathedral,localisation_accuracy,4,53,babble,,,babble-reversed_n13_p318-nine-p307-eight-p229-two-p284-one-p248-three-p245-five.wav,86.4404021385341,30,0.3481127009989794,1,RX81,2,0.0,0.0,3.0,0,0,5.302052785923754,1.4217767715454102
0,,2024-08-07 11:51:00,sub_103_collocated,3,distance,cathedral,localisation_accuracy,4,54,babble,,,babble-reversed_n13_p318-five-p256-nine-p307-two-p245-eight-p248-one-p284-four.wav,88.94801832260424,30,-0.4843155938314426,4,RX81,5,0.0,0.0,6.0,0,0,7.413489736070382,0.9843072891235352
