,event_id,subject_id,timestamp,session_index,plane,setup,task,block,trial_index,stim_number,stim_type,stim_country_ids,stim_sexes,stim_talker_ids,speaker_ids,stim_level,resp_number,is_correct,speaker_distance_mean,speaker_distance_st_dev,reaction_time,spectral_coverage
0,,sub_118,2024-07-26 14:07:47,3,distance,cathedral,numerosity_judgement,1,0,3,countries_forward,"['_Tonga_', '_Britain_', '_Yemen_']","['m', 'm', 'm']","['p307', 'p318', 'p229']","[6, 5, 7]","[91.58892582949886, 90.34149293193902, 91.73820004985969]",3.0,True,8.0,1.0,2.374936580657959,0.7812620587901487
0,,sub_118,2024-07-26 14:07:53,3,distance,cathedral,numerosity_judgement,1,1,4,countries_forward,"['_Belgium_', '_Cuba_', '_Congo_', '_Mali_']","['f', 'm', 'f', 'f']","['p248', 'p307', 'p268', 'p284']","[8, 7, 5, 1]","[92.0152836843556, 91.73820004985969, 90.34149293193902, 86.2038576498559]",4.0,True,7.25,3.095695936834452,4.187387228012085,0.759993190330269
0,,sub_118,2024-07-26 14:07:58,3,distance,cathedral,numerosity_judgement,1,2,6,countries_forward,"['_Syria_', '_Peru_', '_Congo_', '_Tonga_', '_Mali_', '_Yemen_']","['m', 'm', 'f', 'f', 'm', 'f']","['p307', 'p256', 'p268', 'p284', 'p229', 'p245']","[4, 9, 5, 7, 1, 2]","[89.31368318402099, 92.00610777531934, 90.34149293193902, 91.73820004985969, 86.2038576498559, 87.57049330475357]",6.0,True,6.666666666666667,3.011090610836324,2.9374213218688965,0.839223697650664
0,,sub_118,2024-07-26 14:08:03,3,distance,cathedral,numerosity_judgement,1,3,5,countries_forward,"['_Sudan_', '_Belgium_', '_Japan_', '_Peru_', '_Mali_']","['f', 'f', 'm', 'f', 'm']","['p284', 'p245', 'p318', 'p248', 'p229']","[6, 0, 5, 1, 4]","[91.58892582949886, 84.40078082039426, 90.34149293193902, 86.2038576498559, 89.31368318402099]",4.0,False,5.2,2.588435821108957,3.1873526573181152,0.95471569628873
0,,sub_118,2024-07-26 14:08:06,3,distance,cathedral,numerosity_judgement,1,4,2,countries_forward,"['_Britain_', '_Togo_']","['m', 'm']","['p318', 'p256']","[0, 2]","[84.40078082039426, 87.57049330475357]",2.0,True,3.0,1.4142135623730951,1.499953031539917,0.8527181931676314
0,,sub_118,2024-07-26 14:08:10,3,distance,cathedral,numerosity_judgement,1,5,3,countries_forward,"['_Mali_', '_Britain_', '_Togo_']","['f', 'm', 'm']","['p268', 'p256', 'p229']","[0, 6, 8]","[84.40078082039426, 91.58892582949886, 92.0152836843556]",4.0,False,6.666666666666667,4.163331998932266,2.1249382495880127,0.8759278175008512
0,,sub_118,2024-07-26 14:08:14,3,distance,cathedral,numerosity_judgement,1,6,6,countries_forward,"['_Peru_', '_Sudan_', '_Mali_', '_Tonga_', '_Togo_', '_Yemen_']","['m', 'f', 'm', 'f', 'm', 'f']","['p229', 'p268', 'p256', 'p248', 'p318', 'p284']","[0, 5, 3, 4, 6, 10]","[84.40078082039426, 90.34149293193902, 89.14911522239515, 89.31368318402099, 91.58892582949886, 93.00003341222717]",6.0,True,6.666666666666667,3.32665998663324,1.687455177307129,0.9118488253319714
0,,sub_118,2024-07-26 14:08:17,3,distance,cathedral,numerosity_judgement,1,7,2,countries_forward,"['_Cuba_', '_Tonga_']","['m', 'm']","['p307', 'p256']","[7, 2]","[91.73820004985969, 87.57049330475357]",2.0,True,6.5,3.5355339059327378,1.562457799911499,0.6708773124503462
0,,sub_118,2024-07-26 14:08:20,3,distance,cathedral,numerosity_judgement,1,8,4,countries_forward,"['_Togo_', '_Britain_', '_Oman_', '_Japan_']","['m', 'm', 'f', 'f']","['p229', 'p307', 'p245', 'p268']","[4, 6, 9, 2]","[89.31368318402099, 91.58892582949886, 92.00610777531934, 87.57049330475357]",3.0,False,7.25,2.9860788111948193,1.8124511241912842,0.8358756100329134
0,,sub_118,2024-07-26 14:08:24,3,distance,cathedral,numerosity_judgement,1,9,5,countries_forward,"['_Britain_', '_Tonga_', '_Peru_', '_Mali_', '_Congo_']","['m', 'f', 'f', 'm', 'f']","['p229', 'p284', 'p245', 'p318', 'p248']","[8, 4, 5, 7, 6]","[92.0152836843556, 89.31368318402099, 90.34149293193902, 91.73820004985969, 91.58892582949886]",5.0,True,8.0,1.5811388300841898,1.8749499320983887,0.8843831574168652
0,,sub_118,2024-07-26 14:08:27,3,distance,cathedral,numerosity_judgement,1,10,3,countries_forward,"['_Japan_', '_Oman_', '_Sudan_']","['f', 'm', 'f']","['p248', 'p229', 'p268']","[8, 2, 7]","[92.0152836843556, 87.57049330475357, 91.73820004985969]",3.0,True,7.666666666666667,3.2145502536643185,1.9374477863311768,0.9268868459879696
0,,sub_118,2024-07-26 14:08:31,3,distance,cathedral,numerosity_judgement,1,11,2,countries_forward,"['_Sudan_', '_Japan_']","['f', 'm']","['p268', 'p229']","[4, 2]","[89.31368318402099, 87.57049330475357]",2.0,True,5.0,1.4142135623730951,1.7500171661376953,0.9640562932697764
0,,sub_118,2024-07-26 14:08:34,3,distance,cathedral,numerosity_judgement,1,12,4,countries_forward,"['_Togo_', '_Yemen_', '_Congo_', '_Mali_']","['m', 'm', 'm', 'f']","['p229', 'p307', 'p318', 'p268']","[9, 3, 2, 0]","[92.00610777531934, 89.14911522239515, 87.57049330475357, 84.40078082039426]",3.0,False,5.5,3.872983346207417,1.8003511428833008,0.8521166723413914
0,,sub_118,2024-07-26 14:08:38,3,distance,cathedral,numerosity_judgement,1,13,6,countries_forward,"['_Mali_', '_Oman_', '_Britain_', '_Congo_', '_Belgium_', '_Tonga_']","['f', 'm', 'm', 'f', 'm', 'm']","['p248', 'p318', 'p229', 'p284', 'p307', 'p256']","[6, 0, 10, 9, 7, 5]","[91.58892582949886, 84.40078082039426, 93.00003341222717, 92.00610777531934, 91.73820004985969, 90.34149293193902]",5.0,False,8.166666666666666,3.5449494589721118,1.6249561309814453,0.7800817160367722
0,,sub_118,2024-07-26 14:08:41,3,distance,cathedral,numerosity_judgement,1,14,5,countries_forward,"['_Britain_', '_Yemen_', '_Belgium_', '_Sudan_', '_Congo_']","['f', 'f', 'm', 'm', 'f']","['p245', 'p248', 'p256', 'p307', 'p284']","[3, 4, 5, 6, 9]","[89.14911522239515, 89.31368318402099, 90.34149293193902, 91.58892582949886, 92.00610777531934]",6.0,False,7.4,2.3021728866442674,1.062471628189087,0.8297923050732039
0,,sub_118,2024-07-26 14:08:45,3,distance,cathedral,numerosity_judgement,1,15,3,countries_forward,"['_Mali_', '_Tonga_', '_Belgium_']","['m', 'm', 'f']","['p256', 'p307', 'p284']","[9, 10, 7]","[92.00610777531934, 93.00003341222717, 91.73820004985969]",3.0,True,10.666666666666666,1.5275252316519468,2.874980926513672,0.8353989331517422
0,,sub_118,2024-07-26 14:08:49,3,distance,cathedral,numerosity_judgement,1,16,6,countries_forward,"['_Congo_', '_Togo_', '_Tonga_', '_Cuba_', '_Britain_', '_Yemen_']","['m', 'f', 'f', 'm', 'f', 'm']","['p318', 'p268', 'p248', 'p307', 'p245', 'p256']","[9, 10, 8, 2, 6, 7]","[92.00610777531934, 93.00003341222717, 92.0152836843556, 87.57049330475357, 91.58892582949886, 91.73820004985969]",4.0,False,9.0,2.8284271247461903,1.8749492168426514,0.8016910679832028
0,,sub_118,2024-07-26 14:08:53,3,distance,cathedral,numerosity_judgement,1,17,4,countries_forward,"['_Peru_', '_Oman_', '_Britain_', '_Congo_']","['f', 'm', 'm', 'f']","['p245', 'p307', 'p318', 'p248']","[4, 5, 10, 2]","[89.31368318402099, 90.34149293193902, 93.00003341222717, 87.57049330475357]",3.0,False,7.25,3.4034296427770228,2.1249427795410156,0.7106798320281467
0,,sub_118,2024-07-26 14:08:56,3,distance,cathedral,numerosity_judgement,1,18,2,countries_forward,"['_Sudan_', '_Togo_']","['f', 'm']","['p268', 'p318']","[7, 5]","[91.73820004985969, 90.34149293193902]",2.0,True,8.0,1.4142135623730951,1.499962329864502,0.9477357848144364
0,,sub_118,2024-07-26 14:09:00,3,distance,cathedral,numerosity_judgement,1,19,5,countries_forward,"['_Oman_', '_Cuba_', '_Togo_', '_Yemen_', '_Congo_']","['f', 'f', 'm', 'm', 'm']","['p284', 'p268', 'p307', 'p256', 'p318']","[1, 10, 4, 3, 7]","[86.2038576498559, 93.00003341222717, 89.31368318402099, 89.14911522239515, 91.73820004985969]",5.0,True,7.0,3.5355339059327378,1.9374468326568604,0.6794347974123255
0,,sub_118,2024-07-26 14:09:05,3,distance,cathedral,numerosity_judgement,1,20,3,countries_forward,"['_Sudan_', '_Britain_', '_Congo_']","['m', 'f', 'f']","['p318', 'p268', 'p248']","[2, 7, 4]","[87.57049330475357, 91.73820004985969, 89.31368318402099]",4.0,False,6.333333333333333,2.516611478423583,3.1874146461486816,0.8287254568153445
0,,sub_118,2024-07-26 14:09:08,3,distance,cathedral,numerosity_judgement,1,21,5,countries_forward,"['_Yemen_', '_Mali_', '_Peru_', '_Congo_', '_Oman_']","['f', 'm', 'm', 'm', 'm']","['p248', 'p229', 'p318', 'p307', 'p256']","[2, 5, 7, 0, 4]","[87.57049330475357, 90.34149293193902, 91.73820004985969, 84.40078082039426, 89.31368318402099]",4.0,False,5.6,2.701851217221259,1.8124511241912842,0.7424923391215527
0,,sub_118,2024-07-26 14:09:13,3,distance,cathedral,numerosity_judgement,1,22,6,countries_forward,"['_Togo_', '_Oman_', '_Peru_', '_Syria_', '_Tonga_', '_Congo_']","['f', 'm', 'f', 'f', 'm', 'm']","['p268', 'p229', 'p245', 'p284', 'p307', 'p256']","[0, 4, 3, 1, 5, 7]","[84.40078082039426, 89.31368318402099, 89.14911522239515, 86.2038576498559, 90.34149293193902, 91.73820004985969]",3.0,False,5.333333333333333,2.581988897471611,2.437406301498413,0.7519123822494609
0,,sub_118,2024-07-26 14:09:17,3,distance,cathedral,numerosity_judgement,1,23,4,countries_forward,"['_Peru_', '_Sudan_', '_Tonga_', '_Yemen_']","['m', 'm', 'm', 'f']","['p307', 'p229', 'p318', 'p284']","[1, 10, 5, 7]","[86.2038576498559, 93.00003341222717, 90.34149293193902, 91.73820004985969]",4.0,True,7.75,3.774917217635375,1.9999468326568604,0.901010101010101
0,,sub_118,2024-07-26 14:09:20,3,distance,cathedral,numerosity_judgement,1,24,2,countries_forward,"['_Peru_', '_Cuba_']","['m', 'm']","['p318', 'p256']","[8, 10]","[92.0152836843556, 93.00003341222717]",2.0,True,11.0,1.4142135623730951,1.4999594688415527,0.7349336057201226
0,,sub_118,2024-07-26 14:09:23,3,distance,cathedral,numerosity_judgement,1,25,3,countries_forward,"['_Oman_', '_Yemen_', '_Congo_']","['m', 'm', 'f']","['p307', 'p229', 'p284']","[5, 10, 6]","[90.34149293193902, 93.00003341222717, 91.58892582949886]",2.0,False,9.0,2.6457513110645907,2.187441349029541,0.7275678129610714
0,,sub_118,2024-07-26 14:09:27,3,distance,cathedral,numerosity_judgement,1,26,2,countries_forward,"['_Togo_', '_Britain_']","['f', 'f']","['p268', 'p245']","[6, 7]","[91.58892582949886, 91.73820004985969]",2.0,True,8.5,0.7071067811865476,2.062445878982544,0.8033480876177506
0,,sub_118,2024-07-26 14:09:32,3,distance,cathedral,numerosity_judgement,1,27,4,countries_forward,"['_Congo_', '_Oman_', '_Peru_', '_Yemen_']","['m', 'm', 'f', 'f']","['p307', 'p229', 'p284', 'p248']","[3, 10, 2, 6]","[89.14911522239515, 93.00003341222717, 87.57049330475357, 91.58892582949886]",3.0,False,7.25,3.593976442141304,2.9374213218688965,0.672829417773238
0,,sub_118,2024-07-26 14:09:36,3,distance,cathedral,numerosity_judgement,1,28,6,countries_forward,"['_Mali_', '_Japan_', '_Yemen_', '_Tonga_', '_Togo_', '_Sudan_']","['f', 'm', 'm', 'm', 'f', 'f']","['p284', 'p318', 'p229', 'p307', 'p245', 'p268']","[9, 2, 8, 0, 4, 6]","[92.00610777531934, 87.57049330475357, 92.0152836843556, 84.40078082039426, 89.31368318402099, 91.58892582949886]",3.0,False,6.833333333333333,3.488074922742725,1.9374477863311768,0.965645216207014
0,,sub_118,2024-07-26 14:09:39,3,distance,cathedral,numerosity_judgement,1,29,5,countries_forward,"['_Togo_', '_Yemen_', '_Peru_', '_Belgium_', '_Congo_']","['m', 'f', 'm', 'f', 'f']","['p307', 'p284', 'p256', 'p268', 'p248']","[1, 7, 6, 3, 5]","[86.2038576498559, 91.73820004985969, 91.58892582949886, 89.14911522239515, 90.34149293193902]",4.0,False,6.4,2.4083189157584592,1.9374475479125977,0.7903302689819544
0,,sub_118,2024-07-26 14:09:43,3,distance,cathedral,numerosity_judgement,1,30,3,countries_forward,"['_Mali_', '_Peru_', '_Belgium_']","['f', 'f', 'm']","['p268', 'p284', 'p307']","[1, 6, 10]","[86.2038576498559, 91.58892582949886, 93.00003341222717]",3.0,True,7.666666666666667,4.509249752822894,1.8124237060546875,0.8855861990693451
0,,sub_118,2024-07-26 14:09:47,3,distance,cathedral,numerosity_judgement,1,31,5,countries_forward,"['_Oman_', '_Syria_', '_Mali_', '_Yemen_', '_Cuba_']","['m', 'f', 'f', 'm', 'f']","['p256', 'p284', 'p268', 'p318', 'p245']","[2, 1, 5, 9, 0]","[87.57049330475357, 86.2038576498559, 90.34149293193902, 92.00610777531934, 84.40078082039426]",4.0,False,5.4,3.646916505762094,1.8124513626098633,0.9308251049824084
0,,sub_118,2024-07-26 14:09:51,3,distance,cathedral,numerosity_judgement,1,32,6,countries_forward,"['_Japan_', '_Togo_', '_Sudan_', '_Syria_', '_Tonga_', '_Congo_']","['f', 'm', 'f', 'f', 'm', 'f']","['p268', 'p318', 'p284', 'p248', 'p307', 'p245']","[0, 4, 9, 5, 8, 7]","[84.40078082039426, 89.31368318402099, 92.00610777531934, 90.34149293193902, 92.0152836843556, 91.73820004985969]",5.0,False,7.5,3.271085446759225,2.3749353885650635,0.9287368062648962
0,,sub_118,2024-07-26 14:09:55,3,distance,cathedral,numerosity_judgement,1,33,2,countries_forward,"['_Tonga_', '_Peru_']","['f', 'm']","['p245', 'p256']","[4, 9]","[89.31368318402099, 92.00610777531934]",3.0,False,8.5,3.5355339059327378,2.874920606613159,0.628555215072069
0,,sub_118,2024-07-26 14:09:59,3,distance,cathedral,numerosity_judgement,1,34,4,countries_forward,"['_Tonga_', '_Togo_', '_Syria_', '_Belgium_']","['f', 'f', 'f', 'm']","['p248', 'p245', 'p284', 'p318']","[0, 7, 8, 9]","[84.40078082039426, 91.73820004985969, 92.0152836843556, 92.00610777531934]",4.0,True,8.0,4.08248290463863,2.0624444484710693,0.9552491204176596
0,,sub_118,2024-07-26 14:10:03,3,distance,cathedral,numerosity_judgement,1,35,6,countries_forward,"['_Sudan_', '_Belgium_', '_Peru_', '_Togo_', '_Syria_', '_Tonga_']","['f', 'f', 'm', 'm', 'm', 'f']","['p284', 'p268', 'p318', 'p307', 'p229', 'p248']","[6, 3, 1, 9, 0, 4]","[91.58892582949886, 89.14911522239515, 86.2038576498559, 92.00610777531934, 84.40078082039426, 89.31368318402099]",5.0,False,5.833333333333333,3.3115957885386114,1.6249561309814453,0.9482692089433662
0,,sub_118,2024-07-26 14:10:06,3,distance,cathedral,numerosity_judgement,1,36,2,countries_forward,"['_Oman_', '_Yemen_']","['m', 'm']","['p307', 'p318']","[9, 10]","[92.00610777531934, 93.00003341222717]",3.0,False,11.5,0.7071067811865476,1.9374480247497559,0.6563840653728295
0,,sub_118,2024-07-26 14:10:10,3,distance,cathedral,numerosity_judgement,1,37,3,countries_forward,"['_Yemen_', '_Congo_', '_Tonga_']","['m', 'm', 'f']","['p229', 'p256', 'p268']","[3, 6, 4]","[89.14911522239515, 91.58892582949886, 89.31368318402099]",3.0,True,6.333333333333333,1.5275252316519465,1.9999468326568604,0.7501191692202929
0,,sub_118,2024-07-26 14:10:13,3,distance,cathedral,numerosity_judgement,1,38,5,countries_forward,"['_Congo_', '_Yemen_', '_Syria_', '_Belgium_', '_Mali_']","['m', 'm', 'f', 'f', 'f']","['p256', 'p229', 'p245', 'p284', 'p248']","[9, 7, 6, 1, 10]","[92.00610777531934, 91.73820004985969, 91.58892582949886, 86.2038576498559, 93.00003341222717]",6.0,False,8.6,3.5071355833500366,1.4999523162841797,0.8600385881284758
0,,sub_118,2024-07-26 14:10:17,3,distance,cathedral,numerosity_judgement,1,39,4,countries_forward,"['_Congo_', '_Peru_', '_Oman_', '_Belgium_']","['m', 'f', 'f', 'm']","['p256', 'p268', 'p248', 'p318']","[8, 3, 0, 4]","[92.0152836843556, 89.14911522239515, 84.40078082039426, 89.31368318402099]",4.0,True,5.75,3.304037933599835,1.9374847412109375,0.7866643967767564
0,,sub_118,2024-07-26 14:10:20,3,distance,cathedral,numerosity_judgement,1,40,2,countries_forward,"['_Oman_', '_Belgium_']","['m', 'm']","['p229', 'p307']","[3, 9]","[89.14911522239515, 92.00610777531934]",2.0,True,8.0,4.242640687119285,1.749981164932251,0.7551469753716945
0,,sub_118,2024-07-26 14:10:24,3,distance,cathedral,numerosity_judgement,1,41,6,countries_forward,"['_Sudan_', '_Peru_', '_Mali_', '_Yemen_', '_Tonga_', '_Oman_']","['f', 'f', 'm', 'm', 'f', 'm']","['p284', 'p245', 'p256', 'p307', 'p248', 'p229']","[6, 0, 9, 8, 3, 5]","[91.58892582949886, 84.40078082039426, 92.00610777531934, 92.0152836843556, 89.14911522239515, 90.34149293193902]",4.0,False,7.166666666666667,3.3115957885386114,1.999946117401123,0.8617296561116786
0,,sub_118,2024-07-26 14:10:28,3,distance,cathedral,numerosity_judgement,1,42,4,countries_forward,"['_Belgium_', '_Tonga_', '_Syria_', '_Mali_']","['f', 'm', 'f', 'f']","['p245', 'p256', 'p268', 'p284']","[3, 1, 0, 5]","[89.14911522239515, 86.2038576498559, 84.40078082039426, 90.34149293193902]",3.0,False,4.25,2.217355782608345,1.9374480247497559,0.94782658041085
0,,sub_118,2024-07-26 14:10:32,3,distance,cathedral,numerosity_judgement,1,43,5,countries_forward,"['_Congo_', '_Britain_', '_Togo_', '_Tonga_', '_Oman_']","['m', 'f', 'f', 'm', 'm']","['p307', 'p268', 'p248', 'p256', 'p229']","[10, 0, 6, 4, 3]","[93.00003341222717, 84.40078082039426, 91.58892582949886, 89.31368318402099, 89.14911522239515]",4.0,False,6.6,3.714835124201342,1.999945878982544,0.8419929633412779
0,,sub_118,2024-07-26 14:10:35,3,distance,cathedral,numerosity_judgement,1,44,3,countries_forward,"['_Sudan_', '_Yemen_', '_Syria_']","['f', 'f', 'f']","['p284', 'p248', 'p268']","[0, 1, 10]","[84.40078082039426, 86.2038576498559, 93.00003341222717]",3.0,True,5.666666666666667,5.507570547286102,2.187440872192383,0.9550334808761776
0,,sub_118,2024-07-26 14:10:39,3,distance,cathedral,numerosity_judgement,1,45,6,countries_forward,"['_Togo_', '_Oman_', '_Congo_', '_Yemen_', '_Tonga_', '_Cuba_']","['m', 'm', 'm', 'f', 'f', 'f']","['p229', 'p307', 'p256', 'p284', 'p268', 'p248']","[7, 0, 4, 8, 3, 2]","[91.73820004985969, 84.40078082039426, 89.31368318402099, 92.0152836843556, 89.14911522239515, 87.57049330475357]",5.0,False,6.0,3.03315017762062,1.7499523162841797,0.7453297015094767
0,,sub_118,2024-07-26 14:10:42,3,distance,cathedral,numerosity_judgement,1,46,2,countries_forward,"['_Japan_', '_Yemen_']","['m', 'm']","['p307', 'p318']","[1, 4]","[86.2038576498559, 89.31368318402099]",2.0,True,4.5,2.1213203435596424,1.5624568462371826,0.8867097945749631
0,,sub_118,2024-07-26 14:10:46,3,distance,cathedral,numerosity_judgement,1,47,3,countries_forward,"['_Oman_', '_Togo_', '_Syria_']","['m', 'f', 'm']","['p256', 'p245', 'p307']","[10, 8, 6]","[93.00003341222717, 92.0152836843556, 91.58892582949886]",4.0,False,10.0,2.0,2.3124380111694336,0.7909090909090909
0,,sub_118,2024-07-26 14:10:50,3,distance,cathedral,numerosity_judgement,1,48,5,countries_forward,"['_Oman_', '_Mali_', '_Tonga_', '_Yemen_', '_Britain_']","['m', 'm', 'm', 'f', 'f']","['p318', 'p256', 'p229', 'p268', 'p245']","[3, 6, 2, 10, 0]","[89.14911522239515, 91.58892582949886, 87.57049330475357, 93.00003341222717, 84.40078082039426]",5.0,True,6.2,3.898717737923586,2.3124377727508545,0.769946657587107
0,,sub_118,2024-07-26 14:10:54,3,distance,cathedral,numerosity_judgement,1,49,4,countries_forward,"['_Congo_', '_Peru_', '_Belgium_', '_Yemen_']","['f', 'm', 'm', 'f']","['p248', 'p256', 'p318', 'p268']","[7, 5, 0, 4]","[91.73820004985969, 90.34149293193902, 84.40078082039426, 89.31368318402099]",3.0,False,6.0,2.943920288775949,2.3749184608459473,0.7983316309159005
0,,sub_118,2024-07-26 14:10:58,3,distance,cathedral,numerosity_judgement,1,50,5,countries_forward,"['_Tonga_', '_Cuba_', '_Yemen_', '_Belgium_', '_Syria_']","['m', 'f', 'm', 'f', 'm']","['p307', 'p284', 'p318', 'p245', 'p229']","[0, 7, 9, 6, 4]","[84.40078082039426, 91.73820004985969, 92.00610777531934, 91.58892582949886, 89.31368318402099]",4.0,False,7.2,3.420526275297414,1.9999463558197021,0.8960503915560095
0,,sub_118,2024-07-26 14:11:03,3,distance,cathedral,numerosity_judgement,1,51,6,countries_forward,"['_Cuba_', '_Yemen_', '_Congo_', '_Sudan_', '_Oman_', '_Belgium_']","['f', 'm', 'f', 'm', 'm', 'f']","['p268', 'p229', 'p248', 'p256', 'p307', 'p245']","[0, 6, 10, 5, 1, 2]","[84.40078082039426, 91.58892582949886, 93.00003341222717, 90.34149293193902, 86.2038576498559, 87.57049330475357]",4.0,False,6.0,3.7416573867739413,2.812459707260132,0.858983089320168
0,,sub_118,2024-07-26 14:11:07,3,distance,cathedral,numerosity_judgement,1,52,3,countries_forward,"['_Yemen_', '_Oman_', '_Britain_']","['f', 'm', 'm']","['p248', 'p229', 'p307']","[10, 3, 6]","[93.00003341222717, 89.14911522239515, 91.58892582949886]",3.0,True,8.333333333333334,3.511884584284246,2.0624442100524902,0.6105209397344229
0,,sub_118,2024-07-26 14:11:10,3,distance,cathedral,numerosity_judgement,1,53,2,countries_forward,"['_Yemen_', '_Tonga_']","['f', 'f']","['p268', 'p245']","[7, 3]","[91.73820004985969, 89.14911522239515]",2.0,True,7.0,2.8284271247461903,1.7498972415924072,0.6972534332084894
0,,sub_118,2024-07-26 14:11:13,3,distance,cathedral,numerosity_judgement,1,54,4,countries_forward,"['_Tonga_', '_Peru_', '_Oman_', '_Britain_']","['f', 'f', 'm', 'f']","['p245', 'p248', 'p256', 'p268']","[7, 0, 9, 2]","[91.73820004985969, 84.40078082039426, 92.00610777531934, 87.57049330475357]",3.0,False,6.5,4.203173404306164,1.687506914138794,0.6797185336511179
0,,sub_118,2024-07-26 14:11:17,3,distance,cathedral,numerosity_judgement,1,55,6,countries_forward,"['_Peru_', '_Mali_', '_Congo_', '_Yemen_', '_Togo_', '_Oman_']","['m', 'm', 'm', 'f', 'f', 'm']","['p307', 'p229', 'p256', 'p284', 'p268', 'p318']","[10, 0, 8, 6, 1, 7]","[93.00003341222717, 84.40078082039426, 92.0152836843556, 91.58892582949886, 86.2038576498559, 91.73820004985969]",5.0,False,7.333333333333333,3.9832984656772417,1.8124492168426514,0.7224719101123596
0,,sub_118,2024-07-26 14:11:21,3,distance,cathedral,numerosity_judgement,1,56,5,countries_forward,"['_Tonga_', '_Yemen_', '_Peru_', '_Mali_', '_Oman_']","['m', 'f', 'f', 'f', 'm']","['p229', 'p268', 'p248', 'p284', 'p307']","[10, 8, 6, 2, 4]","[93.00003341222717, 92.0152836843556, 91.58892582949886, 87.57049330475357, 89.31368318402099]",4.0,False,8.0,3.1622776601683795,1.8124501705169678,0.6974804221995233
0,,sub_118,2024-07-26 14:11:25,3,distance,cathedral,numerosity_judgement,1,57,4,countries_forward,"['_Oman_', '_Yemen_', '_Syria_', '_Britain_']","['m', 'm', 'f', 'm']","['p256', 'p318', 'p248', 'p307']","[10, 9, 8, 3]","[93.00003341222717, 92.00610777531934, 92.0152836843556, 89.14911522239515]",4.0,True,9.5,3.1091263510296048,2.3749330043792725,0.7364771308591533
0,,sub_118,2024-07-26 14:11:29,3,distance,cathedral,numerosity_judgement,1,58,3,countries_forward,"['_Syria_', '_Britain_', '_Peru_']","['f', 'm', 'm']","['p268', 'p229', 'p256']","[8, 0, 10]","[92.0152836843556, 84.40078082039426, 93.00003341222717]",3.0,True,8.0,5.291502622129181,2.4999334812164307,0.9421745545341051
0,,sub_118,2024-07-26 14:11:32,3,distance,cathedral,numerosity_judgement,1,59,2,countries_forward,"['_Cuba_', '_Belgium_']","['m', 'f']","['p256', 'p245']","[9, 5]","[92.00610777531934, 90.34149293193902]",2.0,True,9.0,2.8284271247461903,1.5624141693115234,0.8982635342185904
0,,sub_118,2024-07-26 14:11:36,3,distance,cathedral,numerosity_judgement,1,60,6,countries_forward,"['_Tonga_', '_Peru_', '_Britain_', '_Oman_', '_Yemen_', '_Mali_']","['f', 'f', 'm', 'f', 'm', 'f']","['p245', 'p268', 'p318', 'p248', 'p307', 'p284']","[10, 8, 6, 9, 2, 7]","[93.00003341222717, 92.0152836843556, 91.58892582949886, 92.00610777531934, 87.57049330475357, 91.73820004985969]",4.0,False,9.0,2.8284271247461903,2.2499372959136963,0.7124843945068664
0,,sub_118,2024-07-26 14:11:40,3,distance,cathedral,numerosity_judgement,1,61,3,countries_forward,"['_Togo_', '_Cuba_', '_Yemen_']","['f', 'm', 'm']","['p245', 'p307', 'p318']","[8, 7, 9]","[92.0152836843556, 91.73820004985969, 92.00610777531934]",2.0,False,10.0,1.0,1.7499504089355469,0.7026103733968903
0,,sub_118,2024-07-26 14:11:43,3,distance,cathedral,numerosity_judgement,1,62,2,countries_forward,"['_Britain_', '_Oman_']","['m', 'm']","['p307', 'p229']","[3, 6]","[89.14911522239515, 91.58892582949886]",2.0,True,6.5,2.1213203435596424,1.874882459640503,0.5839972761321076
0,,sub_118,2024-07-26 14:11:47,3,distance,cathedral,numerosity_judgement,1,63,5,countries_forward,"['_Cuba_', '_Mali_', '_Oman_', '_Tonga_', '_Peru_']","['f', 'm', 'm', 'f', 'm']","['p268', 'p307', 'p318', 'p284', 'p256']","[6, 5, 0, 7, 3]","[91.58892582949886, 90.34149293193902, 84.40078082039426, 91.73820004985969, 89.14911522239515]",4.0,False,6.2,2.7748873851023212,1.8124511241912842,0.7284530700261037
0,,sub_118,2024-07-26 14:11:52,3,distance,cathedral,numerosity_judgement,1,64,4,countries_forward,"['_Mali_', '_Tonga_', '_Syria_', '_Britain_']","['f', 'm', 'f', 'f']","['p284', 'p229', 'p248', 'p245']","[3, 5, 0, 2]","[89.14911522239515, 90.34149293193902, 84.40078082039426, 87.57049330475357]",3.0,False,4.5,2.0816659994661326,3.3124120235443115,0.9293269776415845
0,,sub_118,2024-07-26 14:11:55,3,distance,cathedral,numerosity_judgement,1,65,3,countries_forward,"['_Peru_', '_Oman_', '_Togo_']","['f', 'm', 'm']","['p268', 'p307', 'p256']","[5, 6, 0]","[90.34149293193902, 91.58892582949886, 84.40078082039426]",2.0,False,5.666666666666667,3.2145502536643185,1.8749501705169678,0.6646578140960163
0,,sub_118,2024-07-26 14:11:59,3,distance,cathedral,numerosity_judgement,1,66,5,countries_forward,"['_Belgium_', '_Yemen_', '_Cuba_', '_Japan_', '_Oman_']","['m', 'f', 'f', 'f', 'm']","['p229', 'p268', 'p245', 'p248', 'p318']","[6, 7, 8, 10, 9]","[91.58892582949886, 91.73820004985969, 92.0152836843556, 93.00003341222717, 92.00610777531934]",5.0,True,10.0,1.5811388300841898,1.9999463558197021,0.8129156735898309
0,,sub_118,2024-07-26 14:12:02,3,distance,cathedral,numerosity_judgement,1,67,2,countries_forward,"['_Oman_', '_Yemen_']","['m', 'm']","['p229', 'p256']","[3, 6]","[89.14911522239515, 91.58892582949886]",2.0,True,6.5,2.1213203435596424,1.6874523162841797,0.5410623084780388
0,,sub_118,2024-07-26 14:12:06,3,distance,cathedral,numerosity_judgement,1,68,4,countries_forward,"['_Yemen_', '_Oman_', '_Peru_', '_Togo_']","['m', 'm', 'f', 'm']","['p229', 'p307', 'p268', 'p256']","[9, 5, 3, 10]","[92.00610777531934, 90.34149293193902, 89.14911522239515, 93.00003341222717]",4.0,True,8.75,3.304037933599835,1.6874542236328125,0.6414935875610033
0,,sub_118,2024-07-26 14:12:09,3,distance,cathedral,numerosity_judgement,1,69,6,countries_forward,"['_Yemen_', '_Congo_', '_Togo_', '_Britain_', '_Belgium_', '_Peru_']","['m', 'm', 'm', 'f', 'f', 'f']","['p256', 'p318', 'p307', 'p245', 'p268', 'p284']","[4, 2, 5, 8, 1, 10]","[89.31368318402099, 87.57049330475357, 90.34149293193902, 92.0152836843556, 86.2038576498559, 93.00003341222717]",5.0,False,7.0,3.4641016151377544,1.7499535083770752,0.820621949835433
0,,sub_118,2024-07-26 14:12:13,3,distance,cathedral,numerosity_judgement,1,70,3,countries_forward,"['_Tonga_', '_Oman_', '_Congo_']","['f', 'm', 'm']","['p245', 'p307', 'p229']","[4, 6, 0]","[89.31368318402099, 91.58892582949886, 84.40078082039426]",3.0,True,5.333333333333333,3.0550504633038935,1.937441349029541,0.6537736919759392
0,,sub_118,2024-07-26 14:12:17,3,distance,cathedral,numerosity_judgement,1,71,6,countries_forward,"['_Tonga_', '_Cuba_', '_Sudan_', '_Mali_', '_Peru_', '_Congo_']","['m', 'm', 'f', 'f', 'f', 'm']","['p307', 'p256', 'p284', 'p245', 'p268', 'p318']","[2, 1, 3, 9, 6, 8]","[87.57049330475357, 86.2038576498559, 89.14911522239515, 92.00610777531934, 91.58892582949886, 92.0152836843556]",5.0,False,6.833333333333333,3.3115957885386114,1.7499535083770752,0.8959709454091477
0,,sub_118,2024-07-26 14:12:20,3,distance,cathedral,numerosity_judgement,1,72,2,countries_forward,"['_Yemen_', '_Congo_']","['m', 'm']","['p229', 'p307']","[4, 0]","[89.31368318402099, 84.40078082039426]",2.0,True,4.0,2.8284271247461903,1.5624573230743408,0.8331403926909545
0,,sub_118,2024-07-26 14:12:24,3,distance,cathedral,numerosity_judgement,1,73,5,countries_forward,"['_Britain_', '_Congo_', '_Mali_', '_Sudan_', '_Syria_']","['f', 'f', 'f', 'm', 'f']","['p248', 'p268', 'p284', 'p229', 'p245']","[7, 1, 9, 4, 10]","[91.73820004985969, 86.2038576498559, 92.00610777531934, 89.31368318402099, 93.00003341222717]",5.0,True,8.2,3.7013511046643495,2.0624442100524902,0.9290091930541368
0,,sub_118,2024-07-26 14:12:27,3,distance,cathedral,numerosity_judgement,1,74,4,countries_forward,"['_Syria_', '_Peru_', '_Togo_', '_Britain_']","['f', 'm', 'f', 'm']","['p248', 'p256', 'p268', 'p318']","[7, 9, 4, 5]","[91.73820004985969, 92.00610777531934, 89.31368318402099, 90.34149293193902]",4.0,True,8.25,2.217355782608345,1.8124511241912842,0.8766882306208149
0,,sub_118,2024-07-26 14:13:27,3,distance,cathedral,numerosity_judgement,2,0,2,countries_forward,"['_Oman_', '_Yemen_']","['m', 'm']","['p229', 'p256']","[3, 6]","[89.14911522239515, 91.58892582949886]",2.0,True,6.5,2.1213203435596424,1.6874547004699707,0.5410623084780388
0,,sub_118,2024-07-26 14:13:31,3,distance,cathedral,numerosity_judgement,2,1,6,countries_forward,"['_Syria_', '_Yemen_', '_Congo_', '_Japan_', '_Tonga_', '_Britain_']","['m', 'f', 'm', 'm', 'f', 'm']","['p307', 'p248', 'p318', 'p229', 'p284', 'p256']","[3, 4, 6, 8, 10, 7]","[89.14911522239515, 89.31368318402099, 91.58892582949886, 92.0152836843556, 93.00003341222717, 91.73820004985969]",5.0,False,8.333333333333334,2.581988897471611,1.7967605590820312,0.84401316536148
0,,sub_118,2024-07-26 14:13:36,3,distance,cathedral,numerosity_judgement,2,2,5,countries_forward,"['_Syria_', '_Belgium_', '_Peru_', '_Sudan_', '_Mali_']","['m', 'm', 'f', 'f', 'f']","['p318', 'p307', 'p284', 'p248', 'p268']","[2, 3, 4, 9, 0]","[87.57049330475357, 89.14911522239515, 89.31368318402099, 92.00610777531934, 84.40078082039426]",5.0,True,5.6,3.361547262794322,1.9360153675079346,0.9529111338100102
0,,sub_118,2024-07-26 14:13:40,3,distance,cathedral,numerosity_judgement,2,3,4,countries_forward,"['_Britain_', '_Mali_', '_Peru_', '_Oman_']","['f', 'f', 'm', 'm']","['p268', 'p248', 'p318', 'p229']","[0, 4, 1, 3]","[84.40078082039426, 89.31368318402099, 86.2038576498559, 89.14911522239515]",3.0,False,4.0,1.8257418583505538,1.7655057907104492,0.6887413460447168
0,,sub_118,2024-07-26 14:13:43,3,distance,cathedral,numerosity_judgement,2,4,3,countries_forward,"['_Oman_', '_Yemen_', '_Britain_']","['m', 'f', 'f']","['p307', 'p268', 'p245']","[4, 8, 1]","[89.31368318402099, 92.0152836843556, 86.2038576498559]",2.0,False,6.333333333333333,3.5118845842842465,1.4156279563903809,0.6117807286346613
0,,sub_118,2024-07-26 14:13:46,3,distance,cathedral,numerosity_judgement,2,5,5,countries_forward,"['_Belgium_', '_Congo_', '_Tonga_', '_Britain_', '_Peru_']","['m', 'm', 'f', 'm', 'f']","['p307', 'p229', 'p248', 'p318', 'p245']","[3, 8, 6, 1, 7]","[89.14911522239515, 92.0152836843556, 91.58892582949886, 86.2038576498559, 91.73820004985969]",4.0,False,7.0,2.9154759474226504,1.4784486293792725,0.7540914765633867
0,,sub_118,2024-07-26 14:13:50,3,distance,cathedral,numerosity_judgement,2,6,2,countries_forward,"['_Oman_', '_Britain_']","['m', 'm']","['p229', 'p256']","[8, 7]","[92.0152836843556, 91.73820004985969]",2.0,True,9.5,0.7071067811865476,1.8453750610351562,0.6166042446941323
0,,sub_118,2024-07-26 14:13:55,3,distance,cathedral,numerosity_judgement,2,7,4,countries_forward,"['_Oman_', '_Mali_', '_Yemen_', '_Britain_']","['f', 'f', 'm', 'f']","['p248', 'p268', 'p256', 'p245']","[3, 6, 9, 7]","[89.14911522239515, 91.58892582949886, 92.00610777531934, 91.73820004985969]",3.0,False,8.25,2.5,2.7803163528442383,0.6700034048348655
0,,sub_118,2024-07-26 14:13:59,3,distance,cathedral,numerosity_judgement,2,8,6,countries_forward,"['_Cuba_', '_Congo_', '_Oman_', '_Togo_', '_Peru_', '_Mali_']","['m', 'f', 'f', 'm', 'f', 'f']","['p307', 'p248', 'p268', 'p256', 'p284', 'p245']","[1, 8, 9, 2, 4, 3]","[86.2038576498559, 92.0152836843556, 92.00610777531934, 87.57049330475357, 89.31368318402099, 89.14911522239515]",5.0,False,6.5,3.271085446759225,2.106187105178833,0.8381001021450459
0,,sub_118,2024-07-26 14:14:03,3,distance,cathedral,numerosity_judgement,2,9,3,countries_forward,"['_Mali_', '_Sudan_', '_Belgium_']","['m', 'f', 'f']","['p256', 'p248', 'p284']","[1, 0, 4]","[86.2038576498559, 84.40078082039426, 89.31368318402099]",2.0,False,3.6666666666666665,2.081665999466133,2.0832905769348145,0.9563046192259675
0,,sub_118,2024-07-26 14:14:06,3,distance,cathedral,numerosity_judgement,2,10,4,countries_forward,"['_Yemen_', '_Tonga_', '_Togo_', '_Peru_']","['m', 'm', 'f', 'f']","['p229', 'p256', 'p284', 'p248']","[5, 10, 3, 1]","[90.34149293193902, 93.00003341222717, 89.14911522239515, 86.2038576498559]",4.0,True,6.75,3.8622100754188224,1.7407865524291992,0.8216660991941891
0,,sub_118,2024-07-26 14:14:09,3,distance,cathedral,numerosity_judgement,2,11,2,countries_forward,"['_Cuba_', '_Tonga_']","['f', 'm']","['p248', 'p256']","[2, 3]","[87.57049330475357, 89.14911522239515]",2.0,True,4.5,0.7071067811865476,1.538318157196045,0.8292475314947225
0,,sub_118,2024-07-26 14:14:12,3,distance,cathedral,numerosity_judgement,2,12,3,countries_forward,"['_Tonga_', '_Yemen_', '_Oman_']","['f', 'm', 'm']","['p268', 'p256', 'p318']","[2, 10, 7]","[87.57049330475357, 93.00003341222717, 91.73820004985969]",3.0,True,8.333333333333334,4.041451884327381,1.6891570091247559,0.717852684144819
0,,sub_118,2024-07-26 14:14:16,3,distance,cathedral,numerosity_judgement,2,13,5,countries_forward,"['_Cuba_', '_Mali_', '_Peru_', '_Yemen_', '_Oman_']","['m', 'm', 'f', 'f', 'f']","['p229', 'p256', 'p245', 'p248', 'p268']","[2, 1, 10, 7, 3]","[87.57049330475357, 86.2038576498559, 93.00003341222717, 91.73820004985969, 89.14911522239515]",5.0,True,6.6,3.7815340802378072,1.4311878681182861,0.7842356145726932
0,,sub_118,2024-07-26 14:14:19,3,distance,cathedral,numerosity_judgement,2,14,6,countries_forward,"['_Oman_', '_Congo_', '_Cuba_', '_Tonga_', '_Yemen_', '_Sudan_']","['m', 'f', 'f', 'f', 'f', 'm']","['p256', 'p268', 'p245', 'p248', 'p284', 'p307']","[10, 5, 7, 6, 0, 9]","[93.00003341222717, 90.34149293193902, 91.73820004985969, 91.58892582949886, 84.40078082039426, 92.00610777531934]",6.0,True,8.166666666666666,3.5449494589721118,1.1858830451965332,0.7291680853478606
0,,sub_118,2024-07-26 14:14:23,3,distance,cathedral,numerosity_judgement,2,15,4,countries_forward,"['_Yemen_', '_Japan_', '_Britain_', '_Mali_']","['m', 'f', 'f', 'f']","['p256', 'p268', 'p248', 'p284']","[10, 1, 8, 5]","[93.00003341222717, 86.2038576498559, 92.0152836843556, 90.34149293193902]",5.0,False,8.0,3.9157800414902435,1.9784576892852783,0.8076268300987403
0,,sub_118,2024-07-26 14:14:27,3,distance,cathedral,numerosity_judgement,2,16,5,countries_forward,"['_Syria_', '_Cuba_', '_Togo_', '_Tonga_', '_Oman_']","['f', 'f', 'm', 'f', 'm']","['p248', 'p268', 'p318', 'p245', 'p229']","[0, 3, 4, 6, 10]","[84.40078082039426, 89.14911522239515, 89.31368318402099, 91.58892582949886, 93.00003341222717]",4.0,False,6.6,3.714835124201342,2.124992609024048,0.696220633299285
0,,sub_118,2024-07-26 14:14:30,3,distance,cathedral,numerosity_judgement,2,17,3,countries_forward,"['_Belgium_', '_Japan_', '_Oman_']","['f', 'f', 'm']","['p284', 'p248', 'p256']","[9, 10, 3]","[92.00610777531934, 93.00003341222717, 89.14911522239515]",2.0,False,9.333333333333334,3.7859388972001824,1.6874547004699707,0.8871978209056861
0,,sub_118,2024-07-26 14:14:33,3,distance,cathedral,numerosity_judgement,2,18,2,countries_forward,"['_Syria_', '_Sudan_']","['f', 'f']","['p284', 'p248']","[7, 1]","[91.73820004985969, 86.2038576498559]",2.0,True,6.0,4.242640687119285,1.562394618988037,0.959652706843718
0,,sub_118,2024-07-26 14:14:37,3,distance,cathedral,numerosity_judgement,2,19,6,countries_forward,"['_Congo_', '_Tonga_', '_Mali_', '_Cuba_', '_Belgium_', '_Yemen_']","['m', 'f', 'f', 'm', 'f', 'f']","['p229', 'p245', 'p268', 'p307', 'p248', 'p284']","[9, 5, 4, 7, 6, 2]","[92.00610777531934, 90.34149293193902, 89.31368318402099, 91.73820004985969, 91.58892582949886, 87.57049330475357]",5.0,False,7.5,2.4289915602982237,1.6875107288360596,0.7404834865509022
0,,sub_118,2024-07-26 14:14:41,3,distance,cathedral,numerosity_judgement,2,20,5,countries_forward,"['_Belgium_', '_Peru_', '_Sudan_', '_Togo_', '_Congo_']","['m', 'm', 'f', 'm', 'm']","['p229', 'p256', 'p284', 'p307', 'p318']","[3, 2, 6, 0, 1]","[89.14911522239515, 87.57049330475357, 91.58892582949886, 84.40078082039426, 86.2038576498559]",4.0,False,4.4,2.3021728866442674,2.1873929500579834,0.939972761321076
0,,sub_118,2024-07-26 14:14:45,3,distance,cathedral,numerosity_judgement,2,21,3,countries_forward,"['_Sudan_', '_Yemen_', '_Britain_']","['m', 'f', 'm']","['p307', 'p248', 'p318']","[9, 3, 7]","[92.00610777531934, 89.14911522239515, 91.73820004985969]",3.0,True,8.333333333333334,3.055050463303893,1.999946117401123,0.8337986607649529
0,,sub_118,2024-07-26 14:14:48,3,distance,cathedral,numerosity_judgement,2,22,4,countries_forward,"['_Mali_', '_Sudan_', '_Syria_', '_Togo_']","['f', 'm', 'f', 'f']","['p268', 'p318', 'p245', 'p284']","[1, 9, 0, 8]","[86.2038576498559, 92.00610777531934, 84.40078082039426, 92.0152836843556]",5.0,False,6.5,4.654746681256314,2.073538064956665,0.9453977982067868
0,,sub_118,2024-07-26 14:14:52,3,distance,cathedral,numerosity_judgement,2,23,6,countries_forward,"['_Yemen_', '_Peru_', '_Oman_', '_Tonga_', '_Togo_', '_Britain_']","['f', 'm', 'f', 'f', 'f', 'm']","['p245', 'p307', 'p284', 'p268', 'p248', 'p318']","[4, 10, 9, 5, 7, 1]","[89.31368318402099, 93.00003341222717, 92.00610777531934, 90.34149293193902, 91.73820004985969, 86.2038576498559]",6.0,True,8.0,3.3466401061363023,1.8124542236328125,0.8016116218363409
0,,sub_118,2024-07-26 14:14:56,3,distance,cathedral,numerosity_judgement,2,24,2,countries_forward,"['_Japan_', '_Oman_']","['m', 'm']","['p318', 'p229']","[4, 9]","[89.31368318402099, 92.00610777531934]",2.0,True,8.5,3.5355339059327378,1.9530928134918213,0.8386448757235274
0,,sub_118,2024-07-26 14:14:59,3,distance,cathedral,numerosity_judgement,2,25,3,countries_forward,"['_Oman_', '_Britain_', '_Yemen_']","['f', 'f', 'f']","['p268', 'p248', 'p284']","[6, 1, 7]","[91.58892582949886, 86.2038576498559, 91.73820004985969]",2.0,False,6.666666666666667,3.2145502536643185,1.9374916553497314,0.8142435591873795
0,,sub_118,2024-07-26 14:15:03,3,distance,cathedral,numerosity_judgement,2,26,2,countries_forward,"['_Yemen_', '_Peru_']","['f', 'm']","['p245', 'p318']","[7, 8]","[91.73820004985969, 92.0152836843556]",2.0,True,9.5,0.7071067811865476,2.0936923027038574,0.6986834638520032
0,,sub_118,2024-07-26 14:15:07,3,distance,cathedral,numerosity_judgement,2,27,5,countries_forward,"['_Oman_', '_Peru_', '_Congo_', '_Britain_', '_Togo_']","['m', 'm', 'f', 'm', 'f']","['p229', 'p256', 'p248', 'p318', 'p268']","[6, 2, 10, 4, 9]","[91.58892582949886, 87.57049330475357, 93.00003341222717, 89.31368318402099, 92.00610777531934]",3.0,False,8.2,3.3466401061363023,2.187441110610962,0.7160821700147543
0,,sub_118,2024-07-26 14:15:11,3,distance,cathedral,numerosity_judgement,2,28,6,countries_forward,"['_Yemen_', '_Tonga_', '_Mali_', '_Cuba_', '_Togo_', '_Congo_']","['m', 'f', 'f', 'm', 'm', 'f']","['p318', 'p268', 'p248', 'p307', 'p256', 'p245']","[5, 3, 10, 7, 2, 4]","[90.34149293193902, 89.14911522239515, 93.00003341222717, 91.73820004985969, 87.57049330475357, 89.31368318402099]",4.0,False,7.166666666666667,2.9268868558020253,2.062443256378174,0.6946544092611509
0,,sub_118,2024-07-26 14:15:15,3,distance,cathedral,numerosity_judgement,2,29,4,countries_forward,"['_Cuba_', '_Mali_', '_Japan_', '_Togo_']","['m', 'm', 'm', 'f']","['p256', 'p229', 'p307', 'p248']","[5, 1, 8, 0]","[90.34149293193902, 86.2038576498559, 92.0152836843556, 84.40078082039426]",4.0,True,5.5,3.696845502136472,2.124943256378174,0.8597094540914766
0,,sub_118,2024-07-26 14:15:19,3,distance,cathedral,numerosity_judgement,2,30,5,countries_forward,"['_Tonga_', '_Cuba_', '_Yemen_', '_Sudan_', '_Mali_']","['f', 'f', 'm', 'm', 'f']","['p268', 'p245', 'p307', 'p318', 'p248']","[1, 2, 5, 10, 8]","[86.2038576498559, 87.57049330475357, 90.34149293193902, 93.00003341222717, 92.0152836843556]",5.0,True,7.2,3.8340579025361627,1.9374210834503174,0.9257065032345932
0,,sub_118,2024-07-26 14:15:22,3,distance,cathedral,numerosity_judgement,2,31,4,countries_forward,"['_Belgium_', '_Mali_', '_Sudan_', '_Tonga_']","['f', 'f', 'm', 'm']","['p284', 'p245', 'p256', 'p318']","[1, 8, 7, 0]","[86.2038576498559, 92.0152836843556, 91.73820004985969, 84.40078082039426]",4.0,True,6.0,4.08248290463863,1.6874568462371826,0.8769038701622971
0,,sub_118,2024-07-26 14:15:26,3,distance,cathedral,numerosity_judgement,2,32,6,countries_forward,"['_Britain_', '_Syria_', '_Cuba_', '_Oman_', '_Peru_', '_Japan_']","['f', 'm', 'm', 'm', 'f', 'f']","['p245', 'p256', 'p307', 'p229', 'p248', 'p268']","[5, 3, 10, 0, 1, 7]","[90.34149293193902, 89.14911522239515, 93.00003341222717, 84.40078082039426, 86.2038576498559, 91.73820004985969]",6.0,True,6.333333333333333,3.777124126457412,1.9374747276306152,0.8217341958914992
0,,sub_118,2024-07-26 14:15:30,3,distance,cathedral,numerosity_judgement,2,33,3,countries_forward,"['_Mali_', '_Congo_', '_Japan_']","['f', 'm', 'f']","['p268', 'p229', 'p248']","[3, 9, 2]","[89.14911522239515, 92.00610777531934, 87.57049330475357]",4.0,False,6.666666666666667,3.7859388972001824,1.9999480247497559,0.8742027011689933
0,,sub_118,2024-07-26 14:15:33,3,distance,cathedral,numerosity_judgement,2,34,2,countries_forward,"['_Yemen_', '_Tonga_']","['m', 'f']","['p256', 'p248']","[7, 9]","[91.73820004985969, 92.00610777531934]",2.0,True,10.0,1.4142135623730951,1.687455415725708,0.7640449438202247
0,,sub_118,2024-07-26 14:15:37,3,distance,cathedral,numerosity_judgement,2,35,3,countries_forward,"['_Yemen_', '_Oman_', '_Britain_']","['m', 'm', 'f']","['p229', 'p307', 'p245']","[3, 8, 7]","[89.14911522239515, 92.0152836843556, 91.73820004985969]",2.0,False,8.0,2.6457513110645907,2.374936103820801,0.6654295766655317
0,,sub_118,2024-07-26 14:15:40,3,distance,cathedral,numerosity_judgement,2,36,5,countries_forward,"['_Britain_', '_Togo_', '_Congo_', '_Oman_', '_Belgium_']","['f', 'm', 'f', 'f', 'm']","['p245', 'p256', 'p284', 'p248', 'p229']","[7, 2, 3, 4, 6]","[91.73820004985969, 87.57049330475357, 89.14911522239515, 89.31368318402099, 91.58892582949886]",4.0,False,6.4,2.073644135332772,1.6249561309814453,0.8986834638520032
0,,sub_118,2024-07-26 14:15:44,3,distance,cathedral,numerosity_judgement,2,37,6,countries_forward,"['_Oman_', '_Belgium_', '_Congo_', '_Peru_', '_Togo_', '_Yemen_']","['f', 'm', 'm', 'f', 'f', 'f']","['p268', 'p229', 'p256', 'p245', 'p284', 'p248']","[8, 10, 5, 4, 6, 2]","[92.0152836843556, 93.00003341222717, 90.34149293193902, 89.31368318402099, 91.58892582949886, 87.57049330475357]",6.0,True,7.833333333333333,2.857738033247041,1.6874549388885498,0.8781636590625355
0,,sub_118,2024-07-26 14:15:48,3,distance,cathedral,numerosity_judgement,2,38,4,countries_forward,"['_Congo_', '_Mali_', '_Japan_', '_Belgium_']","['m', 'f', 'f', 'm']","['p318', 'p245', 'p248', 'p307']","[1, 2, 0, 3]","[86.2038576498559, 87.57049330475357, 84.40078082039426, 89.14911522239515]",3.0,False,3.5,1.2909944487358056,2.6248667240142822,0.9093405969810464
0,,sub_118,2024-07-26 14:15:51,3,distance,cathedral,numerosity_judgement,2,39,2,countries_forward,"['_Oman_', '_Cuba_']","['m', 'f']","['p307', 'p245']","[5, 4]","[90.34149293193902, 89.31368318402099]",2.0,True,6.5,0.7071067811865476,1.5624315738677979,0.6801611621836341
0,,sub_118,2024-07-26 14:15:55,3,distance,cathedral,numerosity_judgement,2,40,4,countries_forward,"['_Yemen_', '_Japan_', '_Oman_', '_Cuba_']","['f', 'f', 'f', 'm']","['p268', 'p248', 'p284', 'p307']","[8, 6, 9, 5]","[92.0152836843556, 91.58892582949886, 92.00610777531934, 90.34149293193902]",3.0,False,9.0,1.8257418583505538,1.8124511241912842,0.7208716377255703
0,,sub_118,2024-07-26 14:15:59,3,distance,cathedral,numerosity_judgement,2,41,6,countries_forward,"['_Sudan_', '_Tonga_', '_Congo_', '_Mali_', '_Syria_', '_Togo_']","['m', 'm', 'm', 'f', 'f', 'f']","['p229', 'p307', 'p318', 'p284', 'p268', 'p248']","[6, 8, 5, 9, 0, 7]","[91.58892582949886, 92.0152836843556, 90.34149293193902, 92.00610777531934, 84.40078082039426, 91.73820004985969]",6.0,True,7.833333333333333,3.1885210782848317,1.8749217987060547,0.9515491998638066
0,,sub_118,2024-07-26 14:16:02,3,distance,cathedral,numerosity_judgement,2,42,3,countries_forward,"['_Britain_', '_Tonga_', '_Yemen_']","['m', 'f', 'f']","['p307', 'p248', 'p284']","[9, 5, 2]","[92.00610777531934, 90.34149293193902, 87.57049330475357]",3.0,True,7.333333333333333,3.5118845842842465,1.7499449253082275,0.773351492452616
0,,sub_118,2024-07-26 14:16:05,3,distance,cathedral,numerosity_judgement,2,43,2,countries_forward,"['_Britain_', '_Oman_']","['m', 'f']","['p307', 'p268']","[10, 7]","[93.00003341222717, 91.73820004985969]",3.0,False,10.5,2.1213203435596424,1.749932050704956,0.6459085234366133
0,,sub_118,2024-07-26 14:16:09,3,distance,cathedral,numerosity_judgement,2,44,5,countries_forward,"['_Mali_', '_Congo_', '_Belgium_', '_Yemen_', '_Britain_']","['f', 'f', 'f', 'm', 'm']","['p268', 'p248', 'p284', 'p229', 'p256']","[7, 6, 9, 4, 8]","[91.73820004985969, 91.58892582949886, 92.00610777531934, 89.31368318402099, 92.0152836843556]",5.0,True,8.8,1.9235384061671346,1.8124284744262695,0.8271592327772103
0,,sub_118,2024-07-26 14:16:12,3,distance,cathedral,numerosity_judgement,2,45,2,countries_forward,"['_Sudan_', '_Oman_']","['f', 'm']","['p284', 'p318']","[0, 10]","[84.40078082039426, 93.00003341222717]",2.0,True,7.0,7.0710678118654755,1.8124284744262695,0.881886278515492
0,,sub_118,2024-07-26 14:16:18,3,distance,cathedral,numerosity_judgement,2,46,5,countries_forward,"['_Belgium_', '_Britain_', '_Togo_', '_Congo_', '_Tonga_']","['m', 'f', 'm', 'f', 'f']","['p256', 'p284', 'p229', 'p245', 'p248']","[5, 1, 2, 8, 6]","[90.34149293193902, 86.2038576498559, 87.57049330475357, 92.0152836843556, 91.58892582949886]",5.0,True,6.4,2.8809720581775866,3.9998440742492676,0.8706162751106571
0,,sub_118,2024-07-26 14:16:22,3,distance,cathedral,numerosity_judgement,2,47,3,countries_forward,"['_Yemen_', '_Mali_', '_Cuba_']","['m', 'm', 'f']","['p256', 'p229', 'p268']","[6, 4, 8]","[91.58892582949886, 89.31368318402099, 92.0152836843556]",3.0,True,8.0,2.0,2.6873953342437744,0.686789240721825
0,,sub_118,2024-07-26 14:16:27,3,distance,cathedral,numerosity_judgement,2,48,6,countries_forward,"['_Oman_', '_Yemen_', '_Congo_', '_Japan_', '_Togo_', '_Tonga_']","['m', 'm', 'f', 'f', 'm', 'm']","['p318', 'p256', 'p284', 'p268', 'p307', 'p229']","[9, 10, 1, 5, 3, 0]","[92.00610777531934, 93.00003341222717, 86.2038576498559, 90.34149293193902, 89.14911522239515, 84.40078082039426]",5.0,False,6.666666666666667,4.131182235954578,2.1874217987060547,0.7710135058449665
0,,sub_118,2024-07-26 14:16:32,3,distance,cathedral,numerosity_judgement,2,49,4,countries_forward,"['_Oman_', '_Tonga_', '_Togo_', '_Yemen_']","['m', 'f', 'f', 'm']","['p229', 'p245', 'p284', 'p318']","[5, 3, 2, 8]","[90.34149293193902, 89.14911522239515, 87.57049330475357, 92.0152836843556]",4.0,True,6.5,2.6457513110645907,3.74985408782959,0.7899443876971967
0,,sub_118,2024-07-26 14:16:36,3,distance,cathedral,numerosity_judgement,2,50,5,countries_forward,"['_Yemen_', '_Japan_', '_Britain_', '_Peru_', '_Congo_']","['f', 'f', 'm', 'm', 'm']","['p268', 'p245', 'p307', 'p318', 'p256']","[9, 10, 3, 2, 5]","[92.00610777531934, 93.00003341222717, 89.14911522239515, 87.57049330475357, 90.34149293193902]",5.0,True,7.8,3.5637059362410923,2.0624196529388428,0.8429690160027239
0,,sub_118,2024-07-26 14:16:42,3,distance,cathedral,numerosity_judgement,2,51,4,countries_forward,"['_Cuba_', '_Yemen_', '_Congo_', '_Oman_']","['m', 'f', 'f', 'f']","['p307', 'p268', 'p245', 'p248']","[7, 8, 4, 3]","[91.73820004985969, 92.0152836843556, 89.31368318402099, 89.14911522239515]",4.0,True,7.5,2.3804761428476167,3.6874170303344727,0.629043241402792
0,,sub_118,2024-07-26 14:16:45,3,distance,cathedral,numerosity_judgement,2,52,3,countries_forward,"['_Tonga_', '_Peru_', '_Yemen_']","['f', 'm', 'f']","['p245', 'p318', 'p268']","[5, 7, 6]","[90.34149293193902, 91.73820004985969, 91.58892582949886]",3.0,True,8.0,1.0,1.874927043914795,0.6370332538871865
0,,sub_118,2024-07-26 14:16:51,3,distance,cathedral,numerosity_judgement,2,53,6,countries_forward,"['_Syria_', '_Japan_', '_Togo_', '_Belgium_', '_Yemen_', '_Peru_']","['m', 'm', 'f', 'm', 'f', 'm']","['p307', 'p229', 'p284', 'p256', 'p248', 'p318']","[5, 2, 9, 8, 10, 0]","[90.34149293193902, 87.57049330475357, 92.00610777531934, 92.0152836843556, 93.00003341222717, 84.40078082039426]",5.0,False,7.666666666666667,4.033195589934446,3.4998629093170166,0.9031778458744752
0,,sub_118,2024-07-26 14:16:54,3,distance,cathedral,numerosity_judgement,2,54,2,countries_forward,"['_Cuba_', '_Oman_']","['m', 'f']","['p307', 'p268']","[2, 1]","[87.57049330475357, 86.2038576498559]",2.0,True,3.5,0.7071067811865476,1.7499313354492188,0.7398706162751106
0,,sub_118,2024-07-26 14:16:59,3,distance,cathedral,numerosity_judgement,2,55,5,countries_forward,"['_Mali_', '_Cuba_', '_Japan_', '_Britain_', '_Peru_']","['f', 'm', 'f', 'm', 'm']","['p248', 'p318', 'p245', 'p229', 'p307']","[9, 8, 3, 4, 5]","[92.00610777531934, 92.0152836843556, 89.14911522239515, 89.31368318402099, 90.34149293193902]",5.0,True,7.8,2.588435821108957,2.937385320663452,0.8764385427306776
0,,sub_118,2024-07-26 14:17:05,3,distance,cathedral,numerosity_judgement,2,56,6,countries_forward,"['_Cuba_', '_Peru_', '_Togo_', '_Syria_', '_Yemen_', '_Oman_']","['m', 'f', 'f', 'f', 'm', 'f']","['p307', 'p245', 'p284', 'p248', 'p318', 'p268']","[7, 10, 0, 2, 3, 1]","[91.73820004985969, 93.00003341222717, 84.40078082039426, 87.57049330475357, 89.14911522239515, 86.2038576498559]",5.0,False,5.833333333333333,3.8686776379877745,4.312332391738892,0.7590965838156849
0,,sub_118,2024-07-26 14:17:09,3,distance,cathedral,numerosity_judgement,2,57,3,countries_forward,"['_Syria_', '_Britain_', '_Oman_']","['f', 'm', 'm']","['p268', 'p307', 'p318']","[7, 5, 6]","[91.73820004985969, 90.34149293193902, 91.58892582949886]",3.0,True,8.0,1.0,2.7498929500579834,0.909283849733288
0,,sub_118,2024-07-26 14:17:13,3,distance,cathedral,numerosity_judgement,2,58,4,countries_forward,"['_Togo_', '_Belgium_', '_Sudan_', '_Yemen_']","['m', 'f', 'f', 'f']","['p256', 'p284', 'p268', 'p245']","[4, 1, 9, 0]","[89.31368318402099, 86.2038576498559, 92.00610777531934, 84.40078082039426]",3.0,False,5.5,4.041451884327381,2.06242036819458,0.9591419816138916
0,,sub_118,2024-07-26 14:17:16,3,distance,cathedral,numerosity_judgement,2,59,2,countries_forward,"['_Oman_', '_Yemen_']","['m', 'f']","['p307', 'p245']","[6, 10]","[91.58892582949886, 93.00003341222717]",2.0,True,10.0,2.8284271247461903,1.4999423027038574,0.5938372488934287
0,,sub_118,2024-07-26 14:17:21,3,distance,cathedral,numerosity_judgement,2,60,6,countries_forward,"['_Syria_', '_Yemen_', '_Japan_', '_Congo_', '_Sudan_', '_Belgium_']","['m', 'm', 'f', 'f', 'f', 'm']","['p307', 'p229', 'p245', 'p248', 'p284', 'p256']","[1, 6, 0, 5, 4, 2]","[86.2038576498559, 91.58892582949886, 84.40078082039426, 90.34149293193902, 89.31368318402099, 87.57049330475357]",4.0,False,5.0,2.3664319132398464,2.7498929500579834,0.9221087277267052
0,,sub_118,2024-07-26 14:17:24,3,distance,cathedral,numerosity_judgement,2,61,3,countries_forward,"['_Peru_', '_Togo_', '_Tonga_']","['f', 'm', 'm']","['p268', 'p307', 'p256']","[3, 7, 6]","[89.14911522239515, 91.73820004985969, 91.58892582949886]",4.0,False,7.333333333333333,2.0816659994661326,1.9999220371246338,0.7549880830779707
0,,sub_118,2024-07-26 14:17:28,3,distance,cathedral,numerosity_judgement,2,62,2,countries_forward,"['_Oman_', '_Britain_']","['f', 'f']","['p248', 'p268']","[1, 6]","[86.2038576498559, 91.58892582949886]",2.0,True,5.5,3.5355339059327378,1.999922752380371,0.9047781182612644
0,,sub_118,2024-07-26 14:17:32,3,distance,cathedral,numerosity_judgement,2,63,4,countries_forward,"['_Peru_', '_Yemen_', '_Mali_', '_Oman_']","['m', 'm', 'm', 'f']","['p307', 'p229', 'p318', 'p248']","[3, 0, 6, 10]","[89.14911522239515, 84.40078082039426, 91.58892582949886, 93.00003341222717]",3.0,False,6.75,4.272001872658765,2.187415361404419,0.7405629326977642
0,,sub_118,2024-07-26 14:17:36,3,distance,cathedral,numerosity_judgement,2,64,5,countries_forward,"['_Japan_', '_Syria_', '_Yemen_', '_Cuba_', '_Togo_']","['f', 'm', 'f', 'm', 'f']","['p268', 'p307', 'p248', 'p318', 'p245']","[1, 3, 0, 9, 5]","[86.2038576498559, 89.14911522239515, 84.40078082039426, 92.00610777531934, 90.34149293193902]",4.0,False,5.6,3.5777087639996634,2.1249172687530518,0.8122347066167291
0,,sub_118,2024-07-26 14:17:40,3,distance,cathedral,numerosity_judgement,2,65,6,countries_forward,"['_Syria_', '_Tonga_', '_Togo_', '_Belgium_', '_Japan_', '_Peru_']","['f', 'm', 'f', 'm', 'm', 'f']","['p284', 'p307', 'p268', 'p256', 'p318', 'p248']","[6, 4, 10, 7, 0, 8]","[91.58892582949886, 89.31368318402099, 93.00003341222717, 91.73820004985969, 84.40078082039426, 92.0152836843556]",6.0,True,7.833333333333333,3.488074922742725,1.999922752380371,0.8726364771308591
0,,sub_118,2024-07-26 14:17:44,3,distance,cathedral,numerosity_judgement,2,66,3,countries_forward,"['_Congo_', '_Syria_', '_Oman_']","['m', 'm', 'f']","['p256', 'p307', 'p245']","[8, 2, 6]","[92.0152836843556, 87.57049330475357, 91.58892582949886]",3.0,True,7.333333333333333,3.0550504633038935,2.6873958110809326,0.7884689592554761
0,,sub_118,2024-07-26 14:17:48,3,distance,cathedral,numerosity_judgement,2,67,4,countries_forward,"['_Britain_', '_Togo_', '_Congo_', '_Cuba_']","['f', 'm', 'f', 'f']","['p284', 'p256', 'p245', 'p248']","[8, 3, 10, 6]","[92.0152836843556, 89.14911522239515, 93.00003341222717, 91.58892582949886]",4.0,True,8.75,2.9860788111948193,2.6248977184295654,0.902167744864374
0,,sub_118,2024-07-26 14:17:52,3,distance,cathedral,numerosity_judgement,2,68,5,countries_forward,"['_Yemen_', '_Congo_', '_Britain_', '_Syria_', '_Peru_']","['m', 'm', 'f', 'm', 'f']","['p256', 'p229', 'p268', 'p307', 'p248']","[5, 2, 9, 10, 6]","[90.34149293193902, 87.57049330475357, 92.00610777531934, 93.00003341222717, 91.58892582949886]",5.0,True,8.4,3.2093613071762426,2.1249189376831055,0.7741119055725797
0,,sub_118,2024-07-26 14:17:56,3,distance,cathedral,numerosity_judgement,2,69,2,countries_forward,"['_Tonga_', '_Mali_']","['f', 'f']","['p268', 'p245']","[3, 9]","[89.14911522239515, 92.00610777531934]",2.0,True,8.0,4.242640687119285,2.1249818801879883,0.7768130745658836
0,,sub_118,2024-07-26 14:18:02,3,distance,cathedral,numerosity_judgement,2,70,3,countries_forward,"['_Japan_', '_Oman_', '_Syria_']","['m', 'f', 'f']","['p229', 'p268', 'p284']","[2, 6, 0]","[87.57049330475357, 91.58892582949886, 84.40078082039426]",3.0,True,4.666666666666667,3.0550504633038935,3.9373464584350586,0.9364657814096016
0,,sub_118,2024-07-26 14:18:06,3,distance,cathedral,numerosity_judgement,2,71,5,countries_forward,"['_Britain_', '_Oman_', '_Peru_', '_Japan_', '_Congo_']","['m', 'm', 'm', 'm', 'f']","['p307', 'p229', 'p318', 'p256', 'p268']","[6, 9, 10, 3, 5]","[91.58892582949886, 92.00610777531934, 93.00003341222717, 89.14911522239515, 90.34149293193902]",5.0,True,8.6,2.8809720581775866,2.124917507171631,0.7337532629667461
0,,sub_118,2024-07-26 14:18:10,3,distance,cathedral,numerosity_judgement,2,72,4,countries_forward,"['_Japan_', '_Togo_', '_Yemen_', '_Oman_']","['f', 'm', 'm', 'f']","['p268', 'p229', 'p256', 'p245']","[1, 10, 7, 3]","[86.2038576498559, 93.00003341222717, 91.73820004985969, 89.14911522239515]",3.0,False,7.25,4.031128874149275,2.2499120235443115,0.7512881625241176
0,,sub_118,2024-07-26 14:18:13,3,distance,cathedral,numerosity_judgement,2,73,2,countries_forward,"['_Peru_', '_Sudan_']","['f', 'f']","['p284', 'p268']","[9, 10]","[92.00610777531934, 93.00003341222717]",2.0,True,11.5,0.7071067811865476,1.687434196472168,0.9393939393939394
0,,sub_118,2024-07-26 14:18:17,3,distance,cathedral,numerosity_judgement,2,74,6,countries_forward,"['_Yemen_', '_Japan_', '_Oman_', '_Britain_', '_Congo_', '_Mali_']","['f', 'f', 'm', 'f', 'm', 'm']","['p245', 'p268', 'p307', 'p284', 'p229', 'p318']","[4, 6, 0, 7, 3, 5]","[89.31368318402099, 91.58892582949886, 84.40078082039426, 91.73820004985969, 89.14911522239515, 90.34149293193902]",4.0,False,6.166666666666667,2.48327740429189,2.1249172687530518,0.9472137101350584
0,,sub_118,2024-07-26 14:19:06,3,distance,cathedral,numerosity_judgement,3,0,2,countries_reversed,"['_Syria_reversed', '_Peru_reversed']","['f', 'f']","['p268', 'p245']","[6, 4]","[91.58892582949886, 89.31368318402099]",2.0,True,7.0,1.4142135623730951,4.562301397323608,0.8697196685960731
0,,sub_118,2024-07-26 14:19:10,3,distance,cathedral,numerosity_judgement,3,1,4,countries_reversed,"['_Cuba_reversed', '_Oman_reversed', '_Sudan_reversed', '_Congo_reversed']","['m', 'm', 'f', 'm']","['p318', 'p229', 'p284', 'p307']","[4, 5, 8, 9]","[89.31368318402099, 90.34149293193902, 92.0152836843556, 92.00610777531934]",4.0,True,8.5,2.3804761428476167,2.9998831748962402,0.7947452048575644
0,,sub_118,2024-07-26 14:19:14,3,distance,cathedral,numerosity_judgement,3,2,5,countries_reversed,"['_Cuba_reversed', '_Oman_reversed', '_Syria_reversed', '_Yemen_reversed', '_Sudan_reversed']","['m', 'm', 'f', 'm', 'f']","['p256', 'p307', 'p248', 'p229', 'p268']","[10, 1, 4, 5, 6]","[93.00003341222717, 86.2038576498559, 89.31368318402099, 90.34149293193902, 91.58892582949886]",5.0,True,7.2,3.271085446759225,2.0624191761016846,0.7765860855748496
0,,sub_118,2024-07-26 14:19:17,3,distance,cathedral,numerosity_judgement,3,3,6,countries_reversed,"['_Togo_reversed', '_Congo_reversed', '_Yemen_reversed', '_Japan_reversed', '_Cuba_reversed', '_Mali_reversed']","['m', 'm', 'm', 'm', 'f', 'f']","['p307', 'p229', 'p318', 'p256', 'p245', 'p284']","[7, 9, 10, 2, 0, 5]","[91.73820004985969, 92.00610777531934, 93.00003341222717, 87.57049330475357, 84.40078082039426, 90.34149293193902]",6.0,True,7.5,3.9370039370059056,2.1874148845672607,0.8010441493587561
0,,sub_118,2024-07-26 14:19:20,3,distance,cathedral,numerosity_judgement,3,4,3,countries_reversed,"['_Togo_reversed', '_Cuba_reversed', '_Mali_reversed']","['m', 'f', 'f']","['p229', 'p268', 'p245']","[6, 0, 10]","[91.58892582949886, 84.40078082039426, 93.00003341222717]",3.0,True,7.333333333333333,5.033222956847167,1.7499310970306396,0.8344796277380547
0,,sub_118,2024-07-26 14:19:23,3,distance,cathedral,numerosity_judgement,3,5,4,countries_reversed,"['_Mali_reversed', '_Peru_reversed', '_Togo_reversed', '_Britain_reversed']","['m', 'f', 'm', 'f']","['p229', 'p284', 'p318', 'p248']","[0, 6, 4, 1]","[84.40078082039426, 91.58892582949886, 89.31368318402099, 86.2038576498559]",3.0,False,4.75,2.753785273643051,1.9374234676361084,0.9387470207694928
0,,sub_118,2024-07-26 14:19:27,3,distance,cathedral,numerosity_judgement,3,6,3,countries_reversed,"['_Yemen_reversed', '_Congo_reversed', '_Syria_reversed']","['f', 'f', 'm']","['p268', 'p245', 'p256']","[4, 1, 8]","[89.31368318402099, 86.2038576498559, 92.0152836843556]",4.0,False,6.333333333333333,3.5118845842842465,2.1249170303344727,0.8591646805129951
0,,sub_118,2024-07-26 14:19:30,3,distance,cathedral,numerosity_judgement,3,7,6,countries_reversed,"['_Belgium_reversed', '_Mali_reversed', '_Cuba_reversed', '_Yemen_reversed', '_Oman_reversed', '_Britain_reversed']","['m', 'm', 'f', 'm', 'f', 'f']","['p318', 'p229', 'p245', 'p256', 'p268', 'p284']","[8, 5, 0, 4, 3, 10]","[92.0152836843556, 90.34149293193902, 84.40078082039426, 89.31368318402099, 89.14911522239515, 93.00003341222717]",5.0,False,7.0,3.5777087639996634,1.9374244213104248,0.8734536374985813
0,,sub_118,2024-07-26 14:19:34,3,distance,cathedral,numerosity_judgement,3,8,2,countries_reversed,"['_Yemen_reversed', '_Belgium_reversed']","['m', 'f']","['p256', 'p284']","[9, 1]","[92.00610777531934, 86.2038576498559]",2.0,True,7.0,5.656854249492381,3.187375545501709,0.8438202247191011
0,,sub_118,2024-07-26 14:19:38,3,distance,cathedral,numerosity_judgement,3,9,5,countries_reversed,"['_Yemen_reversed', '_Cuba_reversed', '_Togo_reversed', '_Peru_reversed', '_Congo_reversed']","['f', 'f', 'm', 'm', 'm']","['p268', 'p284', 'p318', 'p307', 'p229']","[8, 1, 2, 9, 0]","[92.0152836843556, 86.2038576498559, 87.57049330475357, 92.00610777531934, 84.40078082039426]",4.0,False,6.0,4.183300132670378,2.1249167919158936,0.9057201225740552
0,,sub_118,2024-07-26 14:19:42,3,distance,cathedral,numerosity_judgement,3,10,4,countries_reversed,"['_Tonga_reversed', '_Sudan_reversed', '_Britain_reversed', '_Oman_reversed']","['f', 'f', 'f', 'f']","['p248', 'p268', 'p245', 'p284']","[5, 10, 9, 3]","[90.34149293193902, 93.00003341222717, 92.00610777531934, 89.14911522239515]",5.0,False,8.75,3.304037933599835,2.5624003410339355,0.9126319373510384
0,,sub_118,2024-07-26 14:19:45,3,distance,cathedral,numerosity_judgement,3,11,5,countries_reversed,"['_Oman_reversed', '_Cuba_reversed', '_Yemen_reversed', '_Tonga_reversed', '_Britain_reversed']","['m', 'f', 'm', 'f', 'f']","['p318', 'p268', 'p256', 'p245', 'p248']","[7, 3, 10, 9, 5]","[91.73820004985969, 89.14911522239515, 93.00003341222717, 92.00610777531934, 90.34149293193902]",5.0,True,8.8,2.8635642126552705,1.9374237060546875,0.7011122460560663
0,,sub_118,2024-07-26 14:19:48,3,distance,cathedral,numerosity_judgement,3,12,6,countries_reversed,"['_Mali_reversed', '_Yemen_reversed', '_Oman_reversed', '_Britain_reversed', '_Cuba_reversed', '_Togo_reversed']","['m', 'f', 'm', 'm', 'f', 'm']","['p307', 'p245', 'p256', 'p318', 'p248', 'p229']","[6, 7, 8, 3, 2, 0]","[91.58892582949886, 91.73820004985969, 92.0152836843556, 89.14911522239515, 87.57049330475357, 84.40078082039426]",6.0,True,6.333333333333333,3.141125063837266,1.8749263286590576,0.6907615480649189
0,,sub_118,2024-07-26 14:19:52,3,distance,cathedral,numerosity_judgement,3,13,2,countries_reversed,"['_Britain_reversed', '_Oman_reversed']","['f', 'm']","['p268', 'p318']","[8, 3]","[92.0152836843556, 89.14911522239515]",3.0,False,7.5,3.5355339059327378,2.4374053478240967,0.740642378844626
0,,sub_118,2024-07-26 14:19:55,3,distance,cathedral,numerosity_judgement,3,14,3,countries_reversed,"['_Sudan_reversed', '_Japan_reversed', '_Peru_reversed']","['f', 'f', 'm']","['p245', 'p284', 'p256']","[7, 2, 3]","[91.73820004985969, 87.57049330475357, 89.14911522239515]",4.0,False,6.0,2.6457513110645907,1.812429666519165,0.9282374304846216
0,,sub_118,2024-07-26 14:19:58,3,distance,cathedral,numerosity_judgement,3,15,5,countries_reversed,"['_Britain_reversed', '_Congo_reversed', '_Peru_reversed', '_Oman_reversed', '_Sudan_reversed']","['f', 'm', 'f', 'm', 'm']","['p248', 'p318', 'p268', 'p307', 'p256']","[0, 2, 6, 9, 4]","[84.40078082039426, 87.57049330475357, 91.58892582949886, 92.00610777531934, 89.31368318402099]",5.0,True,6.2,3.492849839314596,2.0624194145202637,0.7133469526727954
0,,sub_118,2024-07-26 14:20:01,3,distance,cathedral,numerosity_judgement,3,16,3,countries_reversed,"['_Yemen_reversed', '_Cuba_reversed', '_Oman_reversed']","['f', 'f', 'm']","['p268', 'p245', 'p256']","[8, 5, 9]","[92.0152836843556, 90.34149293193902, 92.00610777531934]",4.0,False,9.333333333333334,2.0816659994661326,1.687434434890747,0.6368630121439111
0,,sub_118,2024-07-26 14:20:04,3,distance,cathedral,numerosity_judgement,3,17,6,countries_reversed,"['_Cuba_reversed', '_Peru_reversed', '_Japan_reversed', '_Belgium_reversed', '_Oman_reversed', '_Mali_reversed']","['m', 'f', 'm', 'f', 'f', 'm']","['p307', 'p268', 'p318', 'p284', 'p248', 'p229']","[7, 1, 6, 3, 5, 10]","[91.73820004985969, 86.2038576498559, 91.58892582949886, 89.14911522239515, 90.34149293193902, 93.00003341222717]",6.0,True,7.333333333333333,3.141125063837266,1.8124287128448486,0.7542957666553172
0,,sub_118,2024-07-26 14:20:08,3,distance,cathedral,numerosity_judgement,3,18,2,countries_reversed,"['_Oman_reversed', '_Yemen_reversed']","['f', 'f']","['p248', 'p245']","[5, 9]","[90.34149293193902, 92.00610777531934]",4.0,False,9.0,2.8284271247461903,2.3749074935913086,0.5965384178867325
0,,sub_118,2024-07-26 14:20:10,3,distance,cathedral,numerosity_judgement,3,19,4,countries_reversed,"['_Yemen_reversed', '_Sudan_reversed', '_Britain_reversed', '_Togo_reversed']","['m', 'm', 'm', 'f']","['p307', 'p229', 'p256', 'p284']","[0, 7, 5, 2]","[84.40078082039426, 91.73820004985969, 90.34149293193902, 87.57049330475357]",3.0,False,5.5,3.1091263510296048,1.4374439716339111,0.8726251276813075
0,,sub_118,2024-07-26 14:20:14,3,distance,cathedral,numerosity_judgement,3,20,5,countries_reversed,"['_Belgium_reversed', '_Congo_reversed', '_Cuba_reversed', '_Peru_reversed', '_Togo_reversed']","['m', 'm', 'f', 'm', 'f']","['p229', 'p256', 'p245', 'p307', 'p284']","[8, 3, 5, 10, 2]","[92.0152836843556, 89.14911522239515, 90.34149293193902, 93.00003341222717, 87.57049330475357]",4.0,False,7.6,3.361547262794322,2.3749563694000244,0.6736579275905119
0,,sub_118,2024-07-26 14:20:18,3,distance,cathedral,numerosity_judgement,3,21,6,countries_reversed,"['_Oman_reversed', '_Cuba_reversed', '_Yemen_reversed', '_Mali_reversed', '_Syria_reversed', '_Tonga_reversed']","['f', 'f', 'f', 'm', 'm', 'm']","['p245', 'p268', 'p248', 'p229', 'p318', 'p307']","[4, 8, 10, 3, 5, 0]","[89.31368318402099, 92.0152836843556, 93.00003341222717, 89.14911522239515, 90.34149293193902, 84.40078082039426]",4.0,False,7.0,3.5777087639996634,2.3124098777770996,0.8053455907388491
0,,sub_118,2024-07-26 14:20:21,3,distance,cathedral,numerosity_judgement,3,22,4,countries_reversed,"['_Syria_reversed', '_Britain_reversed', '_Cuba_reversed', '_Togo_reversed']","['m', 'm', 'f', 'm']","['p307', 'p318', 'p245', 'p229']","[7, 10, 4, 8]","[91.73820004985969, 93.00003341222717, 89.31368318402099, 92.0152836843556]",5.0,False,9.25,2.5,1.8749263286590576,0.8238905913063217
0,,sub_118,2024-07-26 14:20:25,3,distance,cathedral,numerosity_judgement,3,23,2,countries_reversed,"['_Cuba_reversed', '_Tonga_reversed']","['m', 'm']","['p307', 'p318']","[8, 2]","[92.0152836843556, 87.57049330475357]",2.0,True,7.0,4.242640687119285,2.7498929500579834,0.7823516059471116
0,,sub_118,2024-07-26 14:20:28,3,distance,cathedral,numerosity_judgement,3,24,3,countries_reversed,"['_Congo_reversed', '_Cuba_reversed', '_Peru_reversed']","['m', 'm', 'f']","['p318', 'p307', 'p245']","[3, 7, 1]","[89.14911522239515, 91.73820004985969, 86.2038576498559]",3.0,True,5.666666666666667,3.0550504633038935,1.8124303817749023,0.6969242991714902
0,,sub_118,2024-07-26 14:20:31,3,distance,cathedral,numerosity_judgement,3,25,2,countries_reversed,"['_Belgium_reversed', '_Congo_reversed']","['f', 'f']","['p248', 'p284']","[2, 1]","[87.57049330475357, 86.2038576498559]",2.0,True,3.5,0.7071067811865476,2.18741512298584,0.8997616615594144
0,,sub_118,2024-07-26 14:20:35,3,distance,cathedral,numerosity_judgement,3,26,4,countries_reversed,"['_Britain_reversed', '_Togo_reversed', '_Belgium_reversed', '_Oman_reversed']","['f', 'm', 'm', 'm']","['p284', 'p318', 'p256', 'p229']","[10, 5, 3, 6]","[93.00003341222717, 90.34149293193902, 89.14911522239515, 91.58892582949886]",5.0,False,8.0,2.943920288775949,2.3749070167541504,0.7279082964476223
0,,sub_118,2024-07-26 14:20:38,3,distance,cathedral,numerosity_judgement,3,27,6,countries_reversed,"['_Tonga_reversed', '_Yemen_reversed', '_Britain_reversed', '_Oman_reversed', '_Congo_reversed', '_Mali_reversed']","['m', 'f', 'm', 'm', 'f', 'f']","['p256', 'p284', 'p318', 'p229', 'p268', 'p245']","[5, 2, 3, 4, 10, 9]","[90.34149293193902, 87.57049330475357, 89.14911522239515, 89.31368318402099, 93.00003341222717, 92.00610777531934]",6.0,True,7.5,3.271085446759225,1.6250035762786865,0.7645443196004994
0,,sub_118,2024-07-26 14:20:42,3,distance,cathedral,numerosity_judgement,3,28,3,countries_reversed,"['_Peru_reversed', '_Sudan_reversed', '_Japan_reversed']","['f', 'm', 'm']","['p245', 'p307', 'p229']","[5, 0, 6]","[90.34149293193902, 84.40078082039426, 91.58892582949886]",3.0,True,5.666666666666667,3.2145502536643185,2.4373767375946045,0.9183974577233004
0,,sub_118,2024-07-26 14:20:46,3,distance,cathedral,numerosity_judgement,3,29,5,countries_reversed,"['_Britain_reversed', '_Belgium_reversed', '_Sudan_reversed', '_Togo_reversed', '_Mali_reversed']","['f', 'm', 'f', 'm', 'm']","['p268', 'p307', 'p245', 'p318', 'p229']","[6, 0, 8, 2, 10]","[91.58892582949886, 84.40078082039426, 92.0152836843556, 87.57049330475357, 93.00003341222717]",5.0,True,7.2,4.147288270665544,3.1248791217803955,0.9380660537963909
0,,sub_118,2024-07-26 14:20:51,3,distance,cathedral,numerosity_judgement,3,30,3,countries_reversed,"['_Japan_reversed', '_Togo_reversed', '_Oman_reversed']","['m', 'm', 'm']","['p307', 'p256', 'p229']","[8, 2, 6]","[92.0152836843556, 87.57049330475357, 91.58892582949886]",3.0,True,7.333333333333333,3.0550504633038935,3.374871015548706,0.7172057655203723
0,,sub_118,2024-07-26 14:20:54,3,distance,cathedral,numerosity_judgement,3,31,6,countries_reversed,"['_Peru_reversed', '_Cuba_reversed', '_Syria_reversed', '_Congo_reversed', '_Mali_reversed', '_Japan_reversed']","['f', 'm', 'm', 'f', 'm', 'f']","['p284', 'p229', 'p256', 'p268', 'p318', 'p248']","[8, 3, 10, 7, 2, 5]","[92.0152836843556, 89.14911522239515, 93.00003341222717, 91.73820004985969, 87.57049330475357, 90.34149293193902]",5.0,False,7.833333333333333,3.0605010483034745,1.7499313354492188,0.7366814209510839
0,,sub_118,2024-07-26 14:20:57,3,distance,cathedral,numerosity_judgement,3,32,2,countries_reversed,"['_Mali_reversed', '_Sudan_reversed']","['f', 'm']","['p268', 'p229']","[9, 0]","[92.00610777531934, 84.40078082039426]",2.0,True,6.5,6.363961030678928,1.7499423027038574,0.9656111678583588
0,,sub_118,2024-07-26 14:21:00,3,distance,cathedral,numerosity_judgement,3,33,5,countries_reversed,"['_Cuba_reversed', '_Tonga_reversed', '_Yemen_reversed', '_Belgium_reversed', '_Oman_reversed']","['m', 'm', 'f', 'f', 'f']","['p229', 'p318', 'p248', 'p284', 'p245']","[8, 1, 0, 3, 4]","[92.0152836843556, 86.2038576498559, 84.40078082039426, 89.14911522239515, 89.31368318402099]",4.0,False,5.2,3.1144823004794877,1.7499315738677979,0.9119963681761436
0,,sub_118,2024-07-26 14:21:03,3,distance,cathedral,numerosity_judgement,3,34,4,countries_reversed,"['_Oman_reversed', '_Yemen_reversed', '_Britain_reversed', '_Mali_reversed']","['m', 'm', 'm', 'm']","['p229', 'p318', 'p307', 'p256']","[5, 7, 9, 6]","[90.34149293193902, 91.73820004985969, 92.00610777531934, 91.58892582949886]",4.0,True,8.75,1.707825127659933,2.1874163150787354,0.6135966405629327
0,,sub_118,2024-07-26 14:21:07,3,distance,cathedral,numerosity_judgement,3,35,5,countries_reversed,"['_Sudan_reversed', '_Cuba_reversed', '_Japan_reversed', '_Yemen_reversed', '_Tonga_reversed']","['m', 'f', 'f', 'm', 'm']","['p256', 'p268', 'p284', 'p318', 'p229']","[9, 2, 1, 7, 10]","[92.00610777531934, 87.57049330475357, 86.2038576498559, 91.73820004985969, 93.00003341222717]",5.0,True,7.8,4.08656334834051,2.1249172687530518,0.8471683123368516
0,,sub_118,2024-07-26 14:21:10,3,distance,cathedral,numerosity_judgement,3,36,6,countries_reversed,"['_Belgium_reversed', '_Peru_reversed', '_Syria_reversed', '_Congo_reversed', '_Oman_reversed', '_Sudan_reversed']","['m', 'f', 'f', 'm', 'f', 'f']","['p318', 'p248', 'p268', 'p229', 'p245', 'p284']","[7, 2, 5, 10, 9, 1]","[91.73820004985969, 87.57049330475357, 90.34149293193902, 93.00003341222717, 92.00610777531934, 86.2038576498559]",5.0,False,7.666666666666667,3.669695718539436,1.7499315738677979,0.9520485756440812
0,,sub_118,2024-07-26 14:21:13,3,distance,cathedral,numerosity_judgement,3,37,2,countries_reversed,"['_Peru_reversed', '_Oman_reversed']","['m', 'm']","['p256', 'p307']","[6, 5]","[91.58892582949886, 90.34149293193902]",2.0,True,7.5,0.7071067811865476,1.874927043914795,0.5561570763817955
0,,sub_118,2024-07-26 14:21:16,3,distance,cathedral,numerosity_judgement,3,38,4,countries_reversed,"['_Peru_reversed', '_Togo_reversed', '_Congo_reversed', '_Britain_reversed']","['f', 'f', 'm', 'm']","['p284', 'p268', 'p229', 'p256']","[10, 3, 0, 5]","[93.00003341222717, 89.14911522239515, 84.40078082039426, 90.34149293193902]",3.0,False,6.5,4.203173404306164,2.1874144077301025,0.8456474860969243
0,,sub_118,2024-07-26 14:21:20,3,distance,cathedral,numerosity_judgement,3,39,3,countries_reversed,"['_Peru_reversed', '_Oman_reversed', '_Cuba_reversed']","['f', 'f', 'f']","['p284', 'p268', 'p245']","[8, 6, 2]","[92.0152836843556, 91.58892582949886, 87.57049330475357]",3.0,True,7.333333333333333,3.0550504633038935,2.4999027252197266,0.8100329134036999
0,,sub_118,2024-07-26 14:21:23,3,distance,cathedral,numerosity_judgement,3,40,5,countries_reversed,"['_Congo_reversed', '_Togo_reversed', '_Oman_reversed', '_Cuba_reversed', '_Tonga_reversed']","['f', 'm', 'm', 'f', 'f']","['p268', 'p229', 'p307', 'p284', 'p245']","[5, 8, 4, 1, 7]","[90.34149293193902, 92.0152836843556, 89.31368318402099, 86.2038576498559, 91.73820004985969]",4.0,False,7.0,2.7386127875258306,1.937490701675415,0.7495289978436046
0,,sub_118,2024-07-26 14:21:27,3,distance,cathedral,numerosity_judgement,3,41,6,countries_reversed,"['_Britain_reversed', '_Oman_reversed', '_Mali_reversed', '_Togo_reversed', '_Yemen_reversed', '_Belgium_reversed']","['m', 'm', 'f', 'f', 'f', 'm']","['p318', 'p307', 'p245', 'p248', 'p284', 'p256']","[1, 7, 5, 6, 9, 3]","[86.2038576498559, 91.73820004985969, 90.34149293193902, 91.58892582949886, 92.00610777531934, 89.14911522239515]",6.0,True,7.166666666666667,2.857738033247041,2.18741774559021,0.7176937918510953
0,,sub_118,2024-07-26 14:21:30,3,distance,cathedral,numerosity_judgement,3,42,4,countries_reversed,"['_Mali_reversed', '_Oman_reversed', '_Britain_reversed', '_Peru_reversed']","['m', 'm', 'm', 'f']","['p318', 'p307', 'p256', 'p248']","[1, 5, 8, 3]","[86.2038576498559, 90.34149293193902, 92.0152836843556, 89.14911522239515]",3.0,False,6.25,2.9860788111948193,2.3124098777770996,0.6719441607082056
0,,sub_118,2024-07-26 14:21:34,3,distance,cathedral,numerosity_judgement,3,43,3,countries_reversed,"['_Oman_reversed', '_Tonga_reversed', '_Sudan_reversed']","['m', 'f', 'f']","['p307', 'p268', 'p245']","[7, 3, 10]","[91.73820004985969, 89.14911522239515, 93.00003341222717]",2.0,False,8.666666666666666,3.511884584284246,1.937424898147583,0.7441720576552038
0,,sub_118,2024-07-26 14:21:37,3,distance,cathedral,numerosity_judgement,3,44,2,countries_reversed,"['_Peru_reversed', '_Oman_reversed']","['m', 'f']","['p229', 'p248']","[10, 2]","[93.00003341222717, 87.57049330475357]",2.0,True,8.0,5.656854249492381,2.3124094009399414,0.8077630234933606
0,,sub_118,2024-07-26 14:21:40,3,distance,cathedral,numerosity_judgement,3,45,4,countries_reversed,"['_Tonga_reversed', '_Belgium_reversed', '_Sudan_reversed', '_Togo_reversed']","['f', 'f', 'f', 'm']","['p284', 'p248', 'p268', 'p307']","[10, 1, 9, 2]","[93.00003341222717, 86.2038576498559, 92.00610777531934, 87.57049330475357]",4.0,True,7.5,4.654746681256314,1.8748986721038818,0.9533197139938712
0,,sub_118,2024-07-26 14:21:43,3,distance,cathedral,numerosity_judgement,3,46,5,countries_reversed,"['_Japan_reversed', '_Yemen_reversed', '_Britain_reversed', '_Togo_reversed', '_Tonga_reversed']","['m', 'f', 'f', 'm', 'f']","['p229', 'p268', 'p245', 'p256', 'p248']","[4, 9, 5, 10, 0]","[89.31368318402099, 92.00610777531934, 90.34149293193902, 93.00003341222717, 84.40078082039426]",5.0,True,7.6,4.03732584763727,1.8124289512634277,0.8374077857223925
0,,sub_118,2024-07-26 14:21:47,3,distance,cathedral,numerosity_judgement,3,47,6,countries_reversed,"['_Syria_reversed', '_Yemen_reversed', '_Oman_reversed', '_Peru_reversed', '_Sudan_reversed', '_Cuba_reversed']","['m', 'f', 'm', 'f', 'f', 'm']","['p256', 'p248', 'p307', 'p268', 'p284', 'p318']","[2, 3, 5, 6, 0, 10]","[87.57049330475357, 89.14911522239515, 90.34149293193902, 91.58892582949886, 84.40078082039426, 93.00003341222717]",6.0,True,6.333333333333333,3.5023801430836525,2.062420129776001,0.6612870275791624
0,,sub_118,2024-07-26 14:21:50,3,distance,cathedral,numerosity_judgement,3,48,2,countries_reversed,"['_Peru_reversed', '_Oman_reversed']","['m', 'f']","['p307', 'p268']","[3, 7]","[89.14911522239515, 91.73820004985969]",3.0,False,7.0,2.8284271247461903,1.9374239444732666,0.6643286800590171
0,,sub_118,2024-07-26 14:21:54,3,distance,cathedral,numerosity_judgement,3,49,3,countries_reversed,"['_Yemen_reversed', '_Syria_reversed', '_Tonga_reversed']","['f', 'f', 'm']","['p245', 'p268', 'p318']","[8, 3, 4]","[92.0152836843556, 89.14911522239515, 89.31368318402099]",4.0,False,7.0,2.6457513110645907,2.874887466430664,0.8800022698899104
0,,sub_118,2024-07-26 14:21:58,3,distance,cathedral,numerosity_judgement,3,50,4,countries_reversed,"['_Cuba_reversed', '_Syria_reversed', '_Britain_reversed', '_Tonga_reversed']","['f', 'm', 'm', 'f']","['p248', 'p307', 'p229', 'p245']","[4, 5, 10, 3]","[89.31368318402099, 90.34149293193902, 93.00003341222717, 89.14911522239515]",3.0,False,7.5,3.1091263510296048,2.3124096393585205,0.7533083645443196
0,,sub_118,2024-07-26 14:22:01,3,distance,cathedral,numerosity_judgement,3,51,5,countries_reversed,"['_Syria_reversed', '_Oman_reversed', '_Britain_reversed', '_Sudan_reversed', '_Belgium_reversed']","['f', 'f', 'm', 'f', 'm']","['p268', 'p248', 'p256', 'p284', 'p307']","[10, 4, 1, 9, 6]","[93.00003341222717, 89.31368318402099, 86.2038576498559, 92.00610777531934, 91.58892582949886]",5.0,True,8.0,3.6742346141747673,1.6874339580535889,0.9573828169333788
0,,sub_118,2024-07-26 14:22:04,3,distance,cathedral,numerosity_judgement,3,52,3,countries_reversed,"['_Syria_reversed', '_Tonga_reversed', '_Japan_reversed']","['m', 'm', 'm']","['p307', 'p229', 'p318']","[4, 3, 7]","[89.31368318402099, 89.14911522239515, 91.73820004985969]",3.0,True,6.666666666666667,2.0816659994661326,2.4374048709869385,0.7853478606287595
0,,sub_118,2024-07-26 14:22:07,3,distance,cathedral,numerosity_judgement,3,53,6,countries_reversed,"['_Tonga_reversed', '_Peru_reversed', '_Sudan_reversed', '_Cuba_reversed', '_Japan_reversed', '_Belgium_reversed']","['m', 'f', 'm', 'm', 'f', 'f']","['p307', 'p245', 'p229', 'p256', 'p268', 'p248']","[9, 3, 2, 4, 8, 6]","[92.00610777531934, 89.14911522239515, 87.57049330475357, 89.31368318402099, 92.0152836843556, 91.58892582949886]",6.0,True,7.333333333333333,2.804757862395017,1.499941110610962,0.9184769038701625
0,,sub_118,2024-07-26 14:22:11,3,distance,cathedral,numerosity_judgement,3,54,2,countries_reversed,"['_Oman_reversed', '_Japan_reversed']","['f', 'f']","['p284', 'p245']","[7, 6]","[91.73820004985969, 91.58892582949886]",3.0,False,8.5,0.7071067811865476,2.4374051094055176,0.8215753035977755
0,,sub_118,2024-07-26 14:22:16,3,distance,cathedral,numerosity_judgement,3,55,4,countries_reversed,"['_Tonga_reversed', '_Peru_reversed', '_Cuba_reversed', '_Belgium_reversed']","['f', 'f', 'm', 'f']","['p245', 'p248', 'p256', 'p284']","[5, 4, 10, 1]","[90.34149293193902, 89.31368318402099, 93.00003341222717, 86.2038576498559]",3.0,False,7.0,3.7416573867739413,3.9998443126678467,0.7026898195437521
0,,sub_118,2024-07-26 14:22:19,3,distance,cathedral,numerosity_judgement,3,56,2,countries_reversed,"['_Togo_reversed', '_Japan_reversed']","['f', 'm']","['p284', 'p229']","[1, 8]","[86.2038576498559, 92.0152836843556]",2.0,True,6.5,4.949747468305833,1.749931812286377,0.9362501418681194
0,,sub_118,2024-07-26 14:22:22,3,distance,cathedral,numerosity_judgement,3,57,5,countries_reversed,"['_Mali_reversed', '_Oman_reversed', '_Britain_reversed', '_Peru_reversed', '_Yemen_reversed']","['f', 'm', 'm', 'm', 'f']","['p268', 'p256', 'p318', 'p307', 'p245']","[1, 6, 10, 9, 5]","[86.2038576498559, 91.58892582949886, 93.00003341222717, 92.00610777531934, 90.34149293193902]",4.0,False,8.2,3.5637059362410923,2.062418222427368,0.6607536034502327
0,,sub_118,2024-07-26 14:22:26,3,distance,cathedral,numerosity_judgement,3,58,3,countries_reversed,"['_Oman_reversed', '_Yemen_reversed', '_Cuba_reversed']","['f', 'm', 'f']","['p284', 'p307', 'p268']","[9, 7, 3]","[92.00610777531934, 91.73820004985969, 89.14911522239515]",3.0,True,8.333333333333334,3.055050463303893,1.9374265670776367,0.5765633866757462
0,,sub_118,2024-07-26 14:22:30,3,distance,cathedral,numerosity_judgement,3,59,6,countries_reversed,"['_Togo_reversed', '_Cuba_reversed', '_Tonga_reversed', '_Mali_reversed', '_Belgium_reversed', '_Britain_reversed']","['m', 'f', 'm', 'f', 'f', 'f']","['p229', 'p268', 'p307', 'p248', 'p284', 'p245']","[5, 3, 2, 1, 10, 7]","[90.34149293193902, 89.14911522239515, 87.57049330475357, 86.2038576498559, 93.00003341222717, 91.73820004985969]",4.0,False,6.666666666666667,3.3862466931200785,2.687394857406616,0.8584269662921349
0,,sub_118,2024-07-26 14:22:34,3,distance,cathedral,numerosity_judgement,3,60,4,countries_reversed,"['_Britain_reversed', '_Peru_reversed', '_Oman_reversed', '_Syria_reversed']","['m', 'f', 'm', 'm']","['p318', 'p245', 'p229', 'p256']","[6, 9, 7, 5]","[91.58892582949886, 92.00610777531934, 91.73820004985969, 90.34149293193902]",3.0,False,8.75,1.707825127659933,2.874887704849243,0.6560549313358303
0,,sub_118,2024-07-26 14:22:37,3,distance,cathedral,numerosity_judgement,3,61,6,countries_reversed,"['_Belgium_reversed', '_Syria_reversed', '_Britain_reversed', '_Togo_reversed', '_Congo_reversed', '_Peru_reversed']","['f', 'f', 'f', 'm', 'm', 'm']","['p284', 'p268', 'p245', 'p229', 'p307', 'p256']","[7, 2, 3, 10, 6, 0]","[91.73820004985969, 87.57049330475357, 89.14911522239515, 93.00003341222717, 91.58892582949886, 84.40078082039426]",5.0,False,6.666666666666667,3.669695718539436,1.9999217987060547,0.8269662921348314
0,,sub_118,2024-07-26 14:22:41,3,distance,cathedral,numerosity_judgement,3,62,5,countries_reversed,"['_Yemen_reversed', '_Britain_reversed', '_Sudan_reversed', '_Oman_reversed', '_Congo_reversed']","['m', 'm', 'f', 'm', 'f']","['p256', 'p307', 'p248', 'p229', 'p268']","[10, 6, 7, 8, 5]","[93.00003341222717, 91.58892582949886, 91.73820004985969, 92.0152836843556, 90.34149293193902]",5.0,True,9.2,1.9235384061671346,2.312411069869995,0.797605266144592
0,,sub_118,2024-07-26 14:22:44,3,distance,cathedral,numerosity_judgement,3,63,2,countries_reversed,"['_Cuba_reversed', '_Yemen_reversed']","['m', 'm']","['p307', 'p256']","[7, 0]","[91.73820004985969, 84.40078082039426]",2.0,True,5.5,4.949747468305833,1.9999213218688965,0.6241289297469073
0,,sub_118,2024-07-26 14:22:47,3,distance,cathedral,numerosity_judgement,3,64,3,countries_reversed,"['_Yemen_reversed', '_Mali_reversed', '_Oman_reversed']","['f', 'm', 'f']","['p248', 'p318', 'p245']","[7, 5, 6]","[91.73820004985969, 90.34149293193902, 91.58892582949886]",4.0,False,8.0,1.0,2.2499120235443115,0.6705368289637953
0,,sub_118,2024-07-26 14:22:51,3,distance,cathedral,numerosity_judgement,3,65,5,countries_reversed,"['_Congo_reversed', '_Togo_reversed', '_Belgium_reversed', '_Tonga_reversed', '_Syria_reversed']","['m', 'f', 'f', 'm', 'm']","['p318', 'p248', 'p268', 'p256', 'p307']","[5, 1, 7, 9, 2]","[90.34149293193902, 86.2038576498559, 91.73820004985969, 92.00610777531934, 87.57049330475357]",4.0,False,6.8,3.3466401061363023,2.499948740005493,0.8696061741005561
0,,sub_118,2024-07-26 14:22:54,3,distance,cathedral,numerosity_judgement,3,66,6,countries_reversed,"['_Mali_reversed', '_Oman_reversed', '_Japan_reversed', '_Belgium_reversed', '_Britain_reversed', '_Cuba_reversed']","['f', 'f', 'm', 'f', 'm', 'm']","['p245', 'p248', 'p318', 'p284', 'p229', 'p256']","[1, 6, 4, 5, 7, 2]","[86.2038576498559, 91.58892582949886, 89.31368318402099, 90.34149293193902, 91.73820004985969, 87.57049330475357]",6.0,True,6.166666666666667,2.316606713852541,1.56241774559021,0.8880036318238566
0,,sub_118,2024-07-26 14:22:57,3,distance,cathedral,numerosity_judgement,3,67,3,countries_reversed,"['_Tonga_reversed', '_Congo_reversed', '_Britain_reversed']","['f', 'm', 'f']","['p268', 'p318', 'p245']","[0, 7, 9]","[84.40078082039426, 91.73820004985969, 92.00610777531934]",4.0,False,7.333333333333333,4.725815626252608,1.8749465942382812,0.94595392123482
0,,sub_118,2024-07-26 14:23:00,3,distance,cathedral,numerosity_judgement,3,68,2,countries_reversed,"['_Britain_reversed', '_Cuba_reversed']","['m', 'f']","['p229', 'p248']","[6, 10]","[91.58892582949886, 93.00003341222717]",3.0,False,10.0,2.8284271247461903,2.0624232292175293,0.6765179888775394
0,,sub_118,2024-07-26 14:23:04,3,distance,cathedral,numerosity_judgement,3,69,4,countries_reversed,"['_Togo_reversed', '_Belgium_reversed', '_Yemen_reversed', '_Mali_reversed']","['f', 'f', 'f', 'm']","['p248', 'p245', 'p268', 'p229']","[7, 0, 9, 5]","[91.73820004985969, 84.40078082039426, 92.00610777531934, 90.34149293193902]",4.0,True,7.25,3.8622100754188224,2.3124101161956787,0.8818068323686301
0,,sub_118,2024-07-26 14:23:07,3,distance,cathedral,numerosity_judgement,3,70,3,countries_reversed,"['_Oman_reversed', '_Cuba_reversed', '_Yemen_reversed']","['m', 'm', 'f']","['p256', 'p307', 'p248']","[10, 7, 4]","[93.00003341222717, 91.73820004985969, 89.31368318402099]",2.0,False,9.0,3.0,2.124976634979248,0.6046419248666439
0,,sub_118,2024-07-26 14:23:13,3,distance,cathedral,numerosity_judgement,3,71,5,countries_reversed,"['_Togo_reversed', '_Oman_reversed', '_Belgium_reversed', '_Yemen_reversed', '_Tonga_reversed']","['f', 'm', 'f', 'm', 'm']","['p248', 'p256', 'p245', 'p229', 'p307']","[7, 5, 9, 3, 10]","[91.73820004985969, 90.34149293193902, 92.00610777531934, 89.14911522239515, 93.00003341222717]",3.0,False,8.8,2.8635642126552705,4.874809265136719,0.771558279423448
0,,sub_118,2024-07-26 14:23:17,3,distance,cathedral,numerosity_judgement,3,72,6,countries_reversed,"['_Japan_reversed', '_Yemen_reversed', '_Sudan_reversed', '_Belgium_reversed', '_Mali_reversed', '_Togo_reversed']","['f', 'f', 'f', 'm', 'm', 'f']","['p268', 'p284', 'p245', 'p256', 'p229', 'p248']","[0, 3, 10, 8, 9, 4]","[84.40078082039426, 89.14911522239515, 93.00003341222717, 92.0152836843556, 92.00610777531934, 89.31368318402099]",6.0,True,7.666666666666667,3.9327683210007,1.874927043914795,0.9428555215072068
0,,sub_118,2024-07-26 14:23:19,3,distance,cathedral,numerosity_judgement,3,73,2,countries_reversed,"['_Yemen_reversed', '_Congo_reversed']","['f', 'f']","['p248', 'p245']","[8, 6]","[92.0152836843556, 91.58892582949886]",2.0,True,9.0,1.4142135623730951,1.1874535083770752,0.709839972761321
0,,sub_118,2024-07-26 14:23:22,3,distance,cathedral,numerosity_judgement,3,74,4,countries_reversed,"['_Yemen_reversed', '_Cuba_reversed', '_Oman_reversed', '_Japan_reversed']","['f', 'f', 'f', 'm']","['p284', 'p268', 'p248', 'p307']","[4, 6, 9, 3]","[89.31368318402099, 91.58892582949886, 92.00610777531934, 89.14911522239515]",4.0,True,7.5,2.6457513110645907,1.812429428100586,0.7775394393371922
0,,sub_118,2024-07-26 14:25:42,3,distance,cathedral,numerosity_judgement,4,0,6,countries_reversed,"['_Belgium_reversed', '_Yemen_reversed', '_Cuba_reversed', '_Tonga_reversed', '_Peru_reversed', '_Oman_reversed']","['f', 'm', 'm', 'f', 'm', 'm']","['p268', 'p318', 'p229', 'p245', 'p307', 'p256']","[5, 0, 3, 7, 1, 10]","[90.34149293193902, 84.40078082039426, 89.14911522239515, 91.73820004985969, 86.2038576498559, 93.00003341222717]",4.0,False,6.333333333333333,3.777124126457412,2.4374048709869385,0.6814890477811826
0,,sub_118,2024-07-26 14:25:45,3,distance,cathedral,numerosity_judgement,4,1,4,countries_reversed,"['_Mali_reversed', '_Britain_reversed', '_Syria_reversed', '_Sudan_reversed']","['f', 'f', 'f', 'm']","['p248', 'p284', 'p268', 'p229']","[3, 2, 9, 10]","[89.14911522239515, 87.57049330475357, 92.00610777531934, 93.00003341222717]",5.0,False,8.0,4.08248290463863,1.499941110610962,0.9618545000567472
0,,sub_118,2024-07-26 14:25:48,3,distance,cathedral,numerosity_judgement,4,2,2,countries_reversed,"['_Cuba_reversed', '_Japan_reversed']","['m', 'm']","['p318', 'p307']","[9, 6]","[92.00610777531934, 91.58892582949886]",3.0,False,9.5,2.1213203435596424,1.6249372959136963,0.7396663261831801
0,,sub_118,2024-07-26 14:25:50,3,distance,cathedral,numerosity_judgement,4,3,3,countries_reversed,"['_Sudan_reversed', '_Mali_reversed', '_Britain_reversed']","['f', 'f', 'm']","['p284', 'p268', 'p307']","[9, 4, 3]","[92.00610777531934, 89.31368318402099, 89.14911522239515]",3.0,True,7.333333333333333,3.2145502536643185,1.6249349117279053,0.8822381114515946
0,,sub_118,2024-07-26 14:25:53,3,distance,cathedral,numerosity_judgement,4,4,5,countries_reversed,"['_Yemen_reversed', '_Britain_reversed', '_Mali_reversed', '_Syria_reversed', '_Sudan_reversed']","['m', 'f', 'f', 'f', 'm']","['p256', 'p248', 'p268', 'p245', 'p318']","[9, 10, 1, 3, 6]","[92.00610777531934, 93.00003341222717, 86.2038576498559, 89.14911522239515, 91.58892582949886]",5.0,True,7.8,3.8340579025361627,1.5624394416809082,0.8625922142776076
0,,sub_118,2024-07-26 14:25:56,3,distance,cathedral,numerosity_judgement,4,5,2,countries_reversed,"['_Yemen_reversed', '_Oman_reversed']","['m', 'f']","['p256', 'p245']","[3, 7]","[89.14911522239515, 91.73820004985969]",4.0,False,7.0,2.8284271247461903,1.937424659729004,0.5731245034615822
0,,sub_118,2024-07-26 14:26:00,3,distance,cathedral,numerosity_judgement,4,6,6,countries_reversed,"['_Mali_reversed', '_Tonga_reversed', '_Togo_reversed', '_Cuba_reversed', '_Japan_reversed', '_Yemen_reversed']","['m', 'f', 'f', 'f', 'm', 'm']","['p307', 'p245', 'p268', 'p284', 'p318', 'p229']","[6, 1, 7, 5, 8, 0]","[91.58892582949886, 86.2038576498559, 91.73820004985969, 90.34149293193902, 92.0152836843556, 84.40078082039426]",6.0,True,6.5,3.271085446759225,2.4374046325683594,0.8091590057882193
0,,sub_118,2024-07-26 14:26:04,3,distance,cathedral,numerosity_judgement,4,7,3,countries_reversed,"['_Oman_reversed', '_Togo_reversed', '_Cuba_reversed']","['m', 'm', 'm']","['p256', 'p229', 'p307']","[6, 10, 5]","[91.58892582949886, 93.00003341222717, 90.34149293193902]",3.0,True,9.0,2.6457513110645907,2.0624191761016846,0.616956077630235
0,,sub_118,2024-07-26 14:26:07,3,distance,cathedral,numerosity_judgement,4,8,5,countries_reversed,"['_Belgium_reversed', '_Oman_reversed', '_Togo_reversed', '_Britain_reversed', '_Congo_reversed']","['f', 'm', 'm', 'm', 'f']","['p245', 'p307', 'p256', 'p229', 'p268']","[7, 5, 10, 0, 4]","[91.73820004985969, 90.34149293193902, 93.00003341222717, 84.40078082039426, 89.31368318402099]",4.0,False,7.2,3.7013511046643495,2.18741512298584,0.8121325615707639
0,,sub_118,2024-07-26 14:26:10,3,distance,cathedral,numerosity_judgement,4,9,4,countries_reversed,"['_Britain_reversed', '_Peru_reversed', '_Oman_reversed', '_Syria_reversed']","['m', 'f', 'm', 'm']","['p318', 'p245', 'p229', 'p256']","[6, 9, 7, 5]","[91.58892582949886, 92.00610777531934, 91.73820004985969, 90.34149293193902]",4.0,True,8.75,1.707825127659933,1.9999217987060547,0.6560549313358303
0,,sub_118,2024-07-26 14:26:13,3,distance,cathedral,numerosity_judgement,4,10,6,countries_reversed,"['_Tonga_reversed', '_Cuba_reversed', '_Yemen_reversed', '_Britain_reversed', '_Peru_reversed', '_Mali_reversed']","['m', 'm', 'm', 'f', 'f', 'f']","['p318', 'p307', 'p229', 'p268', 'p245', 'p284']","[8, 1, 0, 10, 3, 2]","[92.0152836843556, 86.2038576498559, 84.40078082039426, 93.00003341222717, 89.14911522239515, 87.57049330475357]",5.0,False,6.0,4.049691346263317,1.6874332427978516,0.934615821132675
0,,sub_118,2024-07-26 14:26:16,3,distance,cathedral,numerosity_judgement,4,11,3,countries_reversed,"['_Peru_reversed', '_Yemen_reversed', '_Cuba_reversed']","['f', 'm', 'f']","['p245', 'p256', 'p268']","[2, 10, 8]","[87.57049330475357, 93.00003341222717, 92.0152836843556]",3.0,True,8.666666666666666,4.163331998932265,1.8124287128448486,0.6719101123595506
0,,sub_118,2024-07-26 14:26:19,3,distance,cathedral,numerosity_judgement,4,12,5,countries_reversed,"['_Oman_reversed', '_Cuba_reversed', '_Yemen_reversed', '_Tonga_reversed', '_Britain_reversed']","['m', 'f', 'm', 'f', 'f']","['p318', 'p268', 'p256', 'p245', 'p248']","[7, 3, 10, 9, 5]","[91.73820004985969, 89.14911522239515, 93.00003341222717, 92.00610777531934, 90.34149293193902]",4.0,False,8.8,2.8635642126552705,1.624936819076538,0.7011122460560663
0,,sub_118,2024-07-26 14:26:23,3,distance,cathedral,numerosity_judgement,4,13,4,countries_reversed,"['_Cuba_reversed', '_Congo_reversed', '_Syria_reversed', '_Yemen_reversed']","['f', 'm', 'f', 'm']","['p245', 'p307', 'p284', 'p318']","[7, 8, 6, 1]","[91.73820004985969, 92.0152836843556, 91.58892582949886, 86.2038576498559]",5.0,False,7.5,3.1091263510296048,2.1249170303344727,0.7469072749971626
0,,sub_118,2024-07-26 14:26:26,3,distance,cathedral,numerosity_judgement,4,14,2,countries_reversed,"['_Yemen_reversed', '_Congo_reversed']","['f', 'f']","['p284', 'p248']","[8, 5]","[92.0152836843556, 90.34149293193902]",2.0,True,8.5,2.1213203435596424,2.374908208847046,0.8124162978095563
0,,sub_118,2024-07-26 14:26:30,3,distance,cathedral,numerosity_judgement,4,15,3,countries_reversed,"['_Belgium_reversed', '_Cuba_reversed', '_Congo_reversed']","['m', 'm', 'f']","['p229', 'p318', 'p284']","[1, 0, 2]","[86.2038576498559, 84.40078082039426, 87.57049330475357]",2.0,False,3.0,1.0,1.9999217987060547,0.9511633185790488
0,,sub_118,2024-07-26 14:26:33,3,distance,cathedral,numerosity_judgement,4,16,5,countries_reversed,"['_Belgium_reversed', '_Cuba_reversed', '_Congo_reversed', '_Oman_reversed', '_Britain_reversed']","['f', 'm', 'f', 'f', 'm']","['p268', 'p307', 'p248', 'p245', 'p229']","[9, 7, 4, 6, 10]","[92.00610777531934, 91.73820004985969, 89.31368318402099, 91.58892582949886, 93.00003341222717]",4.0,False,9.2,2.3874672772626644,1.8749263286590576,0.6419362160935195
0,,sub_118,2024-07-26 14:26:36,3,distance,cathedral,numerosity_judgement,4,17,2,countries_reversed,"['_Tonga_reversed', '_Britain_reversed']","['m', 'f']","['p256', 'p284']","[8, 0]","[92.0152836843556, 84.40078082039426]",2.0,True,6.0,5.656854249492381,2.374906539916992,0.9345590738849164
0,,sub_118,2024-07-26 14:26:39,3,distance,cathedral,numerosity_judgement,4,18,6,countries_reversed,"['_Peru_reversed', '_Syria_reversed', '_Cuba_reversed', '_Tonga_reversed', '_Yemen_reversed', '_Britain_reversed']","['f', 'm', 'f', 'm', 'm', 'f']","['p245', 'p318', 'p284', 'p256', 'p229', 'p248']","[6, 5, 4, 2, 10, 9]","[91.58892582949886, 90.34149293193902, 89.31368318402099, 87.57049330475357, 93.00003341222717, 92.00610777531934]",5.0,False,8.0,3.03315017762062,1.687434434890747,0.7790375666780162
0,,sub_118,2024-07-26 14:26:42,3,distance,cathedral,numerosity_judgement,4,19,4,countries_reversed,"['_Peru_reversed', '_Britain_reversed', '_Oman_reversed', '_Yemen_reversed']","['m', 'f', 'm', 'm']","['p307', 'p245', 'p318', 'p256']","[7, 3, 4, 10]","[91.73820004985969, 89.14911522239515, 89.31368318402099, 93.00003341222717]",4.0,True,8.0,3.1622776601683795,1.8749103546142578,0.6803087050278062
0,,sub_118,2024-07-26 14:26:46,3,distance,cathedral,numerosity_judgement,4,20,6,countries_reversed,"['_Sudan_reversed', '_Togo_reversed', '_Oman_reversed', '_Mali_reversed', '_Britain_reversed', '_Yemen_reversed']","['m', 'f', 'f', 'f', 'f', 'm']","['p307', 'p248', 'p245', 'p284', 'p268', 'p318']","[3, 8, 7, 5, 6, 9]","[89.14911522239515, 92.0152836843556, 91.73820004985969, 90.34149293193902, 91.58892582949886, 92.00610777531934]",6.0,True,8.333333333333334,2.160246899469287,2.3124094009399414,0.7860742254000681
0,,sub_118,2024-07-26 14:26:49,3,distance,cathedral,numerosity_judgement,4,21,4,countries_reversed,"['_Mali_reversed', '_Cuba_reversed', '_Tonga_reversed', '_Peru_reversed']","['m', 'm', 'f', 'f']","['p256', 'p229', 'p248', 'p268']","[1, 4, 5, 10]","[86.2038576498559, 89.31368318402099, 90.34149293193902, 93.00003341222717]",4.0,True,7.0,3.7416573867739413,1.6249380111694336,0.8012257405515832
0,,sub_118,2024-07-26 14:26:52,3,distance,cathedral,numerosity_judgement,4,22,5,countries_reversed,"['_Mali_reversed', '_Oman_reversed', '_Togo_reversed', '_Yemen_reversed', '_Britain_reversed']","['f', 'f', 'f', 'f', 'm']","['p268', 'p245', 'p248', 'p284', 'p229']","[3, 2, 6, 5, 8]","[89.14911522239515, 87.57049330475357, 91.58892582949886, 90.34149293193902, 92.0152836843556]",5.0,True,6.8,2.3874672772626644,1.56243896484375,0.9228804902962208
0,,sub_118,2024-07-26 14:26:55,3,distance,cathedral,numerosity_judgement,4,23,3,countries_reversed,"['_Togo_reversed', '_Yemen_reversed', '_Cuba_reversed']","['f', 'm', 'm']","['p248', 'p229', 'p307']","[5, 3, 2]","[90.34149293193902, 89.14911522239515, 87.57049330475357]",3.0,True,5.333333333333333,1.5275252316519465,1.749931812286377,0.7771081602542277
0,,sub_118,2024-07-26 14:26:58,3,distance,cathedral,numerosity_judgement,4,24,2,countries_reversed,"['_Togo_reversed', '_Yemen_reversed']","['m', 'f']","['p256', 'p284']","[10, 2]","[93.00003341222717, 87.57049330475357]",3.0,False,8.0,5.656854249492381,2.3124115467071533,0.8085574849619793
0,,sub_118,2024-07-26 14:27:02,3,distance,cathedral,numerosity_judgement,4,25,3,countries_reversed,"['_Yemen_reversed', '_Cuba_reversed', '_Oman_reversed']","['f', 'f', 'm']","['p268', 'p245', 'p256']","[8, 5, 9]","[92.0152836843556, 90.34149293193902, 92.00610777531934]",4.0,False,9.333333333333334,2.0816659994661326,1.9999217987060547,0.6368630121439111
0,,sub_118,2024-07-26 14:27:05,3,distance,cathedral,numerosity_judgement,4,26,6,countries_reversed,"['_Tonga_reversed', '_Britain_reversed', '_Yemen_reversed', '_Syria_reversed', '_Oman_reversed', '_Cuba_reversed']","['f', 'm', 'f', 'm', 'f', 'f']","['p248', 'p307', 'p284', 'p256', 'p245', 'p268']","[2, 6, 7, 8, 10, 3]","[87.57049330475357, 91.58892582949886, 91.73820004985969, 92.0152836843556, 93.00003341222717, 89.14911522239515]",6.0,True,8.0,3.03315017762062,1.7499313354492188,0.7033934854159574
0,,sub_118,2024-07-26 14:27:08,3,distance,cathedral,numerosity_judgement,4,27,2,countries_reversed,"['_Belgium_reversed', '_Sudan_reversed']","['f', 'f']","['p248', 'p245']","[8, 0]","[92.0152836843556, 84.40078082039426]",2.0,True,6.0,5.656854249492381,1.812431812286377,0.9619566451027124
0,,sub_118,2024-07-26 14:27:11,3,distance,cathedral,numerosity_judgement,4,28,4,countries_reversed,"['_Sudan_reversed', '_Mali_reversed', '_Congo_reversed', '_Japan_reversed']","['m', 'f', 'f', 'm']","['p307', 'p284', 'p268', 'p256']","[10, 3, 8, 7]","[93.00003341222717, 89.14911522239515, 92.0152836843556, 91.73820004985969]",5.0,False,9.0,2.943920288775949,1.7499315738677979,0.8202587674497787
0,,sub_118,2024-07-26 14:27:14,3,distance,cathedral,numerosity_judgement,4,29,5,countries_reversed,"['_Cuba_reversed', '_Tonga_reversed', '_Oman_reversed', '_Congo_reversed', '_Syria_reversed']","['m', 'f', 'm', 'f', 'm']","['p256', 'p248', 'p307', 'p268', 'p318']","[8, 9, 6, 3, 0]","[92.0152836843556, 92.00610777531934, 91.58892582949886, 89.14911522239515, 84.40078082039426]",6.0,False,7.2,3.7013511046643495,1.874927282333374,0.834434229939848
0,,sub_118,2024-07-26 14:27:17,3,distance,cathedral,numerosity_judgement,4,30,3,countries_reversed,"['_Congo_reversed', '_Yemen_reversed', '_Mali_reversed']","['f', 'm', 'f']","['p245', 'p229', 'p284']","[6, 3, 7]","[91.58892582949886, 89.14911522239515, 91.73820004985969]",3.0,True,7.333333333333333,2.0816659994661326,1.4999310970306396,0.8512314152763591
0,,sub_118,2024-07-26 14:27:20,3,distance,cathedral,numerosity_judgement,4,31,2,countries_reversed,"['_Tonga_reversed', '_Britain_reversed']","['m', 'm']","['p318', 'p307']","[5, 1]","[90.34149293193902, 86.2038576498559]",2.0,True,5.0,2.8284271247461903,1.8124747276306152,0.8466575871070253
0,,sub_118,2024-07-26 14:27:23,3,distance,cathedral,numerosity_judgement,4,32,5,countries_reversed,"['_Togo_reversed', '_Tonga_reversed', '_Syria_reversed', '_Yemen_reversed', '_Peru_reversed']","['m', 'f', 'm', 'm', 'f']","['p307', 'p245', 'p256', 'p318', 'p284']","[5, 3, 8, 2, 7]","[90.34149293193902, 89.14911522239515, 92.0152836843556, 87.57049330475357, 91.73820004985969]",4.0,False,7.0,2.5495097567963922,1.8124291896820068,0.675485188968335
0,,sub_118,2024-07-26 14:27:26,3,distance,cathedral,numerosity_judgement,4,33,4,countries_reversed,"['_Cuba_reversed', '_Congo_reversed', '_Yemen_reversed', '_Oman_reversed']","['f', 'f', 'm', 'm']","['p245', 'p284', 'p318', 'p229']","[7, 2, 3, 0]","[91.73820004985969, 87.57049330475357, 89.14911522239515, 84.40078082039426]",3.0,False,5.0,2.943920288775949,1.937424659729004,0.6892407218249915
0,,sub_118,2024-07-26 14:27:29,3,distance,cathedral,numerosity_judgement,4,34,6,countries_reversed,"['_Yemen_reversed', '_Syria_reversed', '_Mali_reversed', '_Togo_reversed', '_Oman_reversed', '_Peru_reversed']","['f', 'm', 'f', 'f', 'm', 'm']","['p245', 'p307', 'p268', 'p284', 'p256', 'p318']","[3, 2, 4, 0, 9, 10]","[89.14911522239515, 87.57049330475357, 89.31368318402099, 84.40078082039426, 92.00610777531934, 93.00003341222717]",4.0,False,6.666666666666667,3.9832984656772417,1.8124279975891113,0.8894336624673703
