event_id,timestamp,subject_id,session_index,plane,setup,task,block,trial_index,headpose_offset_azi,headpose_offset_ele,target_number,target_filename,target_talker,target_sex,target_speaker_id,step_number:,distance_masker,distance_target,target_speaker_proc,target_speaker_chan,target_speaker_azi,target_speaker_ele,target_speaker_dist,target_stim_level,masker_filename,masker_speaker_id,masker_speaker_proc,masker_speaker_chan,masker_speaker_azi,masker_speaker_ele,masker_speaker_dist,masker_stim_level,normalisation_method,normalisation_level_masker,normalisation_level_target,played_number,resp_number,is_correct,reaction_time
,2024-07-26 15:43:49,sub_119,3,distance,cathedral,spatial_unmasking,1,0,0,0,_six_,talker-p248_sex-f_text-_six_.wav,p248,f,5,1,6.0,7.0,RX81,6,0.0,0.0,7.0,92.34149293193902,babble-reversed_n13_p318-five-p229-three-p256-four-p268-eight-p248-one-p245-nine.wav,4,RX81,5,0.0,0.0,6.0,89.31368318402099,mgb_normalisation,89.31368318402099,90.34149293193902,6,6.0,True,1.1874234676361084
,2024-07-26 15:43:52,sub_119,3,distance,cathedral,spatial_unmasking,1,1,0,0,_nine_,talker-p248_sex-f_text-_nine_.wav,p248,f,5,2,6.0,7.0,RX81,6,0.0,0.0,7.0,88.34149293193902,babble-reversed_n13_p229-three-p307-one-p318-two-p245-eight-p268-five-p284-four.wav,4,RX81,5,0.0,0.0,6.0,89.31368318402099,mgb_normalisation,89.31368318402099,90.34149293193902,9,9.0,True,1.3749125003814695
,2024-07-26 15:43:56,sub_119,3,distance,cathedral,spatial_unmasking,1,2,0,0,_five_,talker-p248_sex-f_text-_five_.wav,p248,f,5,3,6.0,7.0,RX81,6,0.0,0.0,7.0,84.341492931939,babble-reversed_n13_p318-five-p229-three-p256-four-p268-eight-p248-one-p245-nine.wav,4,RX81,5,0.0,0.0,6.0,89.31368318402099,mgb_normalisation,89.31368318402099,90.34149293193902,5,5.0,True,1.062431812286377
,2024-07-26 15:44:00,sub_119,3,distance,cathedral,spatial_unmasking,1,3,0,0,_six_,talker-p248_sex-f_text-_six_.wav,p248,f,5,4,6.0,7.0,RX81,6,0.0,0.0,7.0,80.34149293193903,babble-reversed_n13_p307-two-p256-four-p318-three-p284-eight-p248-five-p245-nine.wav,4,RX81,5,0.0,0.0,6.0,89.313683184021,mgb_normalisation,89.31368318402099,90.34149293193902,6,6.0,True,1.6248962879180908
,2024-07-26 15:44:04,sub_119,3,distance,cathedral,spatial_unmasking,1,4,0,0,_two_,talker-p248_sex-f_text-_two_.wav,p248,f,5,5,6.0,7.0,RX81,6,0.0,0.0,7.0,76.34149293193902,babble-reversed_n13_p307-one-p318-five-p229-four-p268-eight-p284-two-p245-three.wav,4,RX81,5,0.0,0.0,6.0,89.31368318402099,mgb_normalisation,89.31368318402099,90.34149293193902,2,3.0,False,2.062368631362915
,2024-07-26 15:44:10,sub_119,3,distance,cathedral,spatial_unmasking,1,5,0,0,_one_,talker-p248_sex-f_text-_one_.wav,p248,f,5,6,6.0,7.0,RX81,6,0.0,0.0,7.0,78.34149293193902,babble-reversed_n13_p307-two-p229-one-p256-five-p248-nine-p284-three-p268-eight.wav,4,RX81,5,0.0,0.0,6.0,89.313683184021,mgb_normalisation,89.31368318402099,90.34149293193902,1,4.0,False,3.562272787094116
,2024-07-26 15:44:14,sub_119,3,distance,cathedral,spatial_unmasking,1,6,0,0,_six_,talker-p248_sex-f_text-_six_.wav,p248,f,5,7,6.0,7.0,RX81,6,0.0,0.0,7.0,80.34149293193903,babble-reversed_n13_p256-five-p229-one-p318-three-p248-nine-p284-eight-p268-two.wav,4,RX81,5,0.0,0.0,6.0,89.31368318402099,mgb_normalisation,89.31368318402099,90.34149293193902,6,6.0,True,1.640520095825195
,2024-07-26 15:44:17,sub_119,3,distance,cathedral,spatial_unmasking,1,7,0,0,_five_,talker-p248_sex-f_text-_five_.wav,p248,f,5,8,6.0,7.0,RX81,6,0.0,0.0,7.0,80.341492931939,babble-reversed_n13_p229-one-p318-nine-p256-four-p284-eight-p268-five-p245-two.wav,4,RX81,5,0.0,0.0,6.0,89.31368318402099,mgb_normalisation,89.31368318402099,90.34149293193902,5,5.0,True,0.8124754428863525
,2024-07-26 15:44:23,sub_119,3,distance,cathedral,spatial_unmasking,1,8,0,0,_one_,talker-p248_sex-f_text-_one_.wav,p248,f,5,9,6.0,7.0,RX81,6,0.0,0.0,7.0,78.34149293193902,babble-reversed_n13_p318-three-p307-one-p256-five-p248-nine-p245-two-p284-eight.wav,4,RX81,5,0.0,0.0,6.0,89.31368318402099,mgb_normalisation,89.31368318402099,90.34149293193902,1,4.0,False,3.624768733978272
,2024-07-26 15:44:28,sub_119,3,distance,cathedral,spatial_unmasking,1,9,0,0,_three_,talker-p248_sex-f_text-_three_.wav,p248,f,5,10,6.0,7.0,RX81,6,0.0,0.0,7.0,79.341492931939,babble-reversed_n13_p256-eight-p318-five-p307-four-p245-three-p268-one-p284-nine.wav,4,RX81,5,0.0,0.0,6.0,89.31368318402099,mgb_normalisation,89.31368318402099,90.34149293193902,3,8.0,False,2.124865293502808
,2024-07-26 15:44:31,sub_119,3,distance,cathedral,spatial_unmasking,1,10,0,0,_nine_,talker-p248_sex-f_text-_nine_.wav,p248,f,5,11,6.0,7.0,RX81,6,0.0,0.0,7.0,80.341492931939,babble-reversed_n13_p256-eight-p318-five-p307-four-p245-three-p268-one-p284-nine.wav,4,RX81,5,0.0,0.0,6.0,89.31368318402099,mgb_normalisation,89.31368318402099,90.34149293193902,9,9.0,True,1.062431573867798
,2024-07-26 15:44:35,sub_119,3,distance,cathedral,spatial_unmasking,1,11,0,0,_six_,talker-p248_sex-f_text-_six_.wav,p248,f,5,12,6.0,7.0,RX81,6,0.0,0.0,7.0,80.34149293193903,babble-reversed_n13_p256-nine-p307-four-p229-one-p284-three-p248-two-p245-five.wav,4,RX81,5,0.0,0.0,6.0,89.31368318402099,mgb_normalisation,89.31368318402099,90.34149293193902,6,6.0,True,1.0624322891235352
,2024-07-26 15:44:38,sub_119,3,distance,cathedral,spatial_unmasking,1,12,0,0,_six_,talker-p248_sex-f_text-_six_.wav,p248,f,5,13,6.0,7.0,RX81,6,0.0,0.0,7.0,79.34149293193902,babble-reversed_n13_p318-three-p229-one-p256-eight-p245-five-p248-four-p284-nine.wav,4,RX81,5,0.0,0.0,6.0,89.313683184021,mgb_normalisation,89.31368318402099,90.34149293193902,6,6.0,True,1.062431812286377
,2024-07-26 15:44:41,sub_119,3,distance,cathedral,spatial_unmasking,1,13,0,0,_five_,talker-p248_sex-f_text-_five_.wav,p248,f,5,14,6.0,7.0,RX81,6,0.0,0.0,7.0,79.341492931939,babble-reversed_n13_p307-one-p318-five-p229-four-p268-eight-p284-two-p245-three.wav,4,RX81,5,0.0,0.0,6.0,89.31368318402099,mgb_normalisation,89.31368318402099,90.34149293193902,5,5.0,True,0.7499549388885498
,2024-07-26 15:44:47,sub_119,3,distance,cathedral,spatial_unmasking,1,14,0,0,_four_,talker-p248_sex-f_text-_four_.wav,p248,f,5,15,6.0,7.0,RX81,6,0.0,0.0,7.0,78.34149293193902,babble-reversed_n13_p229-five-p318-three-p307-two-p245-four-p284-nine-p248-eight.wav,4,RX81,5,0.0,0.0,6.0,89.31368318402099,mgb_normalisation,89.31368318402099,90.34149293193902,4,4.0,True,2.8123183250427246
,2024-07-26 15:44:51,sub_119,3,distance,cathedral,spatial_unmasking,1,15,0,0,_eight_,talker-p248_sex-f_text-_eight_.wav,p248,f,5,16,6.0,7.0,RX81,6,0.0,0.0,7.0,78.34149293193902,babble-reversed_n13_p256-eight-p229-three-p307-nine-p245-five-p248-four-p268-two.wav,4,RX81,5,0.0,0.0,6.0,89.31368318402099,mgb_normalisation,89.31368318402099,90.34149293193902,8,4.0,False,2.062367677688598
,2024-07-26 15:44:56,sub_119,3,distance,cathedral,spatial_unmasking,1,16,0,0,_eight_,talker-p248_sex-f_text-_eight_.wav,p248,f,5,17,6.0,7.0,RX81,6,0.0,0.0,7.0,79.34149293193902,babble-reversed_n13_p318-four-p256-five-p229-three-p284-one-p245-eight-p248-nine.wav,4,RX81,5,0.0,0.0,6.0,89.31368318402099,mgb_normalisation,89.31368318402099,90.34149293193902,8,9.0,False,2.624816656112671
,2024-07-26 15:45:01,sub_119,3,distance,cathedral,spatial_unmasking,1,17,0,0,_four_,talker-p248_sex-f_text-_four_.wav,p248,f,5,18,6.0,7.0,RX81,6,0.0,0.0,7.0,80.341492931939,babble-reversed_n13_p318-three-p307-one-p256-five-p248-nine-p245-two-p284-eight.wav,4,RX81,5,0.0,0.0,6.0,89.31368318402099,mgb_normalisation,89.31368318402099,90.34149293193902,4,6.0,False,2.437344789505005
,2024-07-26 15:45:05,sub_119,3,distance,cathedral,spatial_unmasking,1,18,0,0,_one_,talker-p248_sex-f_text-_one_.wav,p248,f,5,19,6.0,7.0,RX81,6,0.0,0.0,7.0,81.34149293193902,babble-reversed_n13_p256-two-p307-five-p318-nine-p248-eight-p245-four-p284-one.wav,4,RX81,5,0.0,0.0,6.0,89.31368318402099,mgb_normalisation,89.31368318402099,90.34149293193902,1,4.0,False,1.5624005794525146
,2024-07-26 15:45:08,sub_119,3,distance,cathedral,spatial_unmasking,1,19,0,0,_two_,talker-p248_sex-f_text-_two_.wav,p248,f,5,20,6.0,7.0,RX81,6,0.0,0.0,7.0,82.34149293193902,babble-reversed_n13_p256-four-p307-eight-p318-two-p248-three-p284-nine-p268-one.wav,4,RX81,5,0.0,0.0,6.0,89.313683184021,mgb_normalisation,89.31368318402099,90.34149293193902,2,3.0,False,1.1249287128448486
,2024-07-26 15:45:12,sub_119,3,distance,cathedral,spatial_unmasking,1,20,0,0,_five_,talker-p248_sex-f_text-_five_.wav,p248,f,5,21,6.0,7.0,RX81,6,0.0,0.0,7.0,83.34149293193902,babble-reversed_n13_p229-one-p318-eight-p256-three-p268-two-p245-five-p248-nine.wav,4,RX81,5,0.0,0.0,6.0,89.31368318402099,mgb_normalisation,89.31368318402099,90.34149293193902,5,5.0,True,1.3124158382415771
,2024-07-26 15:45:15,sub_119,3,distance,cathedral,spatial_unmasking,1,21,0,0,_one_,talker-p248_sex-f_text-_one_.wav,p248,f,5,22,6.0,7.0,RX81,6,0.0,0.0,7.0,83.34149293193903,babble-reversed_n13_p229-three-p256-one-p307-two-p284-eight-p268-five-p248-nine.wav,4,RX81,5,0.0,0.0,6.0,89.31368318402099,mgb_normalisation,89.31368318402099,90.34149293193902,1,1.0,True,1.0624327659606934
,2024-07-26 15:45:19,sub_119,3,distance,cathedral,spatial_unmasking,1,22,0,0,_five_,talker-p248_sex-f_text-_five_.wav,p248,f,5,23,6.0,7.0,RX81,6,0.0,0.0,7.0,82.341492931939,babble-reversed_n13_p229-five-p256-three-p318-nine-p248-two-p284-four-p268-one.wav,4,RX81,5,0.0,0.0,6.0,89.313683184021,mgb_normalisation,89.31368318402099,90.34149293193902,5,5.0,True,1.1249287128448486
,2024-07-26 15:45:25,sub_119,3,distance,cathedral,spatial_unmasking,1,23,0,0,_nine_,talker-p248_sex-f_text-_nine_.wav,p248,f,5,24,6.0,7.0,RX81,6,0.0,0.0,7.0,82.34149293193902,babble-reversed_n13_p256-four-p307-eight-p318-two-p248-three-p284-nine-p268-one.wav,4,RX81,5,0.0,0.0,6.0,89.313683184021,mgb_normalisation,89.31368318402099,90.34149293193902,9,1.0,False,3.249790906906128
,2024-07-26 15:45:29,sub_119,3,distance,cathedral,spatial_unmasking,1,24,0,0,_four_,talker-p248_sex-f_text-_four_.wav,p248,f,5,25,6.0,7.0,RX81,6,0.0,0.0,7.0,83.34149293193902,babble-reversed_n13_p307-five-p229-three-p318-nine-p245-four-p268-eight-p284-two.wav,4,RX81,5,0.0,0.0,6.0,89.31368318402099,mgb_normalisation,89.31368318402099,90.34149293193902,4,4.0,True,1.4999043941497805
,2024-07-26 15:45:33,sub_119,3,distance,cathedral,spatial_unmasking,1,25,0,0,_nine_,talker-p248_sex-f_text-_nine_.wav,p248,f,5,26,6.0,7.0,RX81,6,0.0,0.0,7.0,83.34149293193902,babble-reversed_n13_p229-five-p318-three-p307-two-p245-four-p284-nine-p248-eight.wav,4,RX81,5,0.0,0.0,6.0,89.31368318402099,mgb_normalisation,89.31368318402099,90.34149293193902,9,5.0,False,1.6873915195465088
,2024-07-26 15:45:38,sub_119,3,distance,cathedral,spatial_unmasking,1,26,0,0,_one_,talker-p248_sex-f_text-_one_.wav,p248,f,5,27,6.0,7.0,RX81,6,0.0,0.0,7.0,84.34149293193903,babble-reversed_n13_p318-nine-p307-eight-p229-two-p284-one-p248-three-p245-five.wav,4,RX81,5,0.0,0.0,6.0,89.31368318402099,mgb_normalisation,89.31368318402099,90.34149293193902,1,4.0,False,2.687328815460205
,2024-07-26 15:45:41,sub_119,3,distance,cathedral,spatial_unmasking,1,27,0,0,_two_,talker-p248_sex-f_text-_two_.wav,p248,f,5,28,6.0,7.0,RX81,6,0.0,0.0,7.0,85.34149293193903,babble-reversed_n13_p229-five-p318-three-p307-two-p245-four-p284-nine-p248-eight.wav,4,RX81,5,0.0,0.0,6.0,89.31368318402099,mgb_normalisation,89.31368318402099,90.34149293193902,2,3.0,False,1.37493896484375
,2024-07-26 15:45:45,sub_119,3,distance,cathedral,spatial_unmasking,1,28,0,0,_two_,talker-p248_sex-f_text-_two_.wav,p248,f,5,29,6.0,7.0,RX81,6,0.0,0.0,7.0,86.34149293193902,babble-reversed_n13_p229-nine-p256-four-p318-three-p268-eight-p248-two-p284-five.wav,4,RX81,5,0.0,0.0,6.0,89.31368318402099,mgb_normalisation,89.31368318402099,90.34149293193902,2,3.0,False,0.9998910427093506
,2024-07-26 15:45:48,sub_119,3,distance,cathedral,spatial_unmasking,1,29,0,0,_two_,talker-p248_sex-f_text-_two_.wav,p248,f,5,30,6.0,7.0,RX81,6,0.0,0.0,7.0,87.34149293193902,babble-reversed_n13_p318-nine-p256-five-p307-eight-p268-three-p248-one-p245-four.wav,4,RX81,5,0.0,0.0,6.0,89.31368318402099,mgb_normalisation,89.31368318402099,90.34149293193902,2,2.0,True,1.249920129776001
,2024-07-26 15:45:52,sub_119,3,distance,cathedral,spatial_unmasking,1,30,0,0,_nine_,talker-p248_sex-f_text-_nine_.wav,p248,f,5,31,6.0,7.0,RX81,6,0.0,0.0,7.0,87.34149293193902,babble-reversed_n13_p229-nine-p318-one-p307-two-p248-eight-p245-five-p284-four.wav,4,RX81,5,0.0,0.0,6.0,89.31368318402099,mgb_normalisation,89.31368318402099,90.34149293193902,9,9.0,True,1.187425136566162
,2024-07-26 15:45:56,sub_119,3,distance,cathedral,spatial_unmasking,1,31,0,0,_two_,talker-p248_sex-f_text-_two_.wav,p248,f,5,32,6.0,7.0,RX81,6,0.0,0.0,7.0,86.34149293193902,babble-reversed_n13_p229-five-p256-one-p318-three-p248-nine-p268-four-p284-eight.wav,4,RX81,5,0.0,0.0,6.0,89.31368318402099,mgb_normalisation,89.31368318402099,90.34149293193902,2,3.0,False,1.312415361404419
,2024-07-26 15:46:00,sub_119,3,distance,cathedral,spatial_unmasking,1,32,0,0,_one_,talker-p248_sex-f_text-_one_.wav,p248,f,5,33,6.0,7.0,RX81,6,0.0,0.0,7.0,87.34149293193902,babble-reversed_n13_p229-nine-p256-four-p318-three-p268-eight-p248-two-p284-five.wav,4,RX81,5,0.0,0.0,6.0,89.31368318402099,mgb_normalisation,89.31368318402099,90.34149293193902,1,1.0,True,1.4998764991760254
,2024-07-26 15:46:03,sub_119,3,distance,cathedral,spatial_unmasking,1,33,0,0,_three_,talker-p248_sex-f_text-_three_.wav,p248,f,5,34,6.0,7.0,RX81,6,0.0,0.0,7.0,87.34149293193902,babble-reversed_n13_p318-three-p307-one-p256-five-p248-nine-p245-two-p284-eight.wav,4,RX81,5,0.0,0.0,6.0,89.31368318402099,mgb_normalisation,89.31368318402099,90.34149293193902,3,3.0,True,1.374953269958496
,2024-07-26 15:46:07,sub_119,3,distance,cathedral,spatial_unmasking,1,34,0,0,_three_,talker-p248_sex-f_text-_three_.wav,p248,f,5,35,6.0,7.0,RX81,6,0.0,0.0,7.0,86.34149293193902,babble-reversed_n13_p318-three-p307-one-p256-five-p248-nine-p245-two-p284-eight.wav,4,RX81,5,0.0,0.0,6.0,89.31368318402099,mgb_normalisation,89.31368318402099,90.34149293193902,3,3.0,True,0.9374396800994872
,2024-07-26 15:46:10,sub_119,3,distance,cathedral,spatial_unmasking,1,35,0,0,_three_,talker-p248_sex-f_text-_three_.wav,p248,f,5,36,6.0,7.0,RX81,6,0.0,0.0,7.0,86.34149293193902,babble-reversed_n13_p229-three-p307-one-p318-two-p245-eight-p268-five-p284-four.wav,4,RX81,5,0.0,0.0,6.0,89.31368318402099,mgb_normalisation,89.31368318402099,90.34149293193902,3,3.0,True,0.9374399185180664
,2024-07-26 15:46:14,sub_119,3,distance,cathedral,spatial_unmasking,1,36,0,0,_six_,talker-p248_sex-f_text-_six_.wav,p248,f,5,37,6.0,7.0,RX81,6,0.0,0.0,7.0,85.34149293193903,babble-reversed_n13_p256-eight-p318-two-p307-five-p245-four-p268-nine-p284-one.wav,4,RX81,5,0.0,0.0,6.0,89.31368318402099,mgb_normalisation,89.31368318402099,90.34149293193902,6,6.0,True,1.1249284744262695
,2024-07-26 15:46:17,sub_119,3,distance,cathedral,spatial_unmasking,1,37,0,0,_two_,talker-p248_sex-f_text-_two_.wav,p248,f,5,38,6.0,7.0,RX81,6,0.0,0.0,7.0,85.34149293193903,babble-reversed_n13_p229-two-p318-eight-p256-three-p268-one-p248-nine-p284-five.wav,4,RX81,5,0.0,0.0,6.0,89.31368318402099,mgb_normalisation,89.31368318402099,90.34149293193902,2,2.0,True,1.3124158382415771
,2024-07-26 15:46:21,sub_119,3,distance,cathedral,spatial_unmasking,1,38,0,0,_four_,talker-p248_sex-f_text-_four_.wav,p248,f,5,39,6.0,7.0,RX81,6,0.0,0.0,7.0,84.341492931939,babble-reversed_n13_p229-two-p307-five-p318-four-p284-one-p248-nine-p268-eight.wav,4,RX81,5,0.0,0.0,6.0,89.31368318402099,mgb_normalisation,89.31368318402099,90.34149293193902,4,6.0,False,1.312481164932251
,2024-07-26 15:46:24,sub_119,3,distance,cathedral,spatial_unmasking,1,39,0,0,_one_,talker-p248_sex-f_text-_one_.wav,p248,f,5,40,6.0,7.0,RX81,6,0.0,0.0,7.0,85.34149293193903,babble-reversed_n13_p229-three-p307-one-p318-two-p245-eight-p268-five-p284-four.wav,4,RX81,5,0.0,0.0,6.0,89.31368318402099,mgb_normalisation,89.31368318402099,90.34149293193902,1,1.0,True,0.9374401569366456
,2024-07-26 15:46:28,sub_119,3,distance,cathedral,spatial_unmasking,1,40,0,0,_three_,talker-p248_sex-f_text-_three_.wav,p248,f,5,41,6.0,7.0,RX81,6,0.0,0.0,7.0,85.34149293193903,babble-reversed_n13_p318-nine-p307-eight-p229-two-p284-one-p248-three-p245-five.wav,4,RX81,5,0.0,0.0,6.0,89.31368318402099,mgb_normalisation,89.31368318402099,90.34149293193902,3,3.0,True,1.1249282360076904
,2024-07-26 15:47:19,sub_119,3,distance,cathedral,spatial_unmasking,2,41,0,0,_six_,talker-p248_sex-f_text-_six_.wav,p248,f,5,1,4.0,7.0,RX81,6,0.0,0.0,7.0,92.34149293193902,babble-reversed_n13_p256-five-p307-nine-p318-three-p284-eight-p268-one-p248-two.wav,2,RX81,3,0.0,0.0,4.0,87.57049330475357,mgb_normalisation,87.57049330475357,90.34149293193902,6,6.0,True,1.6873915195465088
,2024-07-26 15:47:23,sub_119,3,distance,cathedral,spatial_unmasking,2,42,0,0,_four_,talker-p248_sex-f_text-_four_.wav,p248,f,5,2,4.0,7.0,RX81,6,0.0,0.0,7.0,88.34149293193902,babble-reversed_n13_p318-five-p229-four-p256-eight-p284-one-p245-three-p248-two.wav,2,RX81,3,0.0,0.0,4.0,87.57049330475357,mgb_normalisation,87.57049330475357,90.34149293193902,4,4.0,True,1.437408685684204
,2024-07-26 15:47:27,sub_119,3,distance,cathedral,spatial_unmasking,2,43,0,0,_four_,talker-p248_sex-f_text-_four_.wav,p248,f,5,3,4.0,7.0,RX81,6,0.0,0.0,7.0,84.341492931939,babble-reversed_n13_p256-four-p229-two-p318-five-p268-one-p248-eight-p245-three.wav,2,RX81,3,0.0,0.0,4.0,87.57049330475355,mgb_normalisation,87.57049330475357,90.34149293193902,4,4.0,True,1.8124139308929443
,2024-07-26 15:47:32,sub_119,3,distance,cathedral,spatial_unmasking,2,44,0,0,_one_,talker-p248_sex-f_text-_one_.wav,p248,f,5,4,4.0,7.0,RX81,6,0.0,0.0,7.0,80.34149293193903,babble-reversed_n13_p229-two-p318-eight-p256-three-p268-one-p248-nine-p284-five.wav,2,RX81,3,0.0,0.0,4.0,87.57049330475355,mgb_normalisation,87.57049330475357,90.34149293193902,1,4.0,False,2.374847650527954
,2024-07-26 15:47:36,sub_119,3,distance,cathedral,spatial_unmasking,2,45,0,0,_nine_,talker-p248_sex-f_text-_nine_.wav,p248,f,5,5,4.0,7.0,RX81,6,0.0,0.0,7.0,82.34149293193902,babble-reversed_n13_p229-nine-p256-four-p318-three-p268-eight-p248-two-p284-five.wav,2,RX81,3,0.0,0.0,4.0,87.57049330475357,mgb_normalisation,87.57049330475357,90.34149293193902,9,9.0,True,1.1874239444732666
,2024-07-26 15:47:39,sub_119,3,distance,cathedral,spatial_unmasking,2,46,0,0,_six_,talker-p248_sex-f_text-_six_.wav,p248,f,5,6,4.0,7.0,RX81,6,0.0,0.0,7.0,82.34149293193902,babble-reversed_n13_p256-eight-p229-three-p307-nine-p245-five-p248-four-p268-two.wav,2,RX81,3,0.0,0.0,4.0,87.57049330475355,mgb_normalisation,87.57049330475357,90.34149293193902,6,6.0,True,1.062432050704956
,2024-07-26 15:47:43,sub_119,3,distance,cathedral,spatial_unmasking,2,47,0,0,_three_,talker-p248_sex-f_text-_three_.wav,p248,f,5,7,4.0,7.0,RX81,6,0.0,0.0,7.0,80.341492931939,babble-reversed_n13_p307-five-p229-three-p318-nine-p245-four-p268-eight-p284-two.wav,2,RX81,3,0.0,0.0,4.0,87.57049330475355,mgb_normalisation,87.57049330475357,90.34149293193902,3,3.0,True,1.3749120235443115
,2024-07-26 15:47:46,sub_119,3,distance,cathedral,spatial_unmasking,2,48,0,0,_one_,talker-p248_sex-f_text-_one_.wav,p248,f,5,8,4.0,7.0,RX81,6,0.0,0.0,7.0,80.34149293193903,babble-reversed_n13_p229-three-p307-one-p318-two-p245-eight-p268-five-p284-four.wav,2,RX81,3,0.0,0.0,4.0,87.57049330475357,mgb_normalisation,87.57049330475357,90.34149293193902,1,1.0,True,0.99993634223938
,2024-07-26 15:47:50,sub_119,3,distance,cathedral,spatial_unmasking,2,49,0,0,_six_,talker-p248_sex-f_text-_six_.wav,p248,f,5,9,4.0,7.0,RX81,6,0.0,0.0,7.0,78.34149293193902,babble-reversed_n13_p256-five-p229-one-p318-three-p248-nine-p284-eight-p268-two.wav,2,RX81,3,0.0,0.0,4.0,87.57049330475357,mgb_normalisation,87.57049330475357,90.34149293193902,6,6.0,True,1.437408208847046
,2024-07-26 15:47:56,sub_119,3,distance,cathedral,spatial_unmasking,2,50,0,0,_two_,talker-p248_sex-f_text-_two_.wav,p248,f,5,10,4.0,7.0,RX81,6,0.0,0.0,7.0,78.34149293193902,babble-reversed_n13_p229-five-p256-one-p318-three-p248-nine-p268-four-p284-eight.wav,2,RX81,3,0.0,0.0,4.0,87.57049330475355,mgb_normalisation,87.57049330475357,90.34149293193902,2,3.0,False,3.624772548675537
,2024-07-26 15:48:00,sub_119,3,distance,cathedral,spatial_unmasking,2,51,0,0,_two_,talker-p248_sex-f_text-_two_.wav,p248,f,5,11,4.0,7.0,RX81,6,0.0,0.0,7.0,79.34149293193902,babble-reversed_n13_p229-eight-p256-nine-p318-four-p245-three-p268-five-p284-two.wav,2,RX81,3,0.0,0.0,4.0,87.57049330475355,mgb_normalisation,87.57049330475357,90.34149293193902,2,3.0,False,1.0624325275421145
,2024-07-26 15:48:03,sub_119,3,distance,cathedral,spatial_unmasking,2,52,0,0,_two_,talker-p248_sex-f_text-_two_.wav,p248,f,5,12,4.0,7.0,RX81,6,0.0,0.0,7.0,80.34149293193903,babble-reversed_n13_p318-five-p256-nine-p307-two-p245-eight-p248-one-p284-four.wav,2,RX81,3,0.0,0.0,4.0,87.57049330475357,mgb_normalisation,87.57049330475357,90.34149293193902,2,2.0,True,1.1874513626098633
,2024-07-26 15:48:07,sub_119,3,distance,cathedral,spatial_unmasking,2,53,0,0,_two_,talker-p248_sex-f_text-_two_.wav,p248,f,5,13,4.0,7.0,RX81,6,0.0,0.0,7.0,80.34149293193903,babble-reversed_n13_p318-five-p256-nine-p307-eight-p248-two-p245-four-p284-three.wav,2,RX81,3,0.0,0.0,4.0,87.57049330475357,mgb_normalisation,87.57049330475357,90.34149293193902,2,2.0,True,0.8124480247497559
,2024-07-26 15:48:10,sub_119,3,distance,cathedral,spatial_unmasking,2,54,0,0,_three_,talker-p248_sex-f_text-_three_.wav,p248,f,5,14,4.0,7.0,RX81,6,0.0,0.0,7.0,79.341492931939,babble-reversed_n13_p229-eight-p256-nine-p318-four-p245-three-p268-five-p284-two.wav,2,RX81,3,0.0,0.0,4.0,87.57049330475355,mgb_normalisation,87.57049330475357,90.34149293193902,3,3.0,True,0.9999377727508544
,2024-07-26 15:48:14,sub_119,3,distance,cathedral,spatial_unmasking,2,55,0,0,_two_,talker-p248_sex-f_text-_two_.wav,p248,f,5,15,4.0,7.0,RX81,6,0.0,0.0,7.0,79.34149293193902,babble-reversed_n13_p256-nine-p307-four-p229-one-p284-three-p248-two-p245-five.wav,2,RX81,3,0.0,0.0,4.0,87.57049330475357,mgb_normalisation,87.57049330475357,90.34149293193902,2,2.0,True,1.687391996383667
,2024-07-26 15:48:20,sub_119,3,distance,cathedral,spatial_unmasking,2,56,0,0,_one_,talker-p248_sex-f_text-_one_.wav,p248,f,5,16,4.0,7.0,RX81,6,0.0,0.0,7.0,78.34149293193902,babble-reversed_n13_p318-nine-p307-eight-p229-two-p284-one-p248-three-p245-five.wav,2,RX81,3,0.0,0.0,4.0,87.57049330475357,mgb_normalisation,87.57049330475357,90.34149293193902,1,4.0,False,3.8746871948242174
,2024-07-26 15:48:24,sub_119,3,distance,cathedral,spatial_unmasking,2,57,0,0,_nine_,talker-p248_sex-f_text-_nine_.wav,p248,f,5,17,4.0,7.0,RX81,6,0.0,0.0,7.0,79.341492931939,babble-reversed_n13_p307-nine-p318-two-p256-one-p245-three-p268-four-p248-eight.wav,2,RX81,3,0.0,0.0,4.0,87.57049330475355,mgb_normalisation,87.57049330475357,90.34149293193902,9,9.0,True,1.1874232292175293
,2024-07-26 15:48:29,sub_119,3,distance,cathedral,spatial_unmasking,2,58,0,0,_three_,talker-p248_sex-f_text-_three_.wav,p248,f,5,18,4.0,7.0,RX81,6,0.0,0.0,7.0,79.341492931939,babble-reversed_n13_p318-five-p229-three-p256-four-p268-eight-p248-one-p245-nine.wav,2,RX81,3,0.0,0.0,4.0,87.57049330475357,mgb_normalisation,87.57049330475357,90.34149293193902,3,3.0,True,2.3123528957366943
,2024-07-26 15:48:34,sub_119,3,distance,cathedral,spatial_unmasking,2,59,0,0,_two_,talker-p248_sex-f_text-_two_.wav,p248,f,5,19,4.0,7.0,RX81,6,0.0,0.0,7.0,78.34149293193902,babble-reversed_n13_p229-eight-p256-nine-p318-four-p245-three-p268-five-p284-two.wav,2,RX81,3,0.0,0.0,4.0,87.57049330475355,mgb_normalisation,87.57049330475357,90.34149293193902,2,8.0,False,3.5501930713653564
,2024-07-26 15:48:38,sub_119,3,distance,cathedral,spatial_unmasking,2,60,0,0,_one_,talker-p248_sex-f_text-_one_.wav,p248,f,5,20,4.0,7.0,RX81,6,0.0,0.0,7.0,79.34149293193902,babble-reversed_n13_p229-five-p318-three-p307-two-p245-four-p284-nine-p248-eight.wav,2,RX81,3,0.0,0.0,4.0,87.57049330475357,mgb_normalisation,87.57049330475357,90.34149293193902,1,1.0,True,1.1249277591705322
,2024-07-26 15:48:42,sub_119,3,distance,cathedral,spatial_unmasking,2,61,0,0,_six_,talker-p248_sex-f_text-_six_.wav,p248,f,5,21,4.0,7.0,RX81,6,0.0,0.0,7.0,79.34149293193902,babble-reversed_n13_p229-three-p256-nine-p318-five-p248-one-p245-eight-p284-two.wav,2,RX81,3,0.0,0.0,4.0,87.57049330475357,mgb_normalisation,87.57049330475357,90.34149293193902,6,6.0,True,1.3124158382415771
,2024-07-26 15:48:46,sub_119,3,distance,cathedral,spatial_unmasking,2,62,0,0,_four_,talker-p248_sex-f_text-_four_.wav,p248,f,5,22,4.0,7.0,RX81,6,0.0,0.0,7.0,78.34149293193902,babble-reversed_n13_p229-three-p256-nine-p318-five-p248-one-p245-eight-p284-two.wav,2,RX81,3,0.0,0.0,4.0,87.57049330475357,mgb_normalisation,87.57049330475357,90.34149293193902,4,9.0,False,1.5624005794525146
,2024-07-26 15:48:50,sub_119,3,distance,cathedral,spatial_unmasking,2,63,0,0,_one_,talker-p248_sex-f_text-_one_.wav,p248,f,5,23,4.0,7.0,RX81,6,0.0,0.0,7.0,79.34149293193902,babble-reversed_n13_p229-five-p318-two-p307-eight-p268-three-p248-four-p245-one.wav,2,RX81,3,0.0,0.0,4.0,87.57049330475357,mgb_normalisation,87.57049330475357,90.34149293193902,1,9.0,False,1.937376976013184
,2024-07-26 15:48:55,sub_119,3,distance,cathedral,spatial_unmasking,2,64,0,0,_four_,talker-p248_sex-f_text-_four_.wav,p248,f,5,24,4.0,7.0,RX81,6,0.0,0.0,7.0,80.341492931939,babble-reversed_n13_p307-five-p229-two-p318-four-p248-three-p245-nine-p268-eight.wav,2,RX81,3,0.0,0.0,4.0,87.57049330475355,mgb_normalisation,87.57049330475357,90.34149293193902,4,2.0,False,2.812320709228516
,2024-07-26 15:48:59,sub_119,3,distance,cathedral,spatial_unmasking,2,65,0,0,_one_,talker-p248_sex-f_text-_one_.wav,p248,f,5,25,4.0,7.0,RX81,6,0.0,0.0,7.0,81.34149293193902,babble-reversed_n13_p229-two-p318-eight-p256-three-p268-one-p248-nine-p284-five.wav,2,RX81,3,0.0,0.0,4.0,87.57049330475355,mgb_normalisation,87.57049330475357,90.34149293193902,1,4.0,False,1.8749439716339111
,2024-07-26 15:49:04,sub_119,3,distance,cathedral,spatial_unmasking,2,66,0,0,_eight_,talker-p248_sex-f_text-_eight_.wav,p248,f,5,26,4.0,7.0,RX81,6,0.0,0.0,7.0,82.34149293193902,babble-reversed_n13_p307-five-p229-two-p318-four-p248-three-p245-nine-p268-eight.wav,2,RX81,3,0.0,0.0,4.0,87.57049330475355,mgb_normalisation,87.57049330475357,90.34149293193902,8,4.0,False,2.062366247177124
,2024-07-26 15:49:07,sub_119,3,distance,cathedral,spatial_unmasking,2,67,0,0,_six_,talker-p248_sex-f_text-_six_.wav,p248,f,5,27,4.0,7.0,RX81,6,0.0,0.0,7.0,83.34149293193902,babble-reversed_n13_p256-four-p229-two-p318-five-p268-one-p248-eight-p245-three.wav,2,RX81,3,0.0,0.0,4.0,87.57049330475355,mgb_normalisation,87.57049330475357,90.34149293193902,6,6.0,True,0.9999799728393556
,2024-07-26 15:49:14,sub_119,3,distance,cathedral,spatial_unmasking,2,68,0,0,_four_,talker-p248_sex-f_text-_four_.wav,p248,f,5,28,4.0,7.0,RX81,6,0.0,0.0,7.0,83.34149293193902,babble-reversed_n13_p256-four-p229-eight-p307-five-p248-three-p245-one-p284-two.wav,2,RX81,3,0.0,0.0,4.0,87.57049330475355,mgb_normalisation,87.57049330475357,90.34149293193902,4,4.0,True,3.9997446537017822
,2024-07-26 15:49:17,sub_119,3,distance,cathedral,spatial_unmasking,2,69,0,0,_five_,talker-p248_sex-f_text-_five_.wav,p248,f,5,29,4.0,7.0,RX81,6,0.0,0.0,7.0,82.341492931939,babble-reversed_n13_p256-five-p307-nine-p318-three-p284-eight-p268-one-p248-two.wav,2,RX81,3,0.0,0.0,4.0,87.57049330475357,mgb_normalisation,87.57049330475357,90.34149293193902,5,5.0,True,0.9999361038208008
,2024-07-26 15:49:21,sub_119,3,distance,cathedral,spatial_unmasking,2,70,0,0,_three_,talker-p248_sex-f_text-_three_.wav,p248,f,5,30,4.0,7.0,RX81,6,0.0,0.0,7.0,82.34149293193902,babble-reversed_n13_p307-two-p229-one-p256-five-p248-nine-p284-three-p268-eight.wav,2,RX81,3,0.0,0.0,4.0,87.57049330475357,mgb_normalisation,87.57049330475357,90.34149293193902,3,2.0,False,1.312448024749756
,2024-07-26 15:49:24,sub_119,3,distance,cathedral,spatial_unmasking,2,71,0,0,_nine_,talker-p248_sex-f_text-_nine_.wav,p248,f,5,31,4.0,7.0,RX81,6,0.0,0.0,7.0,83.34149293193902,babble-reversed_n13_p229-one-p318-eight-p256-three-p268-two-p245-five-p248-nine.wav,2,RX81,3,0.0,0.0,4.0,87.57049330475355,mgb_normalisation,87.57049330475357,90.34149293193902,9,3.0,False,0.9374408721923828
,2024-07-26 15:49:28,sub_119,3,distance,cathedral,spatial_unmasking,2,72,0,0,_four_,talker-p248_sex-f_text-_four_.wav,p248,f,5,32,4.0,7.0,RX81,6,0.0,0.0,7.0,84.341492931939,babble-reversed_n13_p318-three-p229-one-p256-eight-p245-five-p248-four-p284-nine.wav,2,RX81,3,0.0,0.0,4.0,87.57049330475357,mgb_normalisation,87.57049330475357,90.34149293193902,4,4.0,True,1.124955415725708
,2024-07-26 15:49:31,sub_119,3,distance,cathedral,spatial_unmasking,2,73,0,0,_two_,talker-p248_sex-f_text-_two_.wav,p248,f,5,33,4.0,7.0,RX81,6,0.0,0.0,7.0,84.34149293193903,babble-reversed_n13_p318-three-p229-one-p256-eight-p245-five-p248-four-p284-nine.wav,2,RX81,3,0.0,0.0,4.0,87.57049330475357,mgb_normalisation,87.57049330475357,90.34149293193902,2,2.0,True,1.4999423027038574
,2024-07-26 15:50:30,sub_119,3,distance,cathedral,spatial_unmasking,3,74,0,0,_three_,talker-p248_sex-f_text-_three_.wav,p248,f,5,1,2.0,7.0,RX81,6,0.0,0.0,7.0,92.34149293193902,babble-reversed_n13_p318-one-p307-two-p256-eight-p284-three-p248-five-p245-four.wav,0,RX81,1,0.0,0.0,2.0,84.40078082039427,mgb_normalisation,84.40078082039426,90.34149293193902,3,3.0,True,1.624913454055786
,2024-07-26 15:50:34,sub_119,3,distance,cathedral,spatial_unmasking,3,75,0,0,_six_,talker-p248_sex-f_text-_six_.wav,p248,f,5,2,2.0,7.0,RX81,6,0.0,0.0,7.0,88.34149293193902,babble-reversed_n13_p229-five-p318-three-p307-two-p245-four-p284-nine-p248-eight.wav,0,RX81,1,0.0,0.0,2.0,84.40078082039426,mgb_normalisation,84.40078082039426,90.34149293193902,6,6.0,True,0.8749439716339111
,2024-07-26 15:50:37,sub_119,3,distance,cathedral,spatial_unmasking,3,76,0,0,_nine_,talker-p248_sex-f_text-_nine_.wav,p248,f,5,3,2.0,7.0,RX81,6,0.0,0.0,7.0,84.341492931939,babble-reversed_n13_p307-nine-p318-two-p256-one-p245-three-p268-four-p248-eight.wav,0,RX81,1,0.0,0.0,2.0,84.40078082039426,mgb_normalisation,84.40078082039426,90.34149293193902,9,9.0,True,1.1874234676361084
,2024-07-26 15:50:42,sub_119,3,distance,cathedral,spatial_unmasking,3,77,0,0,_eight_,talker-p248_sex-f_text-_eight_.wav,p248,f,5,4,2.0,7.0,RX81,6,0.0,0.0,7.0,80.34149293193903,babble-reversed_n13_p256-eight-p229-three-p307-nine-p245-five-p248-four-p268-two.wav,0,RX81,1,0.0,0.0,2.0,84.40078082039426,mgb_normalisation,84.40078082039426,90.34149293193902,8,4.0,False,2.0623714923858643
,2024-07-26 15:50:46,sub_119,3,distance,cathedral,spatial_unmasking,3,78,0,0,_three_,talker-p248_sex-f_text-_three_.wav,p248,f,5,5,2.0,7.0,RX81,6,0.0,0.0,7.0,82.34149293193902,babble-reversed_n13_p307-nine-p229-one-p256-eight-p248-four-p284-two-p268-three.wav,0,RX81,1,0.0,0.0,2.0,84.40078082039426,mgb_normalisation,84.40078082039426,90.34149293193902,3,3.0,True,1.8123559951782229
,2024-07-26 15:50:49,sub_119,3,distance,cathedral,spatial_unmasking,3,79,0,0,_two_,talker-p248_sex-f_text-_two_.wav,p248,f,5,6,2.0,7.0,RX81,6,0.0,0.0,7.0,82.34149293193902,babble-reversed_n13_p229-one-p318-eight-p256-three-p268-two-p245-five-p248-nine.wav,0,RX81,1,0.0,0.0,2.0,84.40078082039426,mgb_normalisation,84.40078082039426,90.34149293193902,2,2.0,True,1.062431573867798
,2024-07-26 15:50:54,sub_119,3,distance,cathedral,spatial_unmasking,3,80,0,0,_nine_,talker-p248_sex-f_text-_nine_.wav,p248,f,5,7,2.0,7.0,RX81,6,0.0,0.0,7.0,80.341492931939,babble-reversed_n13_p229-five-p256-one-p318-three-p248-nine-p268-four-p284-eight.wav,0,RX81,1,0.0,0.0,2.0,84.40078082039426,mgb_normalisation,84.40078082039426,90.34149293193902,9,9.0,True,2.0623703002929688
,2024-07-26 15:50:58,sub_119,3,distance,cathedral,spatial_unmasking,3,81,0,0,_eight_,talker-p248_sex-f_text-_eight_.wav,p248,f,5,8,2.0,7.0,RX81,6,0.0,0.0,7.0,80.34149293193903,babble-reversed_n13_p307-four-p318-three-p256-eight-p284-two-p245-nine-p248-five.wav,0,RX81,1,0.0,0.0,2.0,84.40078082039426,mgb_normalisation,84.40078082039426,90.34149293193902,8,8.0,True,1.874880075454712
,2024-07-26 15:51:02,sub_119,3,distance,cathedral,spatial_unmasking,3,82,0,0,_six_,talker-p248_sex-f_text-_six_.wav,p248,f,5,9,2.0,7.0,RX81,6,0.0,0.0,7.0,78.34149293193902,babble-reversed_n13_p307-two-p229-one-p256-five-p248-nine-p284-three-p268-eight.wav,0,RX81,1,0.0,0.0,2.0,84.40078082039427,mgb_normalisation,84.40078082039426,90.34149293193902,6,6.0,True,1.437408208847046
,2024-07-26 15:51:05,sub_119,3,distance,cathedral,spatial_unmasking,3,83,0,0,_nine_,talker-p248_sex-f_text-_nine_.wav,p248,f,5,10,2.0,7.0,RX81,6,0.0,0.0,7.0,78.34149293193902,babble-reversed_n13_p256-five-p307-nine-p318-three-p284-eight-p268-one-p248-two.wav,0,RX81,1,0.0,0.0,2.0,84.40078082039426,mgb_normalisation,84.40078082039426,90.34149293193902,9,9.0,True,0.9373807907104492
,2024-07-26 15:51:10,sub_119,3,distance,cathedral,spatial_unmasking,3,84,0,0,_three_,talker-p248_sex-f_text-_three_.wav,p248,f,5,11,2.0,7.0,RX81,6,0.0,0.0,7.0,76.34149293193902,babble-reversed_n13_p229-one-p318-eight-p256-three-p268-two-p245-five-p248-nine.wav,0,RX81,1,0.0,0.0,2.0,84.40078082039426,mgb_normalisation,84.40078082039426,90.34149293193902,3,4.0,False,2.312351942062378
,2024-07-26 15:51:14,sub_119,3,distance,cathedral,spatial_unmasking,3,85,0,0,_one_,talker-p248_sex-f_text-_one_.wav,p248,f,5,12,2.0,7.0,RX81,6,0.0,0.0,7.0,77.34149293193903,babble-reversed_n13_p256-eight-p229-three-p307-nine-p245-five-p248-four-p268-two.wav,0,RX81,1,0.0,0.0,2.0,84.40078082039426,mgb_normalisation,84.40078082039426,90.34149293193902,1,4.0,False,1.3749120235443115
,2024-07-26 15:51:18,sub_119,3,distance,cathedral,spatial_unmasking,3,86,0,0,_three_,talker-p248_sex-f_text-_three_.wav,p248,f,5,13,2.0,7.0,RX81,6,0.0,0.0,7.0,78.34149293193902,babble-reversed_n13_p318-nine-p256-five-p307-eight-p268-three-p248-one-p245-four.wav,0,RX81,1,0.0,0.0,2.0,84.40078082039426,mgb_normalisation,84.40078082039426,90.34149293193902,3,4.0,False,1.7499067783355713
,2024-07-26 15:51:21,sub_119,3,distance,cathedral,spatial_unmasking,3,87,0,0,_three_,talker-p248_sex-f_text-_three_.wav,p248,f,5,14,2.0,7.0,RX81,6,0.0,0.0,7.0,79.341492931939,babble-reversed_n13_p229-nine-p318-one-p307-two-p248-eight-p245-five-p284-four.wav,0,RX81,1,0.0,0.0,2.0,84.40078082039426,mgb_normalisation,84.40078082039426,90.34149293193902,3,3.0,True,1.3123502731323242
,2024-07-26 15:51:25,sub_119,3,distance,cathedral,spatial_unmasking,3,88,0,0,_five_,talker-p248_sex-f_text-_five_.wav,p248,f,5,15,2.0,7.0,RX81,6,0.0,0.0,7.0,79.341492931939,babble-reversed_n13_p256-three-p318-one-p307-two-p284-nine-p268-four-p245-eight.wav,0,RX81,1,0.0,0.0,2.0,84.40078082039426,mgb_normalisation,84.40078082039426,90.34149293193902,5,5.0,True,1.1249284744262695
,2024-07-26 15:51:29,sub_119,3,distance,cathedral,spatial_unmasking,3,89,0,0,_three_,talker-p248_sex-f_text-_three_.wav,p248,f,5,16,2.0,7.0,RX81,6,0.0,0.0,7.0,78.34149293193902,babble-reversed_n13_p229-one-p318-nine-p256-four-p284-eight-p268-five-p245-two.wav,0,RX81,1,0.0,0.0,2.0,84.40078082039426,mgb_normalisation,84.40078082039426,90.34149293193902,3,3.0,True,1.3749127388000488
,2024-07-26 15:51:32,sub_119,3,distance,cathedral,spatial_unmasking,3,90,0,0,_six_,talker-p248_sex-f_text-_six_.wav,p248,f,5,17,2.0,7.0,RX81,6,0.0,0.0,7.0,78.34149293193902,babble-reversed_n13_p256-five-p229-one-p318-three-p248-nine-p284-eight-p268-two.wav,0,RX81,1,0.0,0.0,2.0,84.40078082039427,mgb_normalisation,84.40078082039426,90.34149293193902,6,6.0,True,1.187424659729004
,2024-07-26 15:51:36,sub_119,3,distance,cathedral,spatial_unmasking,3,91,0,0,_eight_,talker-p248_sex-f_text-_eight_.wav,p248,f,5,18,2.0,7.0,RX81,6,0.0,0.0,7.0,77.34149293193903,babble-reversed_n13_p256-three-p318-one-p307-two-p284-nine-p268-four-p245-eight.wav,0,RX81,1,0.0,0.0,2.0,84.40078082039426,mgb_normalisation,84.40078082039426,90.34149293193902,8,9.0,False,1.062432050704956
,2024-07-26 15:51:39,sub_119,3,distance,cathedral,spatial_unmasking,3,92,0,0,_four_,talker-p248_sex-f_text-_four_.wav,p248,f,5,19,2.0,7.0,RX81,6,0.0,0.0,7.0,78.34149293193902,babble-reversed_n13_p307-nine-p229-one-p256-eight-p248-four-p284-two-p268-three.wav,0,RX81,1,0.0,0.0,2.0,84.40078082039426,mgb_normalisation,84.40078082039426,90.34149293193902,4,4.0,True,1.249919891357422
,2024-07-26 15:51:43,sub_119,3,distance,cathedral,spatial_unmasking,3,93,0,0,_six_,talker-p248_sex-f_text-_six_.wav,p248,f,5,20,2.0,7.0,RX81,6,0.0,0.0,7.0,78.34149293193902,babble-reversed_n13_p229-two-p318-eight-p256-three-p268-one-p248-nine-p284-five.wav,0,RX81,1,0.0,0.0,2.0,84.40078082039426,mgb_normalisation,84.40078082039426,90.34149293193902,6,6.0,True,1.4998438358306885
,2024-07-26 15:51:49,sub_119,3,distance,cathedral,spatial_unmasking,3,94,0,0,_two_,talker-p248_sex-f_text-_two_.wav,p248,f,5,21,2.0,7.0,RX81,6,0.0,0.0,7.0,77.34149293193903,babble-reversed_n13_p229-two-p307-five-p318-four-p284-one-p248-nine-p268-eight.wav,0,RX81,1,0.0,0.0,2.0,84.40078082039426,mgb_normalisation,84.40078082039426,90.34149293193902,2,4.0,False,3.062304973602295
,2024-07-26 15:51:54,sub_119,3,distance,cathedral,spatial_unmasking,3,95,0,0,_three_,talker-p248_sex-f_text-_three_.wav,p248,f,5,22,2.0,7.0,RX81,6,0.0,0.0,7.0,78.34149293193902,babble-reversed_n13_p229-three-p307-one-p318-two-p245-eight-p268-five-p284-four.wav,0,RX81,1,0.0,0.0,2.0,84.40078082039426,mgb_normalisation,84.40078082039426,90.34149293193902,3,6.0,False,2.499840497970581
,2024-07-26 15:51:58,sub_119,3,distance,cathedral,spatial_unmasking,3,96,0,0,_one_,talker-p248_sex-f_text-_one_.wav,p248,f,5,23,2.0,7.0,RX81,6,0.0,0.0,7.0,79.34149293193902,babble-reversed_n13_p256-three-p318-two-p229-nine-p248-four-p284-one-p268-eight.wav,0,RX81,1,0.0,0.0,2.0,84.40078082039426,mgb_normalisation,84.40078082039426,90.34149293193902,1,9.0,False,2.187361478805542
,2024-07-26 15:52:02,sub_119,3,distance,cathedral,spatial_unmasking,3,97,0,0,_one_,talker-p248_sex-f_text-_one_.wav,p248,f,5,24,2.0,7.0,RX81,6,0.0,0.0,7.0,80.34149293193903,babble-reversed_n13_p307-four-p318-three-p256-eight-p284-two-p245-nine-p248-five.wav,0,RX81,1,0.0,0.0,2.0,84.40078082039426,mgb_normalisation,84.40078082039426,90.34149293193902,1,4.0,False,1.6248960494995115
,2024-07-26 15:52:06,sub_119,3,distance,cathedral,spatial_unmasking,3,98,0,0,_nine_,talker-p248_sex-f_text-_nine_.wav,p248,f,5,25,2.0,7.0,RX81,6,0.0,0.0,7.0,81.34149293193902,babble-reversed_n13_p307-one-p318-five-p229-four-p268-eight-p284-two-p245-three.wav,0,RX81,1,0.0,0.0,2.0,84.40078082039426,mgb_normalisation,84.40078082039426,90.34149293193902,9,9.0,True,1.2499210834503174
,2024-07-26 15:52:10,sub_119,3,distance,cathedral,spatial_unmasking,3,99,0,0,_one_,talker-p248_sex-f_text-_one_.wav,p248,f,5,26,2.0,7.0,RX81,6,0.0,0.0,7.0,81.34149293193902,babble-reversed_n13_p318-nine-p256-five-p307-eight-p268-three-p248-one-p245-four.wav,0,RX81,1,0.0,0.0,2.0,84.40078082039426,mgb_normalisation,84.40078082039426,90.34149293193902,1,9.0,False,1.3749594688415527
,2024-07-26 15:52:14,sub_119,3,distance,cathedral,spatial_unmasking,3,100,0,0,_three_,talker-p248_sex-f_text-_three_.wav,p248,f,5,27,2.0,7.0,RX81,6,0.0,0.0,7.0,82.34149293193902,babble-reversed_n13_p307-four-p318-three-p256-eight-p284-two-p245-nine-p248-five.wav,0,RX81,1,0.0,0.0,2.0,84.40078082039426,mgb_normalisation,84.40078082039426,90.34149293193902,3,3.0,True,1.6248948574066162
,2024-07-26 15:52:19,sub_119,3,distance,cathedral,spatial_unmasking,3,101,0,0,_one_,talker-p248_sex-f_text-_one_.wav,p248,f,5,28,2.0,7.0,RX81,6,0.0,0.0,7.0,82.34149293193902,babble-reversed_n13_p318-four-p256-five-p229-three-p284-one-p245-eight-p248-nine.wav,0,RX81,1,0.0,0.0,2.0,84.40078082039427,mgb_normalisation,84.40078082039426,90.34149293193902,1,9.0,False,2.9998083114624023
,2024-07-26 15:52:24,sub_119,3,distance,cathedral,spatial_unmasking,3,102,0,0,_one_,talker-p248_sex-f_text-_one_.wav,p248,f,5,29,2.0,7.0,RX81,6,0.0,0.0,7.0,83.34149293193903,babble-reversed_n13_p256-four-p229-two-p318-five-p268-one-p248-eight-p245-three.wav,0,RX81,1,0.0,0.0,2.0,84.40078082039426,mgb_normalisation,84.40078082039426,90.34149293193902,1,4.0,False,2.812319755554199
,2024-07-26 15:52:29,sub_119,3,distance,cathedral,spatial_unmasking,3,103,0,0,_one_,talker-p248_sex-f_text-_one_.wav,p248,f,5,30,2.0,7.0,RX81,6,0.0,0.0,7.0,84.34149293193903,babble-reversed_n13_p307-two-p229-one-p256-five-p248-nine-p284-three-p268-eight.wav,0,RX81,1,0.0,0.0,2.0,84.40078082039427,mgb_normalisation,84.40078082039426,90.34149293193902,1,8.0,False,2.687340021133423
,2024-07-26 15:52:33,sub_119,3,distance,cathedral,spatial_unmasking,3,104,0,0,_six_,talker-p248_sex-f_text-_six_.wav,p248,f,5,31,2.0,7.0,RX81,6,0.0,0.0,7.0,85.34149293193903,babble-reversed_n13_p256-five-p307-nine-p318-three-p284-eight-p268-one-p248-two.wav,0,RX81,1,0.0,0.0,2.0,84.40078082039426,mgb_normalisation,84.40078082039426,90.34149293193902,6,6.0,True,1.249920129776001
,2024-07-26 15:52:41,sub_119,3,distance,cathedral,spatial_unmasking,3,105,0,0,_nine_,talker-p248_sex-f_text-_nine_.wav,p248,f,5,32,2.0,7.0,RX81,6,0.0,0.0,7.0,85.341492931939,babble-reversed_n13_p318-nine-p307-eight-p229-two-p284-one-p248-three-p245-five.wav,0,RX81,1,0.0,0.0,2.0,84.40078082039426,mgb_normalisation,84.40078082039426,90.34149293193902,9,9.0,True,5.124673128128052
,2024-07-26 15:52:44,sub_119,3,distance,cathedral,spatial_unmasking,3,106,0,0,_nine_,talker-p248_sex-f_text-_nine_.wav,p248,f,5,33,2.0,7.0,RX81,6,0.0,0.0,7.0,84.341492931939,babble-reversed_n13_p318-nine-p256-five-p307-eight-p268-three-p248-one-p245-four.wav,0,RX81,1,0.0,0.0,2.0,84.40078082039426,mgb_normalisation,84.40078082039426,90.34149293193902,9,9.0,True,0.812448263168335
,2024-07-26 15:52:47,sub_119,3,distance,cathedral,spatial_unmasking,3,107,0,0,_five_,talker-p248_sex-f_text-_five_.wav,p248,f,5,34,2.0,7.0,RX81,6,0.0,0.0,7.0,84.341492931939,babble-reversed_n13_p229-nine-p318-one-p307-two-p248-eight-p245-five-p284-four.wav,0,RX81,1,0.0,0.0,2.0,84.40078082039426,mgb_normalisation,84.40078082039426,90.34149293193902,5,5.0,True,1.1249275207519531
,2024-07-26 15:52:51,sub_119,3,distance,cathedral,spatial_unmasking,3,108,0,0,_six_,talker-p248_sex-f_text-_six_.wav,p248,f,5,35,2.0,7.0,RX81,6,0.0,0.0,7.0,83.34149293193902,babble-reversed_n13_p318-one-p307-two-p256-eight-p284-three-p248-five-p245-four.wav,0,RX81,1,0.0,0.0,2.0,84.40078082039427,mgb_normalisation,84.40078082039426,90.34149293193902,6,6.0,True,1.5623972415924072
,2024-07-26 15:52:55,sub_119,3,distance,cathedral,spatial_unmasking,3,109,0,0,_two_,talker-p248_sex-f_text-_two_.wav,p248,f,5,36,2.0,7.0,RX81,6,0.0,0.0,7.0,83.34149293193903,babble-reversed_n13_p318-nine-p256-five-p307-eight-p268-three-p248-one-p245-four.wav,0,RX81,1,0.0,0.0,2.0,84.40078082039426,mgb_normalisation,84.40078082039426,90.34149293193902,2,2.0,True,1.4374079704284668
,2024-07-26 15:53:00,sub_119,3,distance,cathedral,spatial_unmasking,3,110,0,0,_four_,talker-p248_sex-f_text-_four_.wav,p248,f,5,37,2.0,7.0,RX81,6,0.0,0.0,7.0,82.34149293193902,babble-reversed_n13_p318-nine-p307-eight-p229-two-p284-one-p248-three-p245-five.wav,0,RX81,1,0.0,0.0,2.0,84.40078082039426,mgb_normalisation,84.40078082039426,90.34149293193902,4,4.0,True,2.43733024597168
,2024-07-26 15:53:04,sub_119,3,distance,cathedral,spatial_unmasking,3,111,0,0,_two_,talker-p248_sex-f_text-_two_.wav,p248,f,5,38,2.0,7.0,RX81,6,0.0,0.0,7.0,82.34149293193902,babble-reversed_n13_p318-five-p229-three-p256-four-p268-eight-p248-one-p245-nine.wav,0,RX81,1,0.0,0.0,2.0,84.40078082039426,mgb_normalisation,84.40078082039426,90.34149293193902,2,2.0,True,1.4999043941497805
,2024-07-26 15:53:08,sub_119,3,distance,cathedral,spatial_unmasking,3,112,0,0,_four_,talker-p248_sex-f_text-_four_.wav,p248,f,5,39,2.0,7.0,RX81,6,0.0,0.0,7.0,81.341492931939,babble-reversed_n13_p256-eight-p318-two-p307-five-p245-four-p268-nine-p284-one.wav,0,RX81,1,0.0,0.0,2.0,84.40078082039426,mgb_normalisation,84.40078082039426,90.34149293193902,4,4.0,True,1.937374830245972
,2024-07-26 15:53:12,sub_119,3,distance,cathedral,spatial_unmasking,3,113,0,0,_eight_,talker-p248_sex-f_text-_eight_.wav,p248,f,5,40,2.0,7.0,RX81,6,0.0,0.0,7.0,81.34149293193902,babble-reversed_n13_p318-nine-p256-five-p307-eight-p268-three-p248-one-p245-four.wav,0,RX81,1,0.0,0.0,2.0,84.40078082039426,mgb_normalisation,84.40078082039426,90.34149293193902,8,4.0,False,1.5623440742492676
,2024-07-26 15:53:16,sub_119,3,distance,cathedral,spatial_unmasking,3,114,0,0,_four_,talker-p248_sex-f_text-_four_.wav,p248,f,5,41,2.0,7.0,RX81,6,0.0,0.0,7.0,82.34149293193902,babble-reversed_n13_p229-three-p256-nine-p318-five-p248-one-p245-eight-p284-two.wav,0,RX81,1,0.0,0.0,2.0,84.40078082039426,mgb_normalisation,84.40078082039426,90.34149293193902,4,4.0,True,1.499903917312622
,2024-07-26 15:53:20,sub_119,3,distance,cathedral,spatial_unmasking,3,115,0,0,_three_,talker-p248_sex-f_text-_three_.wav,p248,f,5,42,2.0,7.0,RX81,6,0.0,0.0,7.0,82.34149293193902,babble-reversed_n13_p229-three-p307-one-p318-two-p245-eight-p268-five-p284-four.wav,0,RX81,1,0.0,0.0,2.0,84.40078082039426,mgb_normalisation,84.40078082039426,90.34149293193902,3,3.0,True,1.2499206066131592
,2024-07-26 15:53:25,sub_119,3,distance,cathedral,spatial_unmasking,3,116,0,0,_one_,talker-p248_sex-f_text-_one_.wav,p248,f,5,43,2.0,7.0,RX81,6,0.0,0.0,7.0,81.34149293193902,babble-reversed_n13_p256-four-p229-eight-p307-five-p248-three-p245-one-p284-two.wav,0,RX81,1,0.0,0.0,2.0,84.40078082039426,mgb_normalisation,84.40078082039426,90.34149293193902,1,4.0,False,3.3122897148132324
,2024-07-26 15:53:29,sub_119,3,distance,cathedral,spatial_unmasking,3,117,0,0,_nine_,talker-p248_sex-f_text-_nine_.wav,p248,f,5,44,2.0,7.0,RX81,6,0.0,0.0,7.0,82.34149293193902,babble-reversed_n13_p229-nine-p307-five-p256-two-p248-three-p245-one-p268-eight.wav,0,RX81,1,0.0,0.0,2.0,84.40078082039426,mgb_normalisation,84.40078082039426,90.34149293193902,9,9.0,True,1.812371015548706
,2024-07-26 15:53:34,sub_119,3,distance,cathedral,spatial_unmasking,3,118,0,0,_nine_,talker-p248_sex-f_text-_nine_.wav,p248,f,5,45,2.0,7.0,RX81,6,0.0,0.0,7.0,82.34149293193902,babble-reversed_n13_p229-two-p318-eight-p256-three-p268-one-p248-nine-p284-five.wav,0,RX81,1,0.0,0.0,2.0,84.40078082039426,mgb_normalisation,84.40078082039426,90.34149293193902,9,9.0,True,2.1873600482940674
,2024-07-26 15:54:59,sub_119,3,distance,cathedral,spatial_unmasking,4,119,0,0,_nine_,talker-p248_sex-f_text-_nine_.wav,p248,f,5,1,7.0,7.0,RX81,6,0.0,0.0,7.0,92.34149293193902,babble-reversed_n13_p318-three-p229-one-p256-eight-p245-five-p248-four-p284-nine.wav,5,RX81,6,0.0,0.0,7.0,90.34149293193904,mgb_normalisation,90.34149293193902,90.34149293193902,9,9.0,True,2.0624256134033203
,2024-07-26 15:55:02,sub_119,3,distance,cathedral,spatial_unmasking,4,120,0,0,_nine_,talker-p248_sex-f_text-_nine_.wav,p248,f,5,2,7.0,7.0,RX81,6,0.0,0.0,7.0,88.34149293193902,babble-reversed_n13_p229-five-p318-two-p307-eight-p268-three-p248-four-p245-one.wav,5,RX81,6,0.0,0.0,7.0,90.34149293193904,mgb_normalisation,90.34149293193902,90.34149293193902,9,5.0,False,1.1874244213104248
,2024-07-26 15:55:05,sub_119,3,distance,cathedral,spatial_unmasking,4,121,0,0,_two_,talker-p248_sex-f_text-_two_.wav,p248,f,5,3,7.0,7.0,RX81,6,0.0,0.0,7.0,90.34149293193904,babble-reversed_n13_p229-five-p256-three-p318-nine-p248-two-p284-four-p268-one.wav,5,RX81,6,0.0,0.0,7.0,90.34149293193904,mgb_normalisation,90.34149293193902,90.34149293193902,2,2.0,True,0.9999361038208008
,2024-07-26 15:55:09,sub_119,3,distance,cathedral,spatial_unmasking,4,122,0,0,_two_,talker-p248_sex-f_text-_two_.wav,p248,f,5,4,7.0,7.0,RX81,6,0.0,0.0,7.0,90.34149293193904,babble-reversed_n13_p307-two-p256-four-p318-three-p284-eight-p248-five-p245-nine.wav,5,RX81,6,0.0,0.0,7.0,90.34149293193904,mgb_normalisation,90.34149293193902,90.34149293193902,2,2.0,True,1.0624327659606934
,2024-07-26 15:55:13,sub_119,3,distance,cathedral,spatial_unmasking,4,123,0,0,_four_,talker-p248_sex-f_text-_four_.wav,p248,f,5,5,7.0,7.0,RX81,6,0.0,0.0,7.0,88.34149293193902,babble-reversed_n13_p229-one-p318-eight-p256-three-p268-nine-p248-five-p284-four.wav,5,RX81,6,0.0,0.0,7.0,90.341492931939,mgb_normalisation,90.34149293193902,90.34149293193902,4,4.0,True,2.3123528957366943
,2024-07-26 15:55:16,sub_119,3,distance,cathedral,spatial_unmasking,4,124,0,0,_nine_,talker-p248_sex-f_text-_nine_.wav,p248,f,5,6,7.0,7.0,RX81,6,0.0,0.0,7.0,88.34149293193902,babble-reversed_n13_p229-nine-p256-four-p318-three-p268-eight-p248-two-p284-five.wav,5,RX81,6,0.0,0.0,7.0,90.34149293193904,mgb_normalisation,90.34149293193902,90.34149293193902,9,9.0,True,0.8749446868896484
,2024-07-26 15:55:20,sub_119,3,distance,cathedral,spatial_unmasking,4,125,0,0,_three_,talker-p248_sex-f_text-_three_.wav,p248,f,5,7,7.0,7.0,RX81,6,0.0,0.0,7.0,86.34149293193902,babble-reversed_n13_p229-three-p307-one-p318-two-p245-eight-p268-five-p284-four.wav,5,RX81,6,0.0,0.0,7.0,90.34149293193904,mgb_normalisation,90.34149293193902,90.34149293193902,3,3.0,True,1.124887228012085
,2024-07-26 15:55:23,sub_119,3,distance,cathedral,spatial_unmasking,4,126,0,0,_nine_,talker-p248_sex-f_text-_nine_.wav,p248,f,5,8,7.0,7.0,RX81,6,0.0,0.0,7.0,86.34149293193902,babble-reversed_n13_p318-nine-p307-eight-p229-two-p284-one-p248-three-p245-five.wav,5,RX81,6,0.0,0.0,7.0,90.34149293193904,mgb_normalisation,90.34149293193902,90.34149293193902,9,9.0,True,1.0624325275421145
,2024-07-26 15:55:27,sub_119,3,distance,cathedral,spatial_unmasking,4,127,0,0,_three_,talker-p248_sex-f_text-_three_.wav,p248,f,5,9,7.0,7.0,RX81,6,0.0,0.0,7.0,84.341492931939,babble-reversed_n13_p307-one-p318-five-p229-four-p268-eight-p284-two-p245-three.wav,5,RX81,6,0.0,0.0,7.0,90.341492931939,mgb_normalisation,90.34149293193902,90.34149293193902,3,3.0,True,1.187424898147583
,2024-07-26 15:55:31,sub_119,3,distance,cathedral,spatial_unmasking,4,128,0,0,_one_,talker-p248_sex-f_text-_one_.wav,p248,f,5,10,7.0,7.0,RX81,6,0.0,0.0,7.0,84.34149293193903,babble-reversed_n13_p229-three-p256-nine-p318-five-p248-one-p245-eight-p284-two.wav,5,RX81,6,0.0,0.0,7.0,90.34149293193904,mgb_normalisation,90.34149293193902,90.34149293193902,1,9.0,False,1.937376976013184
,2024-07-26 15:55:35,sub_119,3,distance,cathedral,spatial_unmasking,4,129,0,0,_eight_,talker-p248_sex-f_text-_eight_.wav,p248,f,5,11,7.0,7.0,RX81,6,0.0,0.0,7.0,85.34149293193903,babble-reversed_n13_p307-four-p318-three-p256-eight-p284-two-p245-nine-p248-five.wav,5,RX81,6,0.0,0.0,7.0,90.341492931939,mgb_normalisation,90.34149293193902,90.34149293193902,8,4.0,False,2.312352418899536
,2024-07-26 15:55:41,sub_119,3,distance,cathedral,spatial_unmasking,4,130,0,0,_four_,talker-p248_sex-f_text-_four_.wav,p248,f,5,12,7.0,7.0,RX81,6,0.0,0.0,7.0,86.341492931939,babble-reversed_n13_p229-two-p307-five-p318-four-p284-one-p248-nine-p268-eight.wav,5,RX81,6,0.0,0.0,7.0,90.34149293193904,mgb_normalisation,90.34149293193902,90.34149293193902,4,9.0,False,3.4372799396514893
,2024-07-26 15:55:45,sub_119,3,distance,cathedral,spatial_unmasking,4,131,0,0,_eight_,talker-p248_sex-f_text-_eight_.wav,p248,f,5,13,7.0,7.0,RX81,6,0.0,0.0,7.0,87.34149293193902,babble-reversed_n13_p318-four-p256-five-p229-three-p284-one-p245-eight-p248-nine.wav,5,RX81,6,0.0,0.0,7.0,90.34149293193904,mgb_normalisation,90.34149293193902,90.34149293193902,8,4.0,False,1.7498886585235596
,2024-07-26 15:55:49,sub_119,3,distance,cathedral,spatial_unmasking,4,132,0,0,_three_,talker-p248_sex-f_text-_three_.wav,p248,f,5,14,7.0,7.0,RX81,6,0.0,0.0,7.0,88.34149293193902,babble-reversed_n13_p307-one-p318-five-p229-four-p268-eight-p284-two-p245-three.wav,5,RX81,6,0.0,0.0,7.0,90.341492931939,mgb_normalisation,90.34149293193902,90.34149293193902,3,3.0,True,1.249920129776001
,2024-07-26 15:55:52,sub_119,3,distance,cathedral,spatial_unmasking,4,133,0,0,_three_,talker-p248_sex-f_text-_three_.wav,p248,f,5,15,7.0,7.0,RX81,6,0.0,0.0,7.0,88.34149293193902,babble-reversed_n13_p256-two-p307-five-p318-nine-p248-eight-p245-four-p284-one.wav,5,RX81,6,0.0,0.0,7.0,90.34149293193904,mgb_normalisation,90.34149293193902,90.34149293193902,3,3.0,True,0.8125066757202148
,2024-07-26 15:55:56,sub_119,3,distance,cathedral,spatial_unmasking,4,134,0,0,_one_,talker-p248_sex-f_text-_one_.wav,p248,f,5,16,7.0,7.0,RX81,6,0.0,0.0,7.0,87.34149293193902,babble-reversed_n13_p229-five-p256-three-p318-nine-p248-two-p284-four-p268-one.wav,5,RX81,6,0.0,0.0,7.0,90.34149293193904,mgb_normalisation,90.34149293193902,90.34149293193902,1,1.0,True,1.4374079704284668
,2024-07-26 15:55:59,sub_119,3,distance,cathedral,spatial_unmasking,4,135,0,0,_three_,talker-p248_sex-f_text-_three_.wav,p248,f,5,17,7.0,7.0,RX81,6,0.0,0.0,7.0,87.34149293193902,babble-reversed_n13_p256-eight-p229-three-p307-nine-p245-five-p248-four-p268-two.wav,5,RX81,6,0.0,0.0,7.0,90.341492931939,mgb_normalisation,90.34149293193902,90.34149293193902,3,3.0,True,1.1874239444732666
,2024-07-26 15:56:03,sub_119,3,distance,cathedral,spatial_unmasking,4,136,0,0,_four_,talker-p248_sex-f_text-_four_.wav,p248,f,5,18,7.0,7.0,RX81,6,0.0,0.0,7.0,86.341492931939,babble-reversed_n13_p229-nine-p318-one-p307-two-p248-eight-p245-five-p284-four.wav,5,RX81,6,0.0,0.0,7.0,90.34149293193904,mgb_normalisation,90.34149293193902,90.34149293193902,4,4.0,True,1.1873953342437744
,2024-07-26 15:56:07,sub_119,3,distance,cathedral,spatial_unmasking,4,137,0,0,_eight_,talker-p248_sex-f_text-_eight_.wav,p248,f,5,19,7.0,7.0,RX81,6,0.0,0.0,7.0,86.34149293193902,babble-reversed_n13_p256-nine-p307-four-p229-one-p284-three-p248-two-p245-five.wav,5,RX81,6,0.0,0.0,7.0,90.34149293193904,mgb_normalisation,90.34149293193902,90.34149293193902,8,2.0,False,1.8123841285705569
,2024-07-26 15:56:11,sub_119,3,distance,cathedral,spatial_unmasking,4,138,0,0,_five_,talker-p248_sex-f_text-_five_.wav,p248,f,5,20,7.0,7.0,RX81,6,0.0,0.0,7.0,87.341492931939,babble-reversed_n13_p307-nine-p229-one-p256-eight-p248-four-p284-two-p268-three.wav,5,RX81,6,0.0,0.0,7.0,90.34149293193904,mgb_normalisation,90.34149293193902,90.34149293193902,5,5.0,True,1.8748807907104488
,2024-07-26 15:56:14,sub_119,3,distance,cathedral,spatial_unmasking,4,139,0,0,_nine_,talker-p248_sex-f_text-_nine_.wav,p248,f,5,21,7.0,7.0,RX81,6,0.0,0.0,7.0,87.34149293193902,babble-reversed_n13_p229-nine-p256-four-p318-three-p268-eight-p248-two-p284-five.wav,5,RX81,6,0.0,0.0,7.0,90.34149293193904,mgb_normalisation,90.34149293193902,90.34149293193902,9,9.0,True,1.062432050704956
,2024-07-26 15:56:18,sub_119,3,distance,cathedral,spatial_unmasking,4,140,0,0,_four_,talker-p248_sex-f_text-_four_.wav,p248,f,5,22,7.0,7.0,RX81,6,0.0,0.0,7.0,86.341492931939,babble-reversed_n13_p229-five-p256-three-p318-nine-p248-two-p284-four-p268-one.wav,5,RX81,6,0.0,0.0,7.0,90.34149293193904,mgb_normalisation,90.34149293193902,90.34149293193902,4,4.0,True,1.437408685684204
,2024-07-26 15:56:21,sub_119,3,distance,cathedral,spatial_unmasking,4,141,0,0,_two_,talker-p248_sex-f_text-_two_.wav,p248,f,5,23,7.0,7.0,RX81,6,0.0,0.0,7.0,86.34149293193902,babble-reversed_n13_p229-nine-p318-one-p307-two-p248-eight-p245-five-p284-four.wav,5,RX81,6,0.0,0.0,7.0,90.34149293193904,mgb_normalisation,90.34149293193902,90.34149293193902,2,2.0,True,0.9999358654022216
,2024-07-26 15:56:25,sub_119,3,distance,cathedral,spatial_unmasking,4,142,0,0,_five_,talker-p248_sex-f_text-_five_.wav,p248,f,5,24,7.0,7.0,RX81,6,0.0,0.0,7.0,85.341492931939,babble-reversed_n13_p229-nine-p307-five-p256-two-p248-three-p245-one-p268-eight.wav,5,RX81,6,0.0,0.0,7.0,90.34149293193904,mgb_normalisation,90.34149293193902,90.34149293193902,5,5.0,True,1.3748483657836914
,2024-07-26 15:56:28,sub_119,3,distance,cathedral,spatial_unmasking,4,143,0,0,_nine_,talker-p248_sex-f_text-_nine_.wav,p248,f,5,25,7.0,7.0,RX81,6,0.0,0.0,7.0,85.341492931939,babble-reversed_n13_p307-two-p256-four-p318-three-p284-eight-p248-five-p245-nine.wav,5,RX81,6,0.0,0.0,7.0,90.34149293193904,mgb_normalisation,90.34149293193902,90.34149293193902,9,5.0,False,1.1874234676361084
,2024-07-26 15:56:32,sub_119,3,distance,cathedral,spatial_unmasking,4,144,0,0,_four_,talker-p248_sex-f_text-_four_.wav,p248,f,5,26,7.0,7.0,RX81,6,0.0,0.0,7.0,86.341492931939,babble-reversed_n13_p229-nine-p318-one-p307-two-p248-eight-p245-five-p284-four.wav,5,RX81,6,0.0,0.0,7.0,90.34149293193904,mgb_normalisation,90.34149293193902,90.34149293193902,4,4.0,True,0.9999361038208008
,2024-07-26 15:56:35,sub_119,3,distance,cathedral,spatial_unmasking,4,145,0,0,_one_,talker-p248_sex-f_text-_one_.wav,p248,f,5,27,7.0,7.0,RX81,6,0.0,0.0,7.0,86.34149293193902,babble-reversed_n13_p318-nine-p307-eight-p229-two-p284-one-p248-three-p245-five.wav,5,RX81,6,0.0,0.0,7.0,90.34149293193904,mgb_normalisation,90.34149293193902,90.34149293193902,1,4.0,False,1.1249282360076904
,2024-07-26 15:56:39,sub_119,3,distance,cathedral,spatial_unmasking,4,146,0,0,_nine_,talker-p248_sex-f_text-_nine_.wav,p248,f,5,28,7.0,7.0,RX81,6,0.0,0.0,7.0,87.34149293193902,babble-reversed_n13_p256-five-p229-one-p318-three-p248-nine-p284-eight-p268-two.wav,5,RX81,6,0.0,0.0,7.0,90.34149293193904,mgb_normalisation,90.34149293193902,90.34149293193902,9,5.0,False,1.6248972415924072
,2024-07-26 15:56:42,sub_119,3,distance,cathedral,spatial_unmasking,4,147,0,0,_five_,talker-p248_sex-f_text-_five_.wav,p248,f,5,29,7.0,7.0,RX81,6,0.0,0.0,7.0,88.34149293193902,babble-reversed_n13_p318-five-p256-nine-p307-eight-p248-two-p245-four-p284-three.wav,5,RX81,6,0.0,0.0,7.0,90.34149293193904,mgb_normalisation,90.34149293193902,90.34149293193902,5,5.0,True,0.812450647354126
,2024-07-26 15:56:46,sub_119,3,distance,cathedral,spatial_unmasking,4,148,0,0,_two_,talker-p248_sex-f_text-_two_.wav,p248,f,5,30,7.0,7.0,RX81,6,0.0,0.0,7.0,88.34149293193903,babble-reversed_n13_p229-five-p318-two-p307-eight-p268-three-p248-four-p245-one.wav,5,RX81,6,0.0,0.0,7.0,90.34149293193904,mgb_normalisation,90.34149293193902,90.34149293193902,2,2.0,True,1.312413454055786
,2024-07-26 15:56:52,sub_119,3,distance,cathedral,spatial_unmasking,4,149,0,0,_eight_,talker-p248_sex-f_text-_eight_.wav,p248,f,5,31,7.0,7.0,RX81,6,0.0,0.0,7.0,87.34149293193902,babble-reversed_n13_p229-three-p307-one-p318-two-p245-eight-p268-five-p284-four.wav,5,RX81,6,0.0,0.0,7.0,90.34149293193904,mgb_normalisation,90.34149293193902,90.34149293193902,8,5.0,False,3.8747525215148926
,2024-07-26 15:56:55,sub_119,3,distance,cathedral,spatial_unmasking,4,150,0,0,_four_,talker-p248_sex-f_text-_four_.wav,p248,f,5,32,7.0,7.0,RX81,6,0.0,0.0,7.0,88.34149293193902,babble-reversed_n13_p229-two-p307-five-p318-four-p284-one-p248-nine-p268-eight.wav,5,RX81,6,0.0,0.0,7.0,90.34149293193904,mgb_normalisation,90.34149293193902,90.34149293193902,4,4.0,True,1.1249008178710938
,2024-07-26 15:56:59,sub_119,3,distance,cathedral,spatial_unmasking,4,151,0,0,_three_,talker-p248_sex-f_text-_three_.wav,p248,f,5,33,7.0,7.0,RX81,6,0.0,0.0,7.0,88.34149293193902,babble-reversed_n13_p307-nine-p229-one-p256-eight-p248-four-p284-two-p268-three.wav,5,RX81,6,0.0,0.0,7.0,90.34149293193904,mgb_normalisation,90.34149293193902,90.34149293193902,3,3.0,True,1.24992036819458
,2024-07-26 15:57:03,sub_119,3,distance,cathedral,spatial_unmasking,4,152,0,0,_one_,talker-p248_sex-f_text-_one_.wav,p248,f,5,34,7.0,7.0,RX81,6,0.0,0.0,7.0,87.34149293193902,babble-reversed_n13_p229-three-p256-nine-p318-five-p248-one-p245-eight-p284-two.wav,5,RX81,6,0.0,0.0,7.0,90.34149293193904,mgb_normalisation,90.34149293193902,90.34149293193902,1,1.0,True,1.6248948574066162
,2024-07-26 15:57:06,sub_119,3,distance,cathedral,spatial_unmasking,4,153,0,0,_two_,talker-p248_sex-f_text-_two_.wav,p248,f,5,35,7.0,7.0,RX81,6,0.0,0.0,7.0,87.34149293193902,babble-reversed_n13_p229-two-p256-three-p318-eight-p284-five-p268-four-p245-one.wav,5,RX81,6,0.0,0.0,7.0,90.34149293193904,mgb_normalisation,90.34149293193902,90.34149293193902,2,2.0,True,0.9375042915344238
,2024-07-26 15:57:11,sub_119,3,distance,cathedral,spatial_unmasking,4,154,0,0,_eight_,talker-p248_sex-f_text-_eight_.wav,p248,f,5,36,7.0,7.0,RX81,6,0.0,0.0,7.0,86.34149293193902,babble-reversed_n13_p229-one-p318-eight-p256-three-p268-nine-p248-five-p284-four.wav,5,RX81,6,0.0,0.0,7.0,90.341492931939,mgb_normalisation,90.34149293193902,90.34149293193902,8,4.0,False,2.812350034713745
,2024-07-26 15:57:16,sub_119,3,distance,cathedral,spatial_unmasking,4,155,0,0,_five_,talker-p248_sex-f_text-_five_.wav,p248,f,5,37,7.0,7.0,RX81,6,0.0,0.0,7.0,87.341492931939,babble-reversed_n13_p256-nine-p307-four-p229-one-p284-three-p248-two-p245-five.wav,5,RX81,6,0.0,0.0,7.0,90.34149293193904,mgb_normalisation,90.34149293193902,90.34149293193902,5,5.0,True,2.1248645782470703
,2024-07-26 15:57:20,sub_119,3,distance,cathedral,spatial_unmasking,4,156,0,0,_eight_,talker-p248_sex-f_text-_eight_.wav,p248,f,5,38,7.0,7.0,RX81,6,0.0,0.0,7.0,87.34149293193902,babble-reversed_n13_p307-two-p229-one-p256-five-p248-nine-p284-three-p268-eight.wav,5,RX81,6,0.0,0.0,7.0,90.34149293193904,mgb_normalisation,90.34149293193902,90.34149293193902,8,4.0,False,1.7498886585235596
,2024-07-26 15:57:23,sub_119,3,distance,cathedral,spatial_unmasking,4,157,0,0,_four_,talker-p248_sex-f_text-_four_.wav,p248,f,5,39,7.0,7.0,RX81,6,0.0,0.0,7.0,88.34149293193902,babble-reversed_n13_p229-three-p256-nine-p318-five-p248-one-p245-eight-p284-two.wav,5,RX81,6,0.0,0.0,7.0,90.34149293193904,mgb_normalisation,90.34149293193902,90.34149293193902,4,4.0,True,1.4999043941497805
,2024-07-26 15:57:32,sub_119,3,distance,cathedral,spatial_unmasking,4,158,0,0,_four_,talker-p248_sex-f_text-_four_.wav,p248,f,5,40,7.0,7.0,RX81,6,0.0,0.0,7.0,88.34149293193902,babble-reversed_n13_p229-two-p256-three-p318-eight-p284-five-p268-four-p245-one.wav,5,RX81,6,0.0,0.0,7.0,90.34149293193904,mgb_normalisation,90.34149293193902,90.34149293193902,4,4.0,True,6.374594211578369
,2024-07-26 15:58:34,sub_119,3,distance,cathedral,spatial_unmasking,5,159,0,0,_three_,talker-p248_sex-f_text-_three_.wav,p248,f,5,1,8.0,7.0,RX81,6,0.0,0.0,7.0,92.34149293193902,babble-reversed_n13_p256-eight-p229-three-p307-nine-p245-five-p248-four-p268-two.wav,6,RX81,7,0.0,0.0,8.0,91.58892582949886,mgb_normalisation,91.58892582949886,90.34149293193902,3,3.0,True,1.564429759979248
,2024-07-26 15:58:38,sub_119,3,distance,cathedral,spatial_unmasking,5,160,0,0,_two_,talker-p248_sex-f_text-_two_.wav,p248,f,5,2,8.0,7.0,RX81,6,0.0,0.0,7.0,88.34149293193903,babble-reversed_n13_p256-four-p307-eight-p318-two-p248-three-p284-nine-p268-one.wav,6,RX81,7,0.0,0.0,8.0,91.58892582949888,mgb_normalisation,91.58892582949886,90.34149293193902,2,2.0,True,1.24992036819458
,2024-07-26 15:58:41,sub_119,3,distance,cathedral,spatial_unmasking,5,161,0,0,_three_,talker-p248_sex-f_text-_three_.wav,p248,f,5,3,8.0,7.0,RX81,6,0.0,0.0,7.0,84.341492931939,babble-reversed_n13_p229-nine-p318-one-p307-two-p248-eight-p245-five-p284-four.wav,6,RX81,7,0.0,0.0,8.0,91.58892582949886,mgb_normalisation,91.58892582949886,90.34149293193902,3,3.0,True,0.874936580657959
,2024-07-26 15:58:46,sub_119,3,distance,cathedral,spatial_unmasking,5,162,0,0,_six_,talker-p248_sex-f_text-_six_.wav,p248,f,5,4,8.0,7.0,RX81,6,0.0,0.0,7.0,80.34149293193903,babble-reversed_n13_p307-two-p229-one-p256-five-p248-nine-p284-three-p268-eight.wav,6,RX81,7,0.0,0.0,8.0,91.58892582949888,mgb_normalisation,91.58892582949886,90.34149293193902,6,6.0,True,2.56233286857605
,2024-07-26 15:58:51,sub_119,3,distance,cathedral,spatial_unmasking,5,163,0,0,_four_,talker-p248_sex-f_text-_four_.wav,p248,f,5,5,8.0,7.0,RX81,6,0.0,0.0,7.0,76.34149293193902,babble-reversed_n13_p318-one-p307-two-p256-eight-p284-three-p248-five-p245-four.wav,6,RX81,7,0.0,0.0,8.0,91.58892582949888,mgb_normalisation,91.58892582949886,90.34149293193902,4,4.0,True,2.7498202323913574
,2024-07-26 15:58:56,sub_119,3,distance,cathedral,spatial_unmasking,5,164,0,0,_three_,talker-p248_sex-f_text-_three_.wav,p248,f,5,6,8.0,7.0,RX81,6,0.0,0.0,7.0,72.34149293193902,babble-reversed_n13_p229-three-p256-one-p307-two-p284-eight-p268-five-p248-nine.wav,6,RX81,7,0.0,0.0,8.0,91.58892582949888,mgb_normalisation,91.58892582949886,90.34149293193902,3,8.0,False,1.9373738765716555
,2024-07-26 15:58:59,sub_119,3,distance,cathedral,spatial_unmasking,5,165,0,0,_six_,talker-p248_sex-f_text-_six_.wav,p248,f,5,7,8.0,7.0,RX81,6,0.0,0.0,7.0,74.34149293193902,babble-reversed_n13_p229-eight-p256-nine-p318-four-p245-three-p268-five-p284-two.wav,6,RX81,7,0.0,0.0,8.0,91.58892582949886,mgb_normalisation,91.58892582949886,90.34149293193902,6,6.0,True,1.0624306201934814
,2024-07-26 15:59:03,sub_119,3,distance,cathedral,spatial_unmasking,5,166,0,0,_one_,talker-p248_sex-f_text-_one_.wav,p248,f,5,8,8.0,7.0,RX81,6,0.0,0.0,7.0,74.34149293193902,babble-reversed_n13_p318-five-p256-nine-p307-eight-p248-two-p245-four-p284-three.wav,6,RX81,7,0.0,0.0,8.0,91.58892582949886,mgb_normalisation,91.58892582949886,90.34149293193902,1,2.0,False,1.3749101161956787
,2024-07-26 15:59:07,sub_119,3,distance,cathedral,spatial_unmasking,5,167,0,0,_three_,talker-p248_sex-f_text-_three_.wav,p248,f,5,9,8.0,7.0,RX81,6,0.0,0.0,7.0,76.34149293193902,babble-reversed_n13_p256-three-p318-one-p307-two-p284-nine-p268-four-p245-eight.wav,6,RX81,7,0.0,0.0,8.0,91.58892582949888,mgb_normalisation,91.58892582949886,90.34149293193902,3,9.0,False,1.374906301498413
,2024-07-26 15:59:10,sub_119,3,distance,cathedral,spatial_unmasking,5,168,0,0,_nine_,talker-p248_sex-f_text-_nine_.wav,p248,f,5,10,8.0,7.0,RX81,6,0.0,0.0,7.0,78.34149293193902,babble-reversed_n13_p318-five-p229-four-p256-eight-p284-one-p245-three-p248-two.wav,6,RX81,7,0.0,0.0,8.0,91.58892582949888,mgb_normalisation,91.58892582949886,90.34149293193902,9,9.0,True,1.3124141693115234
,2024-07-26 15:59:15,sub_119,3,distance,cathedral,spatial_unmasking,5,169,0,0,_eight_,talker-p248_sex-f_text-_eight_.wav,p248,f,5,11,8.0,7.0,RX81,6,0.0,0.0,7.0,78.34149293193902,babble-reversed_n13_p256-five-p229-one-p318-three-p248-nine-p284-eight-p268-two.wav,6,RX81,7,0.0,0.0,8.0,91.58892582949888,mgb_normalisation,91.58892582949886,90.34149293193902,8,6.0,False,2.4998364448547363
,2024-07-26 15:59:19,sub_119,3,distance,cathedral,spatial_unmasking,5,170,0,0,_nine_,talker-p248_sex-f_text-_nine_.wav,p248,f,5,12,8.0,7.0,RX81,6,0.0,0.0,7.0,80.341492931939,babble-reversed_n13_p307-one-p318-five-p229-four-p268-eight-p284-two-p245-three.wav,6,RX81,7,0.0,0.0,8.0,91.58892582949886,mgb_normalisation,91.58892582949886,90.34149293193902,9,9.0,True,0.9999344348907472
,2024-07-26 15:59:22,sub_119,3,distance,cathedral,spatial_unmasking,5,171,0,0,_five_,talker-p248_sex-f_text-_five_.wav,p248,f,5,13,8.0,7.0,RX81,6,0.0,0.0,7.0,80.341492931939,babble-reversed_n13_p229-five-p318-three-p307-two-p245-four-p284-nine-p248-eight.wav,6,RX81,7,0.0,0.0,8.0,91.58892582949886,mgb_normalisation,91.58892582949886,90.34149293193902,5,5.0,True,0.9999339580535888
,2024-07-26 15:59:26,sub_119,3,distance,cathedral,spatial_unmasking,5,172,0,0,_nine_,talker-p248_sex-f_text-_nine_.wav,p248,f,5,14,8.0,7.0,RX81,6,0.0,0.0,7.0,78.34149293193902,babble-reversed_n13_p256-eight-p318-five-p307-four-p245-three-p268-one-p284-nine.wav,6,RX81,7,0.0,0.0,8.0,91.58892582949886,mgb_normalisation,91.58892582949886,90.34149293193902,9,9.0,True,1.187422275543213
,2024-07-26 15:59:30,sub_119,3,distance,cathedral,spatial_unmasking,5,173,0,0,_four_,talker-p248_sex-f_text-_four_.wav,p248,f,5,15,8.0,7.0,RX81,6,0.0,0.0,7.0,78.34149293193902,babble-reversed_n13_p256-three-p318-two-p229-nine-p248-four-p284-one-p268-eight.wav,6,RX81,7,0.0,0.0,8.0,91.58892582949886,mgb_normalisation,91.58892582949886,90.34149293193902,4,4.0,True,1.9373743534088133
,2024-07-26 15:59:36,sub_119,3,distance,cathedral,spatial_unmasking,5,174,0,0,_four_,talker-p248_sex-f_text-_four_.wav,p248,f,5,16,8.0,7.0,RX81,6,0.0,0.0,7.0,76.34149293193902,babble-reversed_n13_p256-nine-p307-four-p229-one-p284-three-p248-two-p245-five.wav,6,RX81,7,0.0,0.0,8.0,91.58892582949888,mgb_normalisation,91.58892582949886,90.34149293193902,4,4.0,True,3.937235832214356
,2024-07-26 15:59:41,sub_119,3,distance,cathedral,spatial_unmasking,5,175,0,0,_nine_,talker-p248_sex-f_text-_nine_.wav,p248,f,5,17,8.0,7.0,RX81,6,0.0,0.0,7.0,76.34149293193902,babble-reversed_n13_p307-two-p229-one-p256-five-p248-nine-p284-three-p268-eight.wav,6,RX81,7,0.0,0.0,8.0,91.58892582949888,mgb_normalisation,91.58892582949886,90.34149293193902,9,9.0,True,1.9374313354492188
,2024-07-26 15:59:48,sub_119,3,distance,cathedral,spatial_unmasking,5,176,0,0,_two_,talker-p248_sex-f_text-_two_.wav,p248,f,5,18,8.0,7.0,RX81,6,0.0,0.0,7.0,74.34149293193902,babble-reversed_n13_p256-eight-p318-two-p307-five-p245-four-p268-nine-p284-one.wav,6,RX81,7,0.0,0.0,8.0,91.58892582949888,mgb_normalisation,91.58892582949886,90.34149293193902,2,5.0,False,5.43714451789856
,2024-07-26 15:59:52,sub_119,3,distance,cathedral,spatial_unmasking,5,177,0,0,_six_,talker-p248_sex-f_text-_six_.wav,p248,f,5,19,8.0,7.0,RX81,6,0.0,0.0,7.0,75.34149293193902,babble-reversed_n13_p229-nine-p318-one-p307-two-p248-eight-p245-five-p284-four.wav,6,RX81,7,0.0,0.0,8.0,91.58892582949886,mgb_normalisation,91.58892582949886,90.34149293193902,6,6.0,True,0.9999330043792723
,2024-07-26 15:59:56,sub_119,3,distance,cathedral,spatial_unmasking,5,178,0,0,_one_,talker-p248_sex-f_text-_one_.wav,p248,f,5,20,8.0,7.0,RX81,6,0.0,0.0,7.0,75.34149293193903,babble-reversed_n13_p318-five-p256-nine-p307-eight-p248-two-p245-four-p284-three.wav,6,RX81,7,0.0,0.0,8.0,91.58892582949886,mgb_normalisation,91.58892582949886,90.34149293193902,1,2.0,False,1.4998996257781982
,2024-07-26 15:59:59,sub_119,3,distance,cathedral,spatial_unmasking,5,179,0,0,_two_,talker-p248_sex-f_text-_two_.wav,p248,f,5,21,8.0,7.0,RX81,6,0.0,0.0,7.0,76.34149293193902,babble-reversed_n13_p256-four-p229-eight-p307-five-p248-three-p245-one-p284-two.wav,6,RX81,7,0.0,0.0,8.0,91.58892582949886,mgb_normalisation,91.58892582949886,90.34149293193902,2,2.0,True,1.0624308586120603
,2024-07-26 16:00:03,sub_119,3,distance,cathedral,spatial_unmasking,5,180,0,0,_one_,talker-p248_sex-f_text-_one_.wav,p248,f,5,22,8.0,7.0,RX81,6,0.0,0.0,7.0,76.34149293193902,babble-reversed_n13_p318-three-p229-one-p256-eight-p245-five-p248-four-p284-nine.wav,6,RX81,7,0.0,0.0,8.0,91.58892582949888,mgb_normalisation,91.58892582949886,90.34149293193902,1,4.0,False,1.687389612197876
,2024-07-26 16:00:09,sub_119,3,distance,cathedral,spatial_unmasking,5,181,0,0,_eight_,talker-p248_sex-f_text-_eight_.wav,p248,f,5,23,8.0,7.0,RX81,6,0.0,0.0,7.0,77.34149293193903,babble-reversed_n13_p229-two-p256-three-p318-eight-p284-five-p268-four-p245-one.wav,6,RX81,7,0.0,0.0,8.0,91.58892582949888,mgb_normalisation,91.58892582949886,90.34149293193902,8,5.0,False,2.937307834625244
,2024-07-26 16:00:13,sub_119,3,distance,cathedral,spatial_unmasking,5,182,0,0,_two_,talker-p248_sex-f_text-_two_.wav,p248,f,5,24,8.0,7.0,RX81,6,0.0,0.0,7.0,78.34149293193902,babble-reversed_n13_p229-one-p318-nine-p256-four-p284-eight-p268-five-p245-two.wav,6,RX81,7,0.0,0.0,8.0,91.58892582949886,mgb_normalisation,91.58892582949886,90.34149293193902,2,2.0,True,1.9373722076416016
,2024-07-26 16:00:17,sub_119,3,distance,cathedral,spatial_unmasking,5,183,0,0,_six_,talker-p248_sex-f_text-_six_.wav,p248,f,5,25,8.0,7.0,RX81,6,0.0,0.0,7.0,78.34149293193902,babble-reversed_n13_p229-two-p256-three-p318-eight-p284-five-p268-four-p245-one.wav,6,RX81,7,0.0,0.0,8.0,91.58892582949888,mgb_normalisation,91.58892582949886,90.34149293193902,6,6.0,True,1.2499184608459473
,2024-07-26 16:00:22,sub_119,3,distance,cathedral,spatial_unmasking,5,184,0,0,_five_,talker-p248_sex-f_text-_five_.wav,p248,f,5,26,8.0,7.0,RX81,6,0.0,0.0,7.0,77.341492931939,babble-reversed_n13_p307-four-p318-three-p256-eight-p284-two-p245-nine-p248-five.wav,6,RX81,7,0.0,0.0,8.0,91.58892582949886,mgb_normalisation,91.58892582949886,90.34149293193902,5,9.0,False,3.437276124954224
,2024-07-26 16:00:26,sub_119,3,distance,cathedral,spatial_unmasking,5,185,0,0,_one_,talker-p248_sex-f_text-_one_.wav,p248,f,5,27,8.0,7.0,RX81,6,0.0,0.0,7.0,78.34149293193902,babble-reversed_n13_p256-three-p318-one-p307-two-p284-nine-p268-four-p245-eight.wav,6,RX81,7,0.0,0.0,8.0,91.58892582949888,mgb_normalisation,91.58892582949886,90.34149293193902,1,9.0,False,1.1249938011169434
,2024-07-26 16:00:32,sub_119,3,distance,cathedral,spatial_unmasking,5,186,0,0,_eight_,talker-p248_sex-f_text-_eight_.wav,p248,f,5,28,8.0,7.0,RX81,6,0.0,0.0,7.0,79.34149293193902,babble-reversed_n13_p256-eight-p229-three-p307-nine-p245-five-p248-four-p268-two.wav,6,RX81,7,0.0,0.0,8.0,91.58892582949886,mgb_normalisation,91.58892582949886,90.34149293193902,8,2.0,False,3.2497875690460205
,2024-07-26 16:00:38,sub_119,3,distance,cathedral,spatial_unmasking,5,187,0,0,_four_,talker-p248_sex-f_text-_four_.wav,p248,f,5,29,8.0,7.0,RX81,6,0.0,0.0,7.0,80.341492931939,babble-reversed_n13_p229-nine-p307-five-p256-two-p248-three-p245-one-p268-eight.wav,6,RX81,7,0.0,0.0,8.0,91.58892582949886,mgb_normalisation,91.58892582949886,90.34149293193902,4,3.0,False,4.499706268310547
,2024-07-26 16:00:42,sub_119,3,distance,cathedral,spatial_unmasking,5,188,0,0,_six_,talker-p248_sex-f_text-_six_.wav,p248,f,5,30,8.0,7.0,RX81,6,0.0,0.0,7.0,81.34149293193902,babble-reversed_n13_p229-nine-p318-one-p307-two-p248-eight-p245-five-p284-four.wav,6,RX81,7,0.0,0.0,8.0,91.58892582949886,mgb_normalisation,91.58892582949886,90.34149293193902,6,6.0,True,1.062403440475464
,2024-07-26 16:00:45,sub_119,3,distance,cathedral,spatial_unmasking,5,189,0,0,_five_,talker-p248_sex-f_text-_five_.wav,p248,f,5,31,8.0,7.0,RX81,6,0.0,0.0,7.0,81.341492931939,babble-reversed_n13_p256-eight-p229-three-p307-nine-p245-five-p248-four-p268-two.wav,6,RX81,7,0.0,0.0,8.0,91.58892582949886,mgb_normalisation,91.58892582949886,90.34149293193902,5,5.0,True,1.187422513961792
,2024-07-26 16:00:53,sub_119,3,distance,cathedral,spatial_unmasking,5,190,0,0,_two_,talker-p248_sex-f_text-_two_.wav,p248,f,5,32,8.0,7.0,RX81,6,0.0,0.0,7.0,80.34149293193903,babble-reversed_n13_p229-five-p318-three-p307-two-p245-four-p284-nine-p248-eight.wav,6,RX81,7,0.0,0.0,8.0,91.58892582949886,mgb_normalisation,91.58892582949886,90.34149293193902,2,2.0,True,4.999673366546631
,2024-07-26 16:00:56,sub_119,3,distance,cathedral,spatial_unmasking,5,191,0,0,_six_,talker-p248_sex-f_text-_six_.wav,p248,f,5,33,8.0,7.0,RX81,6,0.0,0.0,7.0,80.34149293193903,babble-reversed_n13_p256-two-p307-five-p318-nine-p248-eight-p245-four-p284-one.wav,6,RX81,7,0.0,0.0,8.0,91.58892582949888,mgb_normalisation,91.58892582949886,90.34149293193902,6,6.0,True,1.0624301433563232
,2024-07-26 16:01:00,sub_119,3,distance,cathedral,spatial_unmasking,5,192,0,0,_three_,talker-p248_sex-f_text-_three_.wav,p248,f,5,34,8.0,7.0,RX81,6,0.0,0.0,7.0,79.341492931939,babble-reversed_n13_p229-nine-p318-one-p307-two-p248-eight-p245-five-p284-four.wav,6,RX81,7,0.0,0.0,8.0,91.58892582949886,mgb_normalisation,91.58892582949886,90.34149293193902,3,3.0,True,1.187421798706055
,2024-07-26 16:01:03,sub_119,3,distance,cathedral,spatial_unmasking,5,193,0,0,_five_,talker-p248_sex-f_text-_five_.wav,p248,f,5,35,8.0,7.0,RX81,6,0.0,0.0,7.0,79.341492931939,babble-reversed_n13_p307-one-p318-five-p229-four-p268-eight-p284-two-p245-three.wav,6,RX81,7,0.0,0.0,8.0,91.58892582949886,mgb_normalisation,91.58892582949886,90.34149293193902,5,5.0,True,1.1249268054962158
,2024-07-26 16:01:08,sub_119,3,distance,cathedral,spatial_unmasking,5,194,0,0,_one_,talker-p248_sex-f_text-_one_.wav,p248,f,5,36,8.0,7.0,RX81,6,0.0,0.0,7.0,78.34149293193902,babble-reversed_n13_p256-nine-p307-four-p229-one-p284-three-p248-two-p245-five.wav,6,RX81,7,0.0,0.0,8.0,91.58892582949888,mgb_normalisation,91.58892582949886,90.34149293193902,1,4.0,False,1.9373738765716555
,2024-07-26 16:01:11,sub_119,3,distance,cathedral,spatial_unmasking,5,195,0,0,_nine_,talker-p248_sex-f_text-_nine_.wav,p248,f,5,37,8.0,7.0,RX81,6,0.0,0.0,7.0,79.341492931939,babble-reversed_n13_p256-four-p307-eight-p318-two-p248-three-p284-nine-p268-one.wav,6,RX81,7,0.0,0.0,8.0,91.58892582949888,mgb_normalisation,91.58892582949886,90.34149293193902,9,3.0,False,1.1249265670776367
,2024-07-26 16:01:15,sub_119,3,distance,cathedral,spatial_unmasking,5,196,0,0,_two_,talker-p248_sex-f_text-_two_.wav,p248,f,5,38,8.0,7.0,RX81,6,0.0,0.0,7.0,80.34149293193903,babble-reversed_n13_p229-nine-p256-four-p318-three-p268-eight-p248-two-p284-five.wav,6,RX81,7,0.0,0.0,8.0,91.58892582949888,mgb_normalisation,91.58892582949886,90.34149293193902,2,2.0,True,1.249920129776001
,2024-07-26 16:01:18,sub_119,3,distance,cathedral,spatial_unmasking,5,197,0,0,_five_,talker-p248_sex-f_text-_five_.wav,p248,f,5,39,8.0,7.0,RX81,6,0.0,0.0,7.0,80.341492931939,babble-reversed_n13_p307-five-p229-two-p318-four-p248-three-p245-nine-p268-eight.wav,6,RX81,7,0.0,0.0,8.0,91.58892582949886,mgb_normalisation,91.58892582949886,90.34149293193902,5,5.0,True,1.2499186992645264
,2024-07-26 16:01:24,sub_119,3,distance,cathedral,spatial_unmasking,5,198,0,0,_two_,talker-p248_sex-f_text-_two_.wav,p248,f,5,40,8.0,7.0,RX81,6,0.0,0.0,7.0,79.34149293193902,babble-reversed_n13_p256-eight-p318-five-p307-four-p245-three-p268-one-p284-nine.wav,6,RX81,7,0.0,0.0,8.0,91.58892582949886,mgb_normalisation,91.58892582949886,90.34149293193902,2,4.0,False,3.12479567527771
,2024-07-26 16:01:28,sub_119,3,distance,cathedral,spatial_unmasking,5,199,0,0,_six_,talker-p248_sex-f_text-_six_.wav,p248,f,5,41,8.0,7.0,RX81,6,0.0,0.0,7.0,80.34149293193903,babble-reversed_n13_p307-four-p318-three-p256-eight-p284-two-p245-nine-p248-five.wav,6,RX81,7,0.0,0.0,8.0,91.58892582949886,mgb_normalisation,91.58892582949886,90.34149293193902,6,6.0,True,1.1874232292175293
,2024-07-26 16:01:32,sub_119,3,distance,cathedral,spatial_unmasking,5,200,0,0,_three_,talker-p248_sex-f_text-_three_.wav,p248,f,5,42,8.0,7.0,RX81,6,0.0,0.0,7.0,80.341492931939,babble-reversed_n13_p229-three-p256-one-p307-two-p284-eight-p268-five-p248-nine.wav,6,RX81,7,0.0,0.0,8.0,91.58892582949888,mgb_normalisation,91.58892582949886,90.34149293193902,3,4.0,False,1.687389612197876
,2024-07-26 16:01:36,sub_119,3,distance,cathedral,spatial_unmasking,5,201,0,0,_six_,talker-p248_sex-f_text-_six_.wav,p248,f,5,43,8.0,7.0,RX81,6,0.0,0.0,7.0,81.34149293193902,babble-reversed_n13_p256-eight-p318-two-p307-five-p245-four-p268-nine-p284-one.wav,6,RX81,7,0.0,0.0,8.0,91.58892582949888,mgb_normalisation,91.58892582949886,90.34149293193902,6,6.0,True,2.0623645782470703
,2024-07-26 16:01:40,sub_119,3,distance,cathedral,spatial_unmasking,5,202,0,0,_four_,talker-p248_sex-f_text-_four_.wav,p248,f,5,44,8.0,7.0,RX81,6,0.0,0.0,7.0,81.341492931939,babble-reversed_n13_p229-two-p256-three-p318-eight-p284-five-p268-four-p245-one.wav,6,RX81,7,0.0,0.0,8.0,91.58892582949888,mgb_normalisation,91.58892582949886,90.34149293193902,4,4.0,True,1.8123817443847656
,2024-07-26 16:01:44,sub_119,3,distance,cathedral,spatial_unmasking,5,203,0,0,_nine_,talker-p248_sex-f_text-_nine_.wav,p248,f,5,45,8.0,7.0,RX81,6,0.0,0.0,7.0,80.341492931939,babble-reversed_n13_p229-one-p318-eight-p256-three-p268-nine-p248-five-p284-four.wav,6,RX81,7,0.0,0.0,8.0,91.58892582949886,mgb_normalisation,91.58892582949886,90.34149293193902,9,9.0,True,1.1249756813049316
,2024-07-26 16:01:47,sub_119,3,distance,cathedral,spatial_unmasking,5,204,0,0,_nine_,talker-p248_sex-f_text-_nine_.wav,p248,f,5,46,8.0,7.0,RX81,6,0.0,0.0,7.0,80.341492931939,babble-reversed_n13_p229-three-p256-nine-p318-five-p248-one-p245-eight-p284-two.wav,6,RX81,7,0.0,0.0,8.0,91.58892582949888,mgb_normalisation,91.58892582949886,90.34149293193902,9,9.0,True,1.062429666519165
,2024-07-26 16:01:51,sub_119,3,distance,cathedral,spatial_unmasking,5,205,0,0,_five_,talker-p248_sex-f_text-_five_.wav,p248,f,5,47,8.0,7.0,RX81,6,0.0,0.0,7.0,79.341492931939,babble-reversed_n13_p256-four-p229-two-p318-five-p268-one-p248-eight-p245-three.wav,6,RX81,7,0.0,0.0,8.0,91.58892582949886,mgb_normalisation,91.58892582949886,90.34149293193902,5,5.0,True,1.124861240386963
,2024-07-26 16:01:56,sub_119,3,distance,cathedral,spatial_unmasking,5,206,0,0,_three_,talker-p248_sex-f_text-_three_.wav,p248,f,5,48,8.0,7.0,RX81,6,0.0,0.0,7.0,79.341492931939,babble-reversed_n13_p307-five-p229-two-p318-four-p248-three-p245-nine-p268-eight.wav,6,RX81,7,0.0,0.0,8.0,91.58892582949886,mgb_normalisation,91.58892582949886,90.34149293193902,3,3.0,True,2.8748326301574707
,2024-07-26 16:02:02,sub_119,3,distance,cathedral,spatial_unmasking,5,207,0,0,_eight_,talker-p248_sex-f_text-_eight_.wav,p248,f,5,49,8.0,7.0,RX81,6,0.0,0.0,7.0,78.34149293193902,babble-reversed_n13_p318-three-p307-one-p256-five-p248-nine-p245-two-p284-eight.wav,6,RX81,7,0.0,0.0,8.0,91.58892582949888,mgb_normalisation,91.58892582949886,90.34149293193902,8,2.0,False,4.1247546672821045
,2024-07-26 16:02:06,sub_119,3,distance,cathedral,spatial_unmasking,5,208,0,0,_five_,talker-p248_sex-f_text-_five_.wav,p248,f,5,50,8.0,7.0,RX81,6,0.0,0.0,7.0,79.341492931939,babble-reversed_n13_p229-two-p307-five-p318-four-p284-one-p248-nine-p268-eight.wav,6,RX81,7,0.0,0.0,8.0,91.58892582949888,mgb_normalisation,91.58892582949886,90.34149293193902,5,5.0,True,0.9999351501464844
,2024-07-26 16:02:09,sub_119,3,distance,cathedral,spatial_unmasking,5,209,0,0,_six_,talker-p248_sex-f_text-_six_.wav,p248,f,5,51,8.0,7.0,RX81,6,0.0,0.0,7.0,79.34149293193902,babble-reversed_n13_p256-four-p229-two-p318-five-p268-one-p248-eight-p245-three.wav,6,RX81,7,0.0,0.0,8.0,91.58892582949886,mgb_normalisation,91.58892582949886,90.34149293193902,6,6.0,True,0.8749604225158691
,2024-07-26 16:03:41,sub_119,3,distance,cathedral,spatial_unmasking,6,210,0,0,_eight_,talker-p248_sex-f_text-_eight_.wav,p248,f,5,1,12.0,7.0,RX81,6,0.0,0.0,7.0,92.34149293193902,babble-reversed_n13_p256-five-p229-one-p318-three-p248-nine-p284-eight-p268-two.wav,10,RX81,11,0.0,0.0,12.0,93.00003341222718,mgb_normalisation,93.00003341222715,90.34149293193902,8,2.0,False,1.8123819828033447
,2024-07-26 16:03:45,sub_119,3,distance,cathedral,spatial_unmasking,6,211,0,0,_nine_,talker-p248_sex-f_text-_nine_.wav,p248,f,5,2,12.0,7.0,RX81,6,0.0,0.0,7.0,94.341492931939,babble-reversed_n13_p318-five-p256-nine-p307-two-p245-eight-p248-one-p284-four.wav,10,RX81,11,0.0,0.0,12.0,93.00003341222718,mgb_normalisation,93.00003341222715,90.34149293193902,9,9.0,True,1.499903440475464
,2024-07-26 16:03:48,sub_119,3,distance,cathedral,spatial_unmasking,6,212,0,0,_nine_,talker-p248_sex-f_text-_nine_.wav,p248,f,5,3,12.0,7.0,RX81,6,0.0,0.0,7.0,94.341492931939,babble-reversed_n13_p318-five-p256-nine-p307-two-p245-eight-p248-one-p284-four.wav,10,RX81,11,0.0,0.0,12.0,93.00003341222718,mgb_normalisation,93.00003341222715,90.34149293193902,9,9.0,True,0.93743896484375
,2024-07-26 16:03:51,sub_119,3,distance,cathedral,spatial_unmasking,6,213,0,0,_nine_,talker-p248_sex-f_text-_nine_.wav,p248,f,5,4,12.0,7.0,RX81,6,0.0,0.0,7.0,92.34149293193902,babble-reversed_n13_p229-one-p318-eight-p256-three-p268-two-p245-five-p248-nine.wav,10,RX81,11,0.0,0.0,12.0,93.00003341222715,mgb_normalisation,93.00003341222715,90.34149293193902,9,9.0,True,0.8749415874481201
,2024-07-26 16:03:55,sub_119,3,distance,cathedral,spatial_unmasking,6,214,0,0,_five_,talker-p248_sex-f_text-_five_.wav,p248,f,5,5,12.0,7.0,RX81,6,0.0,0.0,7.0,92.34149293193902,babble-reversed_n13_p318-five-p256-nine-p307-two-p245-eight-p248-one-p284-four.wav,10,RX81,11,0.0,0.0,12.0,93.00003341222718,mgb_normalisation,93.00003341222715,90.34149293193902,5,5.0,True,0.9374384880065918
,2024-07-26 16:03:58,sub_119,3,distance,cathedral,spatial_unmasking,6,215,0,0,_three_,talker-p248_sex-f_text-_three_.wav,p248,f,5,6,12.0,7.0,RX81,6,0.0,0.0,7.0,90.34149293193904,babble-reversed_n13_p307-one-p318-five-p229-four-p268-eight-p284-two-p245-three.wav,10,RX81,11,0.0,0.0,12.0,93.00003341222715,mgb_normalisation,93.00003341222715,90.34149293193902,3,3.0,True,1.062429904937744
,2024-07-26 16:04:01,sub_119,3,distance,cathedral,spatial_unmasking,6,216,0,0,_three_,talker-p248_sex-f_text-_three_.wav,p248,f,5,7,12.0,7.0,RX81,6,0.0,0.0,7.0,90.34149293193904,babble-reversed_n13_p256-eight-p229-three-p307-nine-p245-five-p248-four-p268-two.wav,10,RX81,11,0.0,0.0,12.0,93.00003341222715,mgb_normalisation,93.00003341222715,90.34149293193902,3,3.0,True,0.9999353885650636
,2024-07-26 16:04:04,sub_119,3,distance,cathedral,spatial_unmasking,6,217,0,0,_three_,talker-p248_sex-f_text-_three_.wav,p248,f,5,8,12.0,7.0,RX81,6,0.0,0.0,7.0,88.34149293193902,babble-reversed_n13_p229-five-p256-three-p318-nine-p248-two-p284-four-p268-one.wav,10,RX81,11,0.0,0.0,12.0,93.00003341222718,mgb_normalisation,93.00003341222715,90.34149293193902,3,3.0,True,0.6874547004699707
,2024-07-26 16:04:09,sub_119,3,distance,cathedral,spatial_unmasking,6,218,0,0,_four_,talker-p248_sex-f_text-_four_.wav,p248,f,5,9,12.0,7.0,RX81,6,0.0,0.0,7.0,88.34149293193902,babble-reversed_n13_p318-five-p256-nine-p307-eight-p248-two-p245-four-p284-three.wav,10,RX81,11,0.0,0.0,12.0,93.00003341222718,mgb_normalisation,93.00003341222715,90.34149293193902,4,4.0,True,1.7498846054077148
,2024-07-26 16:04:12,sub_119,3,distance,cathedral,spatial_unmasking,6,219,0,0,_four_,talker-p248_sex-f_text-_four_.wav,p248,f,5,10,12.0,7.0,RX81,6,0.0,0.0,7.0,86.341492931939,babble-reversed_n13_p318-three-p307-one-p256-five-p248-nine-p245-two-p284-eight.wav,10,RX81,11,0.0,0.0,12.0,93.00003341222718,mgb_normalisation,93.00003341222715,90.34149293193902,4,4.0,True,1.3749101161956787
,2024-07-26 16:04:16,sub_119,3,distance,cathedral,spatial_unmasking,6,220,0,0,_five_,talker-p248_sex-f_text-_five_.wav,p248,f,5,11,12.0,7.0,RX81,6,0.0,0.0,7.0,86.341492931939,babble-reversed_n13_p256-three-p318-one-p307-two-p284-nine-p268-four-p245-eight.wav,10,RX81,11,0.0,0.0,12.0,93.00003341222718,mgb_normalisation,93.00003341222715,90.34149293193902,5,5.0,True,1.0624301433563232
,2024-07-26 16:04:19,sub_119,3,distance,cathedral,spatial_unmasking,6,221,0,0,_four_,talker-p248_sex-f_text-_four_.wav,p248,f,5,12,12.0,7.0,RX81,6,0.0,0.0,7.0,84.341492931939,babble-reversed_n13_p256-four-p229-eight-p307-five-p248-three-p245-one-p284-two.wav,10,RX81,11,0.0,0.0,12.0,93.00003341222715,mgb_normalisation,93.00003341222715,90.34149293193902,4,4.0,True,1.1249258518218994
,2024-07-26 16:04:23,sub_119,3,distance,cathedral,spatial_unmasking,6,222,0,0,_four_,talker-p248_sex-f_text-_four_.wav,p248,f,5,13,12.0,7.0,RX81,6,0.0,0.0,7.0,84.341492931939,babble-reversed_n13_p307-five-p229-two-p318-four-p248-three-p245-nine-p268-eight.wav,10,RX81,11,0.0,0.0,12.0,93.00003341222715,mgb_normalisation,93.00003341222715,90.34149293193902,4,4.0,True,1.5623979568481443
,2024-07-26 16:04:27,sub_119,3,distance,cathedral,spatial_unmasking,6,223,0,0,_two_,talker-p248_sex-f_text-_two_.wav,p248,f,5,14,12.0,7.0,RX81,6,0.0,0.0,7.0,82.34149293193902,babble-reversed_n13_p307-four-p318-three-p256-eight-p284-two-p245-nine-p248-five.wav,10,RX81,11,0.0,0.0,12.0,93.00003341222715,mgb_normalisation,93.00003341222715,90.34149293193902,2,2.0,True,1.0624303817749023
,2024-07-26 16:04:31,sub_119,3,distance,cathedral,spatial_unmasking,6,224,0,0,_eight_,talker-p248_sex-f_text-_eight_.wav,p248,f,5,15,12.0,7.0,RX81,6,0.0,0.0,7.0,82.34149293193902,babble-reversed_n13_p318-five-p229-four-p256-eight-p284-one-p245-three-p248-two.wav,10,RX81,11,0.0,0.0,12.0,93.00003341222718,mgb_normalisation,93.00003341222715,90.34149293193902,8,4.0,False,2.3123481273651123
,2024-07-26 16:04:36,sub_119,3,distance,cathedral,spatial_unmasking,6,225,0,0,_nine_,talker-p248_sex-f_text-_nine_.wav,p248,f,5,16,12.0,7.0,RX81,6,0.0,0.0,7.0,83.34149293193902,babble-reversed_n13_p318-five-p229-four-p256-eight-p284-one-p245-three-p248-two.wav,10,RX81,11,0.0,0.0,12.0,93.00003341222718,mgb_normalisation,93.00003341222715,90.34149293193902,9,9.0,True,1.8123817443847656
,2024-07-26 16:04:41,sub_119,3,distance,cathedral,spatial_unmasking,6,226,0,0,_eight_,talker-p248_sex-f_text-_eight_.wav,p248,f,5,17,12.0,7.0,RX81,6,0.0,0.0,7.0,83.34149293193902,babble-reversed_n13_p307-five-p229-two-p318-four-p248-three-p245-nine-p268-eight.wav,10,RX81,11,0.0,0.0,12.0,93.00003341222715,mgb_normalisation,93.00003341222715,90.34149293193902,8,4.0,False,2.9998035430908203
,2024-07-26 16:04:44,sub_119,3,distance,cathedral,spatial_unmasking,6,227,0,0,_nine_,talker-p248_sex-f_text-_nine_.wav,p248,f,5,18,12.0,7.0,RX81,6,0.0,0.0,7.0,84.341492931939,babble-reversed_n13_p318-nine-p307-eight-p229-two-p284-one-p248-three-p245-five.wav,10,RX81,11,0.0,0.0,12.0,93.00003341222718,mgb_normalisation,93.00003341222715,90.34149293193902,9,4.0,False,0.8748979568481445
,2024-07-26 16:04:48,sub_119,3,distance,cathedral,spatial_unmasking,6,228,0,0,_two_,talker-p248_sex-f_text-_two_.wav,p248,f,5,19,12.0,7.0,RX81,6,0.0,0.0,7.0,85.34149293193903,babble-reversed_n13_p229-three-p256-nine-p318-five-p248-one-p245-eight-p284-two.wav,10,RX81,11,0.0,0.0,12.0,93.00003341222718,mgb_normalisation,93.00003341222715,90.34149293193902,2,2.0,True,1.1249268054962158
,2024-07-26 16:04:51,sub_119,3,distance,cathedral,spatial_unmasking,6,229,0,0,_two_,talker-p248_sex-f_text-_two_.wav,p248,f,5,20,12.0,7.0,RX81,6,0.0,0.0,7.0,85.34149293193903,babble-reversed_n13_p256-four-p229-eight-p307-five-p248-three-p245-one-p284-two.wav,10,RX81,11,0.0,0.0,12.0,93.00003341222715,mgb_normalisation,93.00003341222715,90.34149293193902,2,2.0,True,0.8749423027038574
,2024-07-26 16:04:54,sub_119,3,distance,cathedral,spatial_unmasking,6,230,0,0,_two_,talker-p248_sex-f_text-_two_.wav,p248,f,5,21,12.0,7.0,RX81,6,0.0,0.0,7.0,84.34149293193903,babble-reversed_n13_p307-one-p318-five-p229-four-p268-eight-p284-two-p245-three.wav,10,RX81,11,0.0,0.0,12.0,93.00003341222715,mgb_normalisation,93.00003341222715,90.34149293193902,2,2.0,True,0.8749678134918213
,2024-07-26 16:04:58,sub_119,3,distance,cathedral,spatial_unmasking,6,231,0,0,_four_,talker-p248_sex-f_text-_four_.wav,p248,f,5,22,12.0,7.0,RX81,6,0.0,0.0,7.0,84.341492931939,babble-reversed_n13_p307-two-p256-four-p318-three-p284-eight-p248-five-p245-nine.wav,10,RX81,11,0.0,0.0,12.0,93.00003341222718,mgb_normalisation,93.00003341222715,90.34149293193902,4,4.0,True,1.249917984008789
,2024-07-26 16:05:02,sub_119,3,distance,cathedral,spatial_unmasking,6,232,0,0,_nine_,talker-p248_sex-f_text-_nine_.wav,p248,f,5,23,12.0,7.0,RX81,6,0.0,0.0,7.0,83.34149293193902,babble-reversed_n13_p229-three-p307-one-p318-two-p245-eight-p268-five-p284-four.wav,10,RX81,11,0.0,0.0,12.0,93.00003341222718,mgb_normalisation,93.00003341222715,90.34149293193902,9,9.0,True,1.937436580657959
,2024-07-26 16:05:07,sub_119,3,distance,cathedral,spatial_unmasking,6,233,0,0,_one_,talker-p248_sex-f_text-_one_.wav,p248,f,5,24,12.0,7.0,RX81,6,0.0,0.0,7.0,83.34149293193903,babble-reversed_n13_p256-five-p307-nine-p318-three-p284-eight-p268-one-p248-two.wav,10,RX81,11,0.0,0.0,12.0,93.00003341222715,mgb_normalisation,93.00003341222715,90.34149293193902,1,1.0,True,2.062366485595703
,2024-07-26 16:05:10,sub_119,3,distance,cathedral,spatial_unmasking,6,234,0,0,_two_,talker-p248_sex-f_text-_two_.wav,p248,f,5,25,12.0,7.0,RX81,6,0.0,0.0,7.0,82.34149293193902,babble-reversed_n13_p307-five-p229-three-p318-nine-p245-four-p268-eight-p284-two.wav,10,RX81,11,0.0,0.0,12.0,93.00003341222715,mgb_normalisation,93.00003341222715,90.34149293193902,2,2.0,True,1.0624308586120603
,2024-07-26 16:05:15,sub_119,3,distance,cathedral,spatial_unmasking,6,235,0,0,_nine_,talker-p248_sex-f_text-_nine_.wav,p248,f,5,26,12.0,7.0,RX81,6,0.0,0.0,7.0,82.34149293193902,babble-reversed_n13_p256-four-p229-two-p318-five-p268-one-p248-eight-p245-three.wav,10,RX81,11,0.0,0.0,12.0,93.00003341222715,mgb_normalisation,93.00003341222715,90.34149293193902,9,9.0,True,1.9373729228973389
,2024-07-26 16:05:18,sub_119,3,distance,cathedral,spatial_unmasking,6,236,0,0,_two_,talker-p248_sex-f_text-_two_.wav,p248,f,5,27,12.0,7.0,RX81,6,0.0,0.0,7.0,81.34149293193902,babble-reversed_n13_p229-three-p256-one-p307-two-p284-eight-p268-five-p248-nine.wav,10,RX81,11,0.0,0.0,12.0,93.00003341222718,mgb_normalisation,93.00003341222715,90.34149293193902,2,2.0,True,1.0624303817749023
,2024-07-26 16:05:22,sub_119,3,distance,cathedral,spatial_unmasking,6,237,0,0,_six_,talker-p248_sex-f_text-_six_.wav,p248,f,5,28,12.0,7.0,RX81,6,0.0,0.0,7.0,81.34149293193902,babble-reversed_n13_p229-nine-p307-five-p256-two-p248-three-p245-one-p268-eight.wav,10,RX81,11,0.0,0.0,12.0,93.00003341222715,mgb_normalisation,93.00003341222715,90.34149293193902,6,6.0,True,1.1249263286590576
,2024-07-26 16:05:27,sub_119,3,distance,cathedral,spatial_unmasking,6,238,0,0,_three_,talker-p248_sex-f_text-_three_.wav,p248,f,5,29,12.0,7.0,RX81,6,0.0,0.0,7.0,80.341492931939,babble-reversed_n13_p229-three-p256-nine-p318-five-p248-one-p245-eight-p284-two.wav,10,RX81,11,0.0,0.0,12.0,93.00003341222718,mgb_normalisation,93.00003341222715,90.34149293193902,3,9.0,False,2.6872689723968506
,2024-07-26 16:05:31,sub_119,3,distance,cathedral,spatial_unmasking,6,239,0,0,_four_,talker-p248_sex-f_text-_four_.wav,p248,f,5,30,12.0,7.0,RX81,6,0.0,0.0,7.0,81.341492931939,babble-reversed_n13_p256-four-p229-eight-p307-five-p248-three-p245-one-p284-two.wav,10,RX81,11,0.0,0.0,12.0,93.00003341222715,mgb_normalisation,93.00003341222715,90.34149293193902,4,4.0,True,2.0623645782470703
,2024-07-26 16:05:35,sub_119,3,distance,cathedral,spatial_unmasking,6,240,0,0,_three_,talker-p248_sex-f_text-_three_.wav,p248,f,5,31,12.0,7.0,RX81,6,0.0,0.0,7.0,81.34149293193902,babble-reversed_n13_p318-one-p307-two-p256-eight-p284-three-p248-five-p245-four.wav,10,RX81,11,0.0,0.0,12.0,93.00003341222718,mgb_normalisation,93.00003341222715,90.34149293193902,3,3.0,True,1.2498719692230225
,2024-07-26 16:05:39,sub_119,3,distance,cathedral,spatial_unmasking,6,241,0,0,_two_,talker-p248_sex-f_text-_two_.wav,p248,f,5,32,12.0,7.0,RX81,6,0.0,0.0,7.0,80.34149293193903,babble-reversed_n13_p256-four-p307-eight-p318-two-p248-three-p284-nine-p268-one.wav,10,RX81,11,0.0,0.0,12.0,93.00003341222718,mgb_normalisation,93.00003341222715,90.34149293193902,2,2.0,True,1.8124103546142576
,2024-07-26 16:05:42,sub_119,3,distance,cathedral,spatial_unmasking,6,242,0,0,_five_,talker-p248_sex-f_text-_five_.wav,p248,f,5,33,12.0,7.0,RX81,6,0.0,0.0,7.0,80.341492931939,babble-reversed_n13_p229-three-p256-one-p307-two-p284-eight-p268-five-p248-nine.wav,10,RX81,11,0.0,0.0,12.0,93.00003341222718,mgb_normalisation,93.00003341222715,90.34149293193902,5,5.0,True,0.9999337196350098
,2024-07-26 16:05:46,sub_119,3,distance,cathedral,spatial_unmasking,6,243,0,0,_three_,talker-p248_sex-f_text-_three_.wav,p248,f,5,34,12.0,7.0,RX81,6,0.0,0.0,7.0,79.341492931939,babble-reversed_n13_p318-five-p229-four-p256-eight-p284-one-p245-three-p248-two.wav,10,RX81,11,0.0,0.0,12.0,93.00003341222718,mgb_normalisation,93.00003341222715,90.34149293193902,3,3.0,True,1.0624303817749023
,2024-07-26 16:05:49,sub_119,3,distance,cathedral,spatial_unmasking,6,244,0,0,_six_,talker-p248_sex-f_text-_six_.wav,p248,f,5,35,12.0,7.0,RX81,6,0.0,0.0,7.0,79.34149293193902,babble-reversed_n13_p318-five-p229-three-p256-four-p268-eight-p248-one-p245-nine.wav,10,RX81,11,0.0,0.0,12.0,93.00003341222718,mgb_normalisation,93.00003341222715,90.34149293193902,6,6.0,True,0.8124473094940186
,2024-07-26 16:05:54,sub_119,3,distance,cathedral,spatial_unmasking,6,245,0,0,_eight_,talker-p248_sex-f_text-_eight_.wav,p248,f,5,36,12.0,7.0,RX81,6,0.0,0.0,7.0,78.34149293193902,babble-reversed_n13_p229-five-p256-three-p318-nine-p248-two-p284-four-p268-one.wav,10,RX81,11,0.0,0.0,12.0,93.00003341222718,mgb_normalisation,93.00003341222715,90.34149293193902,8,4.0,False,3.124795198440552
,2024-07-26 16:05:58,sub_119,3,distance,cathedral,spatial_unmasking,6,246,0,0,_five_,talker-p248_sex-f_text-_five_.wav,p248,f,5,37,12.0,7.0,RX81,6,0.0,0.0,7.0,79.341492931939,babble-reversed_n13_p318-five-p256-nine-p307-eight-p248-two-p245-four-p284-three.wav,10,RX81,11,0.0,0.0,12.0,93.00003341222718,mgb_normalisation,93.00003341222715,90.34149293193902,5,5.0,True,0.7499504089355469
,2024-07-26 16:06:01,sub_119,3,distance,cathedral,spatial_unmasking,6,247,0,0,_five_,talker-p248_sex-f_text-_five_.wav,p248,f,5,38,12.0,7.0,RX81,6,0.0,0.0,7.0,79.341492931939,babble-reversed_n13_p307-one-p318-five-p229-four-p268-eight-p284-two-p245-three.wav,10,RX81,11,0.0,0.0,12.0,93.00003341222715,mgb_normalisation,93.00003341222715,90.34149293193902,5,5.0,True,1.1249258518218994
,2024-07-26 16:06:05,sub_119,3,distance,cathedral,spatial_unmasking,6,248,0,0,_three_,talker-p248_sex-f_text-_three_.wav,p248,f,5,39,12.0,7.0,RX81,6,0.0,0.0,7.0,78.34149293193902,babble-reversed_n13_p307-nine-p229-one-p256-eight-p248-four-p284-two-p268-three.wav,10,RX81,11,0.0,0.0,12.0,93.00003341222718,mgb_normalisation,93.00003341222715,90.34149293193902,3,3.0,True,1.374908685684204
,2024-07-26 16:06:09,sub_119,3,distance,cathedral,spatial_unmasking,6,249,0,0,_five_,talker-p248_sex-f_text-_five_.wav,p248,f,5,40,12.0,7.0,RX81,6,0.0,0.0,7.0,78.341492931939,babble-reversed_n13_p318-one-p307-two-p256-eight-p284-three-p248-five-p245-four.wav,10,RX81,11,0.0,0.0,12.0,93.00003341222718,mgb_normalisation,93.00003341222715,90.34149293193902,5,5.0,True,1.3124139308929443
,2024-07-26 16:06:13,sub_119,3,distance,cathedral,spatial_unmasking,6,250,0,0,_nine_,talker-p248_sex-f_text-_nine_.wav,p248,f,5,41,12.0,7.0,RX81,6,0.0,0.0,7.0,77.34149293193902,babble-reversed_n13_p256-eight-p229-three-p307-nine-p245-five-p248-four-p268-two.wav,10,RX81,11,0.0,0.0,12.0,93.00003341222715,mgb_normalisation,93.00003341222715,90.34149293193902,9,3.0,False,1.8123807907104488
,2024-07-26 16:06:16,sub_119,3,distance,cathedral,spatial_unmasking,6,251,0,0,_two_,talker-p248_sex-f_text-_two_.wav,p248,f,5,42,12.0,7.0,RX81,6,0.0,0.0,7.0,78.34149293193902,babble-reversed_n13_p307-two-p256-four-p318-three-p284-eight-p248-five-p245-nine.wav,10,RX81,11,0.0,0.0,12.0,93.00003341222718,mgb_normalisation,93.00003341222715,90.34149293193902,2,2.0,True,0.9999351501464844
,2024-07-26 16:06:20,sub_119,3,distance,cathedral,spatial_unmasking,6,252,0,0,_nine_,talker-p248_sex-f_text-_nine_.wav,p248,f,5,43,12.0,7.0,RX81,6,0.0,0.0,7.0,78.34149293193902,babble-reversed_n13_p229-nine-p256-four-p318-three-p268-eight-p248-two-p284-five.wav,10,RX81,11,0.0,0.0,12.0,93.00003341222718,mgb_normalisation,93.00003341222715,90.34149293193902,9,5.0,False,1.2499184608459473
,2024-07-26 16:06:24,sub_119,3,distance,cathedral,spatial_unmasking,6,253,0,0,_two_,talker-p248_sex-f_text-_two_.wav,p248,f,5,44,12.0,7.0,RX81,6,0.0,0.0,7.0,79.34149293193902,babble-reversed_n13_p318-four-p256-five-p229-three-p284-one-p245-eight-p248-nine.wav,10,RX81,11,0.0,0.0,12.0,93.00003341222718,mgb_normalisation,93.00003341222715,90.34149293193902,2,4.0,False,1.8123815059661863
,2024-07-26 16:06:28,sub_119,3,distance,cathedral,spatial_unmasking,6,254,0,0,_two_,talker-p248_sex-f_text-_two_.wav,p248,f,5,45,12.0,7.0,RX81,6,0.0,0.0,7.0,80.34149293193903,babble-reversed_n13_p229-one-p318-eight-p256-three-p268-nine-p248-five-p284-four.wav,10,RX81,11,0.0,0.0,12.0,93.00003341222715,mgb_normalisation,93.00003341222715,90.34149293193902,2,2.0,True,1.0624306201934814
,2024-07-26 16:06:32,sub_119,3,distance,cathedral,spatial_unmasking,6,255,0,0,_eight_,talker-p248_sex-f_text-_eight_.wav,p248,f,5,46,12.0,7.0,RX81,6,0.0,0.0,7.0,80.34149293193903,babble-reversed_n13_p307-nine-p318-two-p256-one-p245-three-p268-four-p248-eight.wav,10,RX81,11,0.0,0.0,12.0,93.00003341222715,mgb_normalisation,93.00003341222715,90.34149293193902,8,4.0,False,1.8748664855957031
,2024-07-26 16:06:36,sub_119,3,distance,cathedral,spatial_unmasking,6,256,0,0,_four_,talker-p248_sex-f_text-_four_.wav,p248,f,5,47,12.0,7.0,RX81,6,0.0,0.0,7.0,81.341492931939,babble-reversed_n13_p229-nine-p307-five-p256-two-p248-three-p245-one-p268-eight.wav,10,RX81,11,0.0,0.0,12.0,93.00003341222715,mgb_normalisation,93.00003341222715,90.34149293193902,4,4.0,True,1.7498855590820312
,2024-07-26 16:06:40,sub_119,3,distance,cathedral,spatial_unmasking,6,257,0,0,_nine_,talker-p248_sex-f_text-_nine_.wav,p248,f,5,48,12.0,7.0,RX81,6,0.0,0.0,7.0,81.34149293193902,babble-reversed_n13_p307-two-p256-four-p318-three-p284-eight-p248-five-p245-nine.wav,10,RX81,11,0.0,0.0,12.0,93.00003341222718,mgb_normalisation,93.00003341222715,90.34149293193902,9,4.0,False,1.562397003173828
,2024-07-26 16:06:44,sub_119,3,distance,cathedral,spatial_unmasking,6,258,0,0,_three_,talker-p248_sex-f_text-_three_.wav,p248,f,5,49,12.0,7.0,RX81,6,0.0,0.0,7.0,82.34149293193902,babble-reversed_n13_p307-nine-p229-one-p256-eight-p248-four-p284-two-p268-three.wav,10,RX81,11,0.0,0.0,12.0,93.00003341222718,mgb_normalisation,93.00003341222715,90.34149293193902,3,3.0,True,1.624894380569458
