,event_id,subject_id,timestamp,session_index,plane,setup,task,block,trial_index,stim_number,stim_type,stim_country_ids,stim_sexes,stim_talker_ids,speaker_ids,stim_level,resp_number,is_correct,speaker_distance_mean,speaker_distance_st_dev,reaction_time,spectral_coverage
0,,sub_102,2024-07-09 09:11:02,3,distance,cathedral,numerosity_judgement,1,0,6,countries_forward,"['_Peru_', '_Japan_', '_Tonga_', '_Belgium_', '_Yemen_', '_Sudan_']","['m', 'f', 'm', 'f', 'f', 'f']","['p256', 'p248', 'p307', 'p268', 'p245', 'p284']","[1, 3, 4, 8, 0, 10]","[86.2038576498559, 89.14911522239515, 89.31368318402099, 92.0152836843556, 84.40078082039426, 93.00003341222717]",2.0,False,6.333333333333333,3.9327683210007,3.624753713607788,0.9537509930768358
0,,sub_102,2024-07-09 09:11:06,3,distance,cathedral,numerosity_judgement,1,1,2,countries_forward,"['_Oman_', '_Yemen_']","['m', 'm']","['p307', 'p229']","[5, 3]","[90.34149293193902, 89.14911522239515]",2.0,True,6.0,1.4142135623730951,3.3122730255126953,0.6022471910112359
0,,sub_102,2024-07-09 09:11:11,3,distance,cathedral,numerosity_judgement,1,2,5,countries_forward,"['_Sudan_', '_Tonga_', '_Peru_', '_Mali_', '_Britain_']","['f', 'f', 'm', 'f', 'm']","['p284', 'p248', 'p318', 'p268', 'p229']","[3, 9, 5, 2, 10]","[89.14911522239515, 92.00610777531934, 90.34149293193902, 87.57049330475357, 93.00003341222717]",3.0,False,7.8,3.5637059362410923,2.874803304672241,0.9159119282714788
0,,sub_102,2024-07-09 09:11:15,3,distance,cathedral,numerosity_judgement,1,3,4,countries_forward,"['_Oman_', '_Sudan_', '_Tonga_', '_Japan_']","['m', 'f', 'f', 'f']","['p229', 'p248', 'p268', 'p284']","[0, 7, 4, 5]","[84.40078082039426, 91.73820004985969, 89.31368318402099, 90.34149293193902]",2.0,False,6.0,2.943920288775949,1.8123114109039307,0.9041311996368177
0,,sub_102,2024-07-09 09:11:18,3,distance,cathedral,numerosity_judgement,1,4,3,countries_forward,"['_Syria_', '_Oman_', '_Belgium_']","['m', 'm', 'm']","['p256', 'p318', 'p229']","[2, 0, 10]","[87.57049330475357, 84.40078082039426, 93.00003341222717]",2.0,False,6.0,5.291502622129181,1.124922275543213,0.911077062762456
0,,sub_102,2024-07-09 09:11:22,3,distance,cathedral,numerosity_judgement,1,5,6,countries_forward,"['_Cuba_', '_Peru_', '_Tonga_', '_Yemen_', '_Mali_', '_Oman_']","['f', 'f', 'm', 'f', 'm', 'f']","['p284', 'p245', 'p229', 'p248', 'p307', 'p268']","[0, 8, 10, 3, 6, 9]","[84.40078082039426, 92.0152836843556, 93.00003341222717, 89.14911522239515, 91.58892582949886, 92.00610777531934]",3.0,False,8.0,3.847076812334269,2.2498459815979004,0.7394393371921462
0,,sub_102,2024-07-09 09:11:25,3,distance,cathedral,numerosity_judgement,1,6,3,countries_forward,"['_Congo_', '_Belgium_', '_Oman_']","['m', 'm', 'f']","['p307', 'p256', 'p248']","[2, 3, 6]","[87.57049330475357, 89.14911522239515, 91.58892582949886]",2.0,False,5.666666666666667,2.0816659994661326,1.6874353885650635,0.8155373964362729
0,,sub_102,2024-07-09 09:11:30,3,distance,cathedral,numerosity_judgement,1,7,4,countries_forward,"['_Oman_', '_Peru_', '_Britain_', '_Cuba_']","['f', 'm', 'm', 'f']","['p248', 'p307', 'p318', 'p268']","[7, 5, 10, 3]","[91.73820004985969, 90.34149293193902, 93.00003341222717, 89.14911522239515]",2.0,False,8.25,2.9860788111948193,3.1247265338897705,0.6691067983202814
0,,sub_102,2024-07-09 09:11:35,3,distance,cathedral,numerosity_judgement,1,8,5,countries_forward,"['_Belgium_', '_Cuba_', '_Togo_', '_Sudan_', '_Yemen_']","['m', 'm', 'm', 'f', 'f']","['p256', 'p307', 'p318', 'p268', 'p284']","[5, 6, 4, 10, 7]","[90.34149293193902, 91.58892582949886, 89.31368318402099, 93.00003341222717, 91.73820004985969]",3.0,False,8.4,2.3021728866442674,2.6248209476470947,0.905833617069572
0,,sub_102,2024-07-09 09:11:38,3,distance,cathedral,numerosity_judgement,1,9,2,countries_forward,"['_Japan_', '_Tonga_']","['f', 'm']","['p248', 'p307']","[10, 6]","[93.00003341222717, 91.58892582949886]",2.0,True,10.0,2.8284271247461903,1.4998984336853027,0.8752468505277494
0,,sub_102,2024-07-09 09:11:42,3,distance,cathedral,numerosity_judgement,1,10,4,countries_forward,"['_Mali_', '_Belgium_', '_Japan_', '_Peru_']","['f', 'f', 'm', 'm']","['p268', 'p284', 'p229', 'p318']","[4, 8, 5, 2]","[89.31368318402099, 92.0152836843556, 90.34149293193902, 87.57049330475357]",3.0,False,6.75,2.5,2.9373273849487305,0.939076154806492
0,,sub_102,2024-07-09 09:11:46,3,distance,cathedral,numerosity_judgement,1,11,3,countries_forward,"['_Belgium_', '_Yemen_', '_Peru_']","['f', 'f', 'm']","['p245', 'p268', 'p307']","[2, 9, 1]","[87.57049330475357, 92.00610777531934, 86.2038576498559]",2.0,False,6.0,4.358898943540674,1.9998631477355957,0.8427533764612416
0,,sub_102,2024-07-09 09:11:50,3,distance,cathedral,numerosity_judgement,1,12,6,countries_forward,"['_Peru_', '_Japan_', '_Britain_', '_Oman_', '_Sudan_', '_Yemen_']","['m', 'f', 'f', 'm', 'm', 'm']","['p318', 'p245', 'p268', 'p229', 'p256', 'p307']","[0, 5, 10, 1, 9, 3]","[84.40078082039426, 90.34149293193902, 93.00003341222717, 86.2038576498559, 92.00610777531934, 89.14911522239515]",3.0,False,6.666666666666667,4.131182235954578,2.249819278717041,0.7944501191692203
0,,sub_102,2024-07-09 09:11:54,3,distance,cathedral,numerosity_judgement,1,13,5,countries_forward,"['_Britain_', '_Cuba_', '_Tonga_', '_Peru_', '_Mali_']","['f', 'm', 'm', 'm', 'm']","['p245', 'p307', 'p229', 'p318', 'p256']","[3, 7, 2, 6, 4]","[89.14911522239515, 91.73820004985969, 87.57049330475357, 91.58892582949886, 89.31368318402099]",2.0,False,6.4,2.073644135332772,1.9373681545257568,0.7112132561570764
0,,sub_102,2024-07-09 09:11:57,3,distance,cathedral,numerosity_judgement,1,14,2,countries_forward,"['_Mali_', '_Oman_']","['m', 'f']","['p318', 'p284']","[7, 9]","[91.73820004985969, 92.00610777531934]",2.0,True,10.0,1.4142135623730951,1.4374008178710938,0.8031210986267167
0,,sub_102,2024-07-09 09:12:01,3,distance,cathedral,numerosity_judgement,1,15,3,countries_forward,"['_Peru_', '_Congo_', '_Yemen_']","['m', 'f', 'f']","['p256', 'p245', 'p284']","[7, 6, 4]","[91.73820004985969, 91.58892582949886, 89.31368318402099]",2.0,False,7.666666666666667,1.5275252316519465,2.5623250007629395,0.7890477811826127
0,,sub_102,2024-07-09 09:12:05,3,distance,cathedral,numerosity_judgement,1,16,6,countries_forward,"['_Syria_', '_Tonga_', '_Sudan_', '_Cuba_', '_Yemen_', '_Britain_']","['m', 'f', 'f', 'f', 'm', 'm']","['p256', 'p268', 'p284', 'p248', 'p229', 'p318']","[6, 0, 9, 3, 2, 4]","[91.58892582949886, 84.40078082039426, 92.00610777531934, 89.14911522239515, 87.57049330475357, 89.31368318402099]",3.0,False,6.0,3.1622776601683795,1.6249194145202637,0.9358756100329134
0,,sub_102,2024-07-09 09:12:08,3,distance,cathedral,numerosity_judgement,1,17,2,countries_forward,"['_Oman_', '_Yemen_']","['m', 'm']","['p229', 'p256']","[3, 6]","[89.14911522239515, 91.58892582949886]",2.0,True,6.5,2.1213203435596424,1.749880313873291,0.5410623084780388
0,,sub_102,2024-07-09 09:12:13,3,distance,cathedral,numerosity_judgement,1,18,4,countries_forward,"['_Sudan_', '_Tonga_', '_Congo_', '_Syria_']","['f', 'f', 'm', 'f']","['p268', 'p248', 'p318', 'p284']","[8, 1, 4, 9]","[92.0152836843556, 86.2038576498559, 89.31368318402099, 92.00610777531934]",3.0,False,7.5,3.696845502136472,3.6247522830963135,0.9556009533537624
0,,sub_102,2024-07-09 09:12:17,3,distance,cathedral,numerosity_judgement,1,19,5,countries_forward,"['_Tonga_', '_Sudan_', '_Yemen_', '_Congo_', '_Cuba_']","['f', 'f', 'm', 'm', 'm']","['p268', 'p245', 'p256', 'p229', 'p307']","[2, 6, 3, 0, 5]","[87.57049330475357, 91.58892582949886, 89.14911522239515, 84.40078082039426, 90.34149293193902]",3.0,False,5.2,2.3874672772626644,2.0623583793640137,0.8291226875496538
0,,sub_102,2024-07-09 09:12:20,3,distance,cathedral,numerosity_judgement,1,20,3,countries_forward,"['_Yemen_', '_Oman_', '_Britain_']","['f', 'm', 'm']","['p248', 'p229', 'p307']","[10, 3, 6]","[93.00003341222717, 89.14911522239515, 91.58892582949886]",2.0,False,8.333333333333334,3.511884584284246,1.374906063079834,0.6105209397344229
0,,sub_102,2024-07-09 09:12:26,3,distance,cathedral,numerosity_judgement,1,21,4,countries_forward,"['_Cuba_', '_Yemen_', '_Congo_', '_Oman_']","['m', 'f', 'f', 'f']","['p307', 'p268', 'p245', 'p248']","[7, 8, 4, 3]","[91.73820004985969, 92.0152836843556, 89.31368318402099, 89.14911522239515]",2.0,False,7.5,2.3804761428476167,4.1872148513793945,0.629043241402792
0,,sub_102,2024-07-09 09:12:30,3,distance,cathedral,numerosity_judgement,1,22,5,countries_forward,"['_Togo_', '_Cuba_', '_Peru_', '_Syria_', '_Yemen_']","['f', 'f', 'f', 'f', 'm']","['p245', 'p268', 'p248', 'p284', 'p307']","[7, 8, 6, 10, 9]","[91.73820004985969, 92.0152836843556, 91.58892582949886, 93.00003341222717, 92.00610777531934]",2.0,False,10.0,1.5811388300841898,1.68735671043396,0.8614232209737828
0,,sub_102,2024-07-09 09:12:33,3,distance,cathedral,numerosity_judgement,1,23,6,countries_forward,"['_Cuba_', '_Togo_', '_Syria_', '_Tonga_', '_Yemen_', '_Oman_']","['m', 'm', 'f', 'f', 'f', 'f']","['p307', 'p229', 'p248', 'p284', 'p245', 'p268']","[7, 0, 2, 9, 1, 6]","[91.73820004985969, 84.40078082039426, 87.57049330475357, 92.00610777531934, 86.2038576498559, 91.58892582949886]",2.0,False,6.166666666666667,3.65604522218567,1.5623931884765625,0.7772784019975031
0,,sub_102,2024-07-09 09:12:37,3,distance,cathedral,numerosity_judgement,1,24,2,countries_forward,"['_Cuba_', '_Congo_']","['f', 'm']","['p245', 'p229']","[1, 9]","[86.2038576498559, 92.00610777531934]",2.0,True,7.0,5.656854249492381,1.749882698059082,0.8585177618885484
0,,sub_102,2024-07-09 09:12:41,3,distance,cathedral,numerosity_judgement,1,25,5,countries_forward,"['_Britain_', '_Oman_', '_Peru_', '_Japan_', '_Congo_']","['m', 'm', 'm', 'm', 'f']","['p307', 'p229', 'p318', 'p256', 'p268']","[6, 9, 10, 3, 5]","[91.58892582949886, 92.00610777531934, 93.00003341222717, 89.14911522239515, 90.34149293193902]",3.0,False,8.6,2.8809720581775866,1.9998633861541748,0.7337532629667461
0,,sub_102,2024-07-09 09:12:45,3,distance,cathedral,numerosity_judgement,1,26,6,countries_forward,"['_Mali_', '_Oman_', '_Yemen_', '_Sudan_', '_Britain_', '_Tonga_']","['f', 'm', 'f', 'm', 'f', 'f']","['p248', 'p256', 'p245', 'p307', 'p284', 'p268']","[10, 5, 1, 6, 4, 9]","[93.00003341222717, 90.34149293193902, 86.2038576498559, 91.58892582949886, 89.31368318402099, 92.00610777531934]",4.0,False,7.833333333333333,3.3115957885386114,2.124882221221924,0.7629667461128136
0,,sub_102,2024-07-09 09:12:49,3,distance,cathedral,numerosity_judgement,1,27,4,countries_forward,"['_Yemen_', '_Belgium_', '_Britain_', '_Syria_']","['m', 'm', 'f', 'm']","['p318', 'p307', 'p245', 'p229']","[0, 10, 4, 3]","[84.40078082039426, 93.00003341222717, 89.31368318402099, 89.14911522239515]",2.0,False,6.25,4.193248541803041,2.4998292922973633,0.9207694926796052
0,,sub_102,2024-07-09 09:12:52,3,distance,cathedral,numerosity_judgement,1,28,2,countries_forward,"['_Britain_', '_Yemen_']","['f', 'f']","['p248', 'p268']","[5, 7]","[90.34149293193902, 91.73820004985969]",2.0,True,8.0,1.4142135623730951,1.2499146461486816,0.6717739189649302
0,,sub_102,2024-07-09 09:12:55,3,distance,cathedral,numerosity_judgement,1,29,3,countries_forward,"['_Sudan_', '_Yemen_', '_Mali_']","['m', 'f', 'm']","['p256', 'p245', 'p307']","[3, 8, 10]","[89.14911522239515, 92.0152836843556, 93.00003341222717]",3.0,True,9.0,3.605551275463989,2.0623867511749268,0.7184996027692657
0,,sub_102,2024-07-09 09:12:58,3,distance,cathedral,numerosity_judgement,1,30,2,countries_forward,"['_Britain_', '_Oman_']","['m', 'f']","['p307', 'p268']","[10, 7]","[93.00003341222717, 91.73820004985969]",2.0,True,10.5,2.1213203435596424,1.2499139308929443,0.6459085234366133
0,,sub_102,2024-07-09 09:13:02,3,distance,cathedral,numerosity_judgement,1,31,3,countries_forward,"['_Sudan_', '_Britain_', '_Mali_']","['f', 'm', 'm']","['p268', 'p229', 'p318']","[8, 1, 0]","[92.0152836843556, 86.2038576498559, 84.40078082039426]",2.0,False,5.0,4.358898943540674,1.8123767375946045,0.9614686187719896
0,,sub_102,2024-07-09 09:13:05,3,distance,cathedral,numerosity_judgement,1,32,6,countries_forward,"['_Sudan_', '_Peru_', '_Mali_', '_Oman_', '_Tonga_', '_Cuba_']","['m', 'm', 'f', 'm', 'f', 'f']","['p256', 'p229', 'p248', 'p307', 'p245', 'p268']","[4, 6, 5, 8, 7, 3]","[89.31368318402099, 91.58892582949886, 90.34149293193902, 92.0152836843556, 91.73820004985969, 89.14911522239515]",3.0,False,7.5,1.8708286933869707,1.374934196472168,0.7172625127681308
0,,sub_102,2024-07-09 09:13:08,3,distance,cathedral,numerosity_judgement,1,33,5,countries_forward,"['_Peru_', '_Tonga_', '_Yemen_', '_Britain_', '_Oman_']","['f', 'm', 'f', 'm', 'm']","['p245', 'p307', 'p284', 'p256', 'p318']","[6, 3, 10, 5, 9]","[91.58892582949886, 89.14911522239515, 93.00003341222717, 90.34149293193902, 92.00610777531934]",3.0,False,8.6,2.8809720581775866,1.4374017715454102,0.7926569061400522
0,,sub_102,2024-07-09 09:13:12,3,distance,cathedral,numerosity_judgement,1,34,4,countries_forward,"['_Mali_', '_Peru_', '_Japan_', '_Syria_']","['f', 'm', 'm', 'm']","['p284', 'p307', 'p229', 'p256']","[7, 8, 0, 6]","[91.73820004985969, 92.0152836843556, 84.40078082039426, 91.58892582949886]",3.0,False,7.25,3.593976442141304,1.9373681545257568,0.8679378050164567
0,,sub_102,2024-07-09 09:13:15,3,distance,cathedral,numerosity_judgement,1,35,2,countries_forward,"['_Sudan_', '_Syria_']","['f', 'f']","['p284', 'p245']","[10, 5]","[93.00003341222717, 90.34149293193902]",2.0,True,9.5,3.5355339059327378,1.4374017715454102,0.9289978436045851
0,,sub_102,2024-07-09 09:13:18,3,distance,cathedral,numerosity_judgement,1,36,3,countries_forward,"['_Britain_', '_Togo_', '_Congo_']","['f', 'm', 'm']","['p268', 'p256', 'p229']","[3, 8, 0]","[89.14911522239515, 92.0152836843556, 84.40078082039426]",2.0,False,5.666666666666667,4.041451884327381,1.5623936653137207,0.8855067529224833
0,,sub_102,2024-07-09 09:13:25,3,distance,cathedral,numerosity_judgement,1,37,6,countries_forward,"['_Yemen_', '_Oman_', '_Mali_', '_Congo_', '_Peru_', '_Sudan_']","['m', 'f', 'f', 'm', 'f', 'f']","['p318', 'p268', 'p284', 'p256', 'p248', 'p245']","[10, 0, 8, 4, 9, 7]","[93.00003341222717, 84.40078082039426, 92.0152836843556, 89.31368318402099, 92.00610777531934, 91.73820004985969]",2.0,False,8.333333333333334,3.723797345005051,4.999659061431885,0.8511746680286006
0,,sub_102,2024-07-09 09:13:29,3,distance,cathedral,numerosity_judgement,1,38,5,countries_forward,"['_Oman_', '_Peru_', '_Mali_', '_Yemen_', '_Belgium_']","['f', 'f', 'm', 'm', 'f']","['p248', 'p284', 'p307', 'p256', 'p268']","[6, 7, 5, 10, 8]","[91.58892582949886, 91.73820004985969, 90.34149293193902, 93.00003341222717, 92.0152836843556]",3.0,False,9.2,1.9235384061671346,2.06235933303833,0.6961298377028714
0,,sub_102,2024-07-09 09:13:34,3,distance,cathedral,numerosity_judgement,1,39,4,countries_forward,"['_Cuba_', '_Congo_', '_Tonga_', '_Peru_']","['m', 'm', 'f', 'f']","['p229', 'p318', 'p248', 'p245']","[9, 8, 5, 2]","[92.00610777531934, 92.0152836843556, 90.34149293193902, 87.57049330475357]",3.0,False,8.0,3.1622776601683795,2.999795436859131,0.8125070934059698
0,,sub_102,2024-07-09 09:13:37,3,distance,cathedral,numerosity_judgement,1,40,3,countries_forward,"['_Congo_', '_Peru_', '_Cuba_']","['m', 'f', 'm']","['p256', 'p284', 'p307']","[6, 2, 9]","[91.58892582949886, 87.57049330475357, 92.00610777531934]",2.0,False,7.666666666666667,3.5118845842842465,1.4998977184295654,0.7065826807399841
0,,sub_102,2024-07-09 09:13:41,3,distance,cathedral,numerosity_judgement,1,41,6,countries_forward,"['_Yemen_', '_Belgium_', '_Syria_', '_Congo_', '_Mali_', '_Togo_']","['m', 'm', 'f', 'f', 'm', 'f']","['p256', 'p307', 'p248', 'p268', 'p318', 'p245']","[3, 6, 8, 1, 2, 5]","[89.14911522239515, 91.58892582949886, 92.0152836843556, 86.2038576498559, 87.57049330475357, 90.34149293193902]",2.0,False,6.166666666666667,2.6394443859772205,1.687384843826294,0.9006242197253433
0,,sub_102,2024-07-09 09:13:44,3,distance,cathedral,numerosity_judgement,1,42,4,countries_forward,"['_Yemen_', '_Peru_', '_Congo_', '_Oman_']","['f', 'm', 'm', 'm']","['p245', 'p318', 'p307', 'p256']","[4, 8, 3, 10]","[89.31368318402099, 92.0152836843556, 89.14911522239515, 93.00003341222717]",2.0,False,8.25,3.304037933599835,1.562459945678711,0.6971399387129724
0,,sub_102,2024-07-09 09:13:49,3,distance,cathedral,numerosity_judgement,1,43,5,countries_forward,"['_Togo_', '_Mali_', '_Yemen_', '_Oman_', '_Britain_']","['f', 'm', 'm', 'm', 'f']","['p248', 'p307', 'p318', 'p229', 'p245']","[0, 6, 4, 5, 3]","[84.40078082039426, 91.58892582949886, 89.31368318402099, 90.34149293193902, 89.14911522239515]",3.0,False,5.6,2.3021728866442674,3.2497780323028564,0.7435705368289638
0,,sub_102,2024-07-09 09:13:54,3,distance,cathedral,numerosity_judgement,1,44,2,countries_forward,"['_Britain_', '_Oman_']","['m', 'm']","['p307', 'p229']","[3, 6]","[89.14911522239515, 91.58892582949886]",2.0,True,6.5,2.1213203435596424,3.374769926071167,0.5839972761321076
0,,sub_102,2024-07-09 09:13:57,3,distance,cathedral,numerosity_judgement,1,45,5,countries_forward,"['_Oman_', '_Mali_', '_Tonga_', '_Yemen_', '_Britain_']","['m', 'm', 'm', 'f', 'f']","['p318', 'p256', 'p229', 'p268', 'p245']","[3, 6, 2, 10, 0]","[89.14911522239515, 91.58892582949886, 87.57049330475357, 93.00003341222717, 84.40078082039426]",3.0,False,6.2,3.898717737923586,1.3749072551727295,0.769946657587107
0,,sub_102,2024-07-09 09:14:00,3,distance,cathedral,numerosity_judgement,1,46,2,countries_forward,"['_Belgium_', '_Sudan_']","['f', 'm']","['p284', 'p229']","[8, 7]","[92.0152836843556, 91.73820004985969]",2.0,True,9.5,0.7071067811865476,1.7498724460601807,0.9638179548291907
0,,sub_102,2024-07-09 09:14:04,3,distance,cathedral,numerosity_judgement,1,47,4,countries_forward,"['_Britain_', '_Congo_', '_Yemen_', '_Peru_']","['f', 'm', 'm', 'm']","['p248', 'p256', 'p229', 'p318']","[5, 10, 2, 3]","[90.34149293193902, 93.00003341222717, 87.57049330475357, 89.14911522239515]",2.0,False,7.0,3.559026084010437,1.7498807907104492,0.8217795936897061
0,,sub_102,2024-07-09 09:14:08,3,distance,cathedral,numerosity_judgement,1,48,6,countries_forward,"['_Britain_', '_Peru_', '_Yemen_', '_Sudan_', '_Mali_', '_Congo_']","['m', 'f', 'f', 'm', 'f', 'm']","['p318', 'p248', 'p284', 'p307', 'p245', 'p229']","[8, 2, 7, 3, 1, 9]","[92.0152836843556, 87.57049330475357, 91.73820004985969, 89.14911522239515, 86.2038576498559, 92.00610777531934]",3.0,False,7.0,3.40587727318528,1.8748719692230225,0.8691408466689365
0,,sub_102,2024-07-09 09:14:12,3,distance,cathedral,numerosity_judgement,1,49,3,countries_forward,"['_Yemen_', '_Belgium_', '_Cuba_']","['m', 'f', 'f']","['p256', 'p245', 'p248']","[5, 3, 8]","[90.34149293193902, 89.14911522239515, 92.0152836843556]",2.0,False,7.333333333333333,2.516611478423583,2.374837875366211,0.7643400295085688
0,,sub_102,2024-07-09 09:14:15,3,distance,cathedral,numerosity_judgement,1,50,4,countries_forward,"['_Britain_', '_Cuba_', '_Yemen_', '_Congo_']","['f', 'm', 'm', 'f']","['p245', 'p256', 'p307', 'p268']","[5, 7, 3, 6]","[90.34149293193902, 91.73820004985969, 89.14911522239515, 91.58892582949886]",2.0,False,7.25,1.707825127659933,1.5623924732208252,0.782930427874248
0,,sub_102,2024-07-09 09:14:19,3,distance,cathedral,numerosity_judgement,1,51,5,countries_forward,"['_Belgium_', '_Britain_', '_Peru_', '_Yemen_', '_Mali_']","['f', 'm', 'm', 'f', 'm']","['p268', 'p307', 'p256', 'p248', 'p318']","[8, 6, 1, 0, 10]","[92.0152836843556, 91.58892582949886, 86.2038576498559, 84.40078082039426, 93.00003341222717]",3.0,False,7.0,4.358898943540674,1.8748717308044434,0.8771762569515379
0,,sub_102,2024-07-09 09:14:23,3,distance,cathedral,numerosity_judgement,1,52,6,countries_forward,"['_Mali_', '_Syria_', '_Tonga_', '_Yemen_', '_Sudan_', '_Oman_']","['m', 'm', 'f', 'f', 'm', 'f']","['p256', 'p307', 'p284', 'p268', 'p318', 'p245']","[7, 5, 8, 10, 2, 6]","[91.73820004985969, 90.34149293193902, 92.0152836843556, 93.00003341222717, 87.57049330475357, 91.58892582949886]",4.0,False,8.333333333333334,2.7325202042558927,1.9998633861541748,0.8226308024060833
0,,sub_102,2024-07-09 09:14:27,3,distance,cathedral,numerosity_judgement,1,53,3,countries_forward,"['_Togo_', '_Peru_', '_Congo_']","['f', 'm', 'f']","['p248', 'p256', 'p284']","[3, 6, 7]","[89.14911522239515, 91.58892582949886, 91.73820004985969]",2.0,False,7.333333333333333,2.0816659994661326,2.06235933303833,0.859618658495063
0,,sub_102,2024-07-09 09:14:30,3,distance,cathedral,numerosity_judgement,1,54,2,countries_forward,"['_Yemen_', '_Togo_']","['f', 'm']","['p284', 'p307']","[8, 10]","[92.0152836843556, 93.00003341222717]",2.0,True,11.0,1.4142135623730951,1.5624110698699951,0.7542390194075588
0,,sub_102,2024-07-09 09:14:34,3,distance,cathedral,numerosity_judgement,1,55,6,countries_forward,"['_Cuba_', '_Peru_', '_Mali_', '_Sudan_', '_Congo_', '_Oman_']","['m', 'f', 'f', 'm', 'f', 'm']","['p307', 'p248', 'p268', 'p256', 'p245', 'p229']","[1, 9, 6, 2, 5, 10]","[86.2038576498559, 92.00610777531934, 91.58892582949886, 87.57049330475357, 90.34149293193902, 93.00003341222717]",3.0,False,7.5,3.6193922141707713,1.9373664855957031,0.8396209283849734
0,,sub_102,2024-07-09 09:14:37,3,distance,cathedral,numerosity_judgement,1,56,3,countries_forward,"['_Britain_', '_Oman_', '_Mali_']","['m', 'f', 'f']","['p307', 'p248', 'p268']","[3, 5, 4]","[89.14911522239515, 90.34149293193902, 89.31368318402099]",2.0,False,6.0,1.0,1.8123753070831299,0.6821359664056293
0,,sub_102,2024-07-09 09:14:41,3,distance,cathedral,numerosity_judgement,1,57,2,countries_forward,"['_Peru_', '_Cuba_']","['m', 'm']","['p256', 'p307']","[5, 9]","[90.34149293193902, 92.00610777531934]",2.0,True,9.0,2.8284271247461903,2.0623579025268555,0.7196345477244354
0,,sub_102,2024-07-09 09:14:44,3,distance,cathedral,numerosity_judgement,1,58,4,countries_forward,"['_Japan_', '_Britain_', '_Mali_', '_Cuba_']","['m', 'f', 'm', 'm']","['p307', 'p268', 'p318', 'p229']","[4, 10, 9, 2]","[89.31368318402099, 93.00003341222717, 92.00610777531934, 87.57049330475357]",3.0,False,8.25,3.8622100754188224,1.6873838901519775,0.8496311428895699
0,,sub_102,2024-07-09 09:14:48,3,distance,cathedral,numerosity_judgement,1,59,5,countries_forward,"['_Congo_', '_Tonga_', '_Japan_', '_Belgium_', '_Mali_']","['f', 'f', 'm', 'f', 'm']","['p245', 'p268', 'p318', 'p284', 'p256']","[5, 1, 4, 10, 0]","[90.34149293193902, 86.2038576498559, 89.31368318402099, 93.00003341222717, 84.40078082039426]",3.0,False,6.0,3.9370039370059056,2.4998292922973633,0.965497673362842
0,,sub_102,2024-07-09 09:14:51,3,distance,cathedral,numerosity_judgement,1,60,2,countries_forward,"['_Peru_', '_Sudan_']","['m', 'f']","['p318', 'p245']","[5, 8]","[90.34149293193902, 92.0152836843556]",2.0,True,8.5,2.1213203435596424,1.4374024868011475,0.9088412212007716
0,,sub_102,2024-07-09 09:14:56,3,distance,cathedral,numerosity_judgement,1,61,6,countries_forward,"['_Oman_', '_Belgium_', '_Japan_', '_Sudan_', '_Mali_', '_Peru_']","['f', 'm', 'f', 'f', 'm', 'm']","['p248', 'p229', 'p268', 'p284', 'p307', 'p256']","[3, 6, 1, 8, 4, 9]","[89.14911522239515, 91.58892582949886, 86.2038576498559, 92.0152836843556, 89.31368318402099, 92.00610777531934]",2.0,False,7.166666666666667,3.0605010483034745,2.99981427192688,0.9149018272613778
0,,sub_102,2024-07-09 09:14:59,3,distance,cathedral,numerosity_judgement,1,62,3,countries_forward,"['_Tonga_', '_Peru_', '_Yemen_']","['f', 'm', 'f']","['p245', 'p318', 'p268']","[5, 7, 6]","[90.34149293193902, 91.73820004985969, 91.58892582949886]",2.0,False,8.0,1.0,1.2499148845672607,0.6370332538871865
0,,sub_102,2024-07-09 09:15:03,3,distance,cathedral,numerosity_judgement,1,63,5,countries_forward,"['_Peru_', '_Japan_', '_Yemen_', '_Britain_', '_Sudan_']","['f', 'f', 'm', 'm', 'm']","['p284', 'p248', 'p256', 'p307', 'p229']","[8, 5, 10, 3, 6]","[92.0152836843556, 90.34149293193902, 93.00003341222717, 89.14911522239515, 91.58892582949886]",3.0,False,8.4,2.701851217221259,1.8123760223388672,0.8379298604017705
0,,sub_102,2024-07-09 09:15:06,3,distance,cathedral,numerosity_judgement,1,64,4,countries_forward,"['_Oman_', '_Britain_', '_Tonga_', '_Yemen_']","['m', 'f', 'f', 'f']","['p307', 'p268', 'p248', 'p284']","[5, 7, 3, 10]","[90.34149293193902, 91.73820004985969, 89.14911522239515, 93.00003341222717]",2.0,False,8.25,2.9860788111948193,1.8748722076416016,0.73331063443423
0,,sub_102,2024-07-09 09:15:12,3,distance,cathedral,numerosity_judgement,1,65,6,countries_forward,"['_Oman_', '_Cuba_', '_Mali_', '_Britain_', '_Togo_', '_Tonga_']","['m', 'm', 'm', 'f', 'm', 'f']","['p229', 'p318', 'p256', 'p248', 'p307', 'p245']","[10, 3, 4, 9, 8, 5]","[93.00003341222717, 89.14911522239515, 89.31368318402099, 92.00610777531934, 92.0152836843556, 90.34149293193902]",2.0,False,8.5,2.8809720581775866,3.3002431392669678,0.7045851776188855
0,,sub_102,2024-07-09 09:15:15,3,distance,cathedral,numerosity_judgement,1,66,2,countries_forward,"['_Sudan_', '_Oman_']","['m', 'f']","['p256', 'p284']","[5, 2]","[90.34149293193902, 87.57049330475357]",2.0,True,5.5,2.1213203435596424,1.6248888969421387,0.8128135285438656
0,,sub_102,2024-07-09 09:15:19,3,distance,cathedral,numerosity_judgement,1,67,4,countries_forward,"['_Oman_', '_Cuba_', '_Congo_', '_Sudan_']","['m', 'f', 'f', 'm']","['p307', 'p248', 'p284', 'p256']","[5, 0, 2, 3]","[90.34149293193902, 84.40078082039426, 87.57049330475357, 89.14911522239515]",3.0,False,4.5,2.0816659994661326,2.062359094619751,0.752695494268528
0,,sub_102,2024-07-09 09:15:24,3,distance,cathedral,numerosity_judgement,1,68,5,countries_forward,"['_Cuba_', '_Oman_', '_Yemen_', '_Sudan_', '_Tonga_']","['f', 'm', 'f', 'f', 'm']","['p245', 'p229', 'p268', 'p284', 'p318']","[4, 10, 5, 1, 2]","[89.31368318402099, 93.00003341222717, 90.34149293193902, 86.2038576498559, 87.57049330475357]",3.0,False,6.4,3.5071355833500366,3.249779224395752,0.8061627511065713
0,,sub_102,2024-07-09 09:15:28,3,distance,cathedral,numerosity_judgement,1,69,3,countries_forward,"['_Syria_', '_Mali_', '_Japan_']","['f', 'f', 'm']","['p245', 'p268', 'p307']","[4, 2, 5]","[89.31368318402099, 87.57049330475357, 90.34149293193902]",2.0,False,5.666666666666667,1.5275252316519465,2.749811887741089,0.9353875837021904
0,,sub_102,2024-07-09 09:15:31,3,distance,cathedral,numerosity_judgement,1,70,2,countries_forward,"['_Mali_', '_Cuba_']","['m', 'm']","['p229', 'p307']","[3, 5]","[89.14911522239515, 90.34149293193902]",2.0,True,6.0,1.4142135623730951,1.3749067783355713,0.6910452843037113
0,,sub_102,2024-07-09 09:15:35,3,distance,cathedral,numerosity_judgement,1,71,5,countries_forward,"['_Cuba_', '_Tonga_', '_Peru_', '_Britain_', '_Belgium_']","['m', 'f', 'm', 'm', 'f']","['p307', 'p268', 'p318', 'p229', 'p248']","[6, 9, 2, 0, 8]","[91.58892582949886, 92.00610777531934, 87.57049330475357, 84.40078082039426, 92.0152836843556]",3.0,False,7.0,3.872983346207417,1.9374213218688965,0.9339689025082284
0,,sub_102,2024-07-09 09:15:38,3,distance,cathedral,numerosity_judgement,1,72,4,countries_forward,"['_Peru_', '_Britain_', '_Togo_', '_Oman_']","['f', 'f', 'f', 'm']","['p284', 'p245', 'p268', 'p307']","[9, 0, 3, 6]","[92.00610777531934, 84.40078082039426, 89.14911522239515, 91.58892582949886]",2.0,False,6.5,3.872983346207417,1.6248891353607178,0.7148791283622744
0,,sub_102,2024-07-09 09:15:43,3,distance,cathedral,numerosity_judgement,1,73,6,countries_forward,"['_Peru_', '_Congo_', '_Togo_', '_Mali_', '_Cuba_', '_Belgium_']","['f', 'f', 'm', 'm', 'm', 'f']","['p268', 'p245', 'p229', 'p318', 'p256', 'p248']","[1, 4, 0, 7, 8, 5]","[86.2038576498559, 89.31368318402099, 84.40078082039426, 91.73820004985969, 92.0152836843556, 90.34149293193902]",4.0,False,6.166666666666667,3.188521078284832,2.374837636947632,0.8819770741119056
0,,sub_102,2024-07-09 09:15:46,3,distance,cathedral,numerosity_judgement,1,74,3,countries_forward,"['_Tonga_', '_Peru_', '_Togo_']","['f', 'f', 'm']","['p245', 'p268', 'p256']","[9, 6, 2]","[92.00610777531934, 91.58892582949886, 87.57049330475357]",2.0,False,7.666666666666667,3.5118845842842465,1.8123738765716553,0.7488139825218477
0,,sub_102,2024-07-09 09:18:04,3,distance,cathedral,numerosity_judgement,2,0,3,countries_forward,"['_Peru_', '_Britain_', '_Yemen_']","['f', 'm', 'm']","['p245', 'p256', 'p307']","[5, 1, 8]","[90.34149293193902, 86.2038576498559, 92.0152836843556]",2.0,False,6.666666666666667,3.5118845842842465,4.9371654987335205,0.6509136306889116
0,,sub_102,2024-07-09 09:18:07,3,distance,cathedral,numerosity_judgement,2,1,2,countries_forward,"['_Peru_', '_Tonga_']","['f', 'f']","['p268', 'p245']","[5, 4]","[90.34149293193902, 89.31368318402099]",2.0,True,6.5,0.7071067811865476,1.3749065399169922,0.6717171717171717
0,,sub_102,2024-07-09 09:18:11,3,distance,cathedral,numerosity_judgement,2,2,6,countries_forward,"['_Togo_', '_Peru_', '_Britain_', '_Japan_', '_Yemen_', '_Belgium_']","['m', 'f', 'f', 'm', 'm', 'm']","['p307', 'p268', 'p248', 'p256', 'p318', 'p229']","[2, 1, 10, 7, 9, 3]","[87.57049330475357, 86.2038576498559, 93.00003341222717, 91.73820004985969, 92.00610777531934, 89.14911522239515]",4.0,False,7.333333333333333,3.8297084310253524,1.8748719692230225,0.8361933946203609
0,,sub_102,2024-07-09 09:18:15,3,distance,cathedral,numerosity_judgement,2,3,4,countries_forward,"['_Cuba_', '_Yemen_', '_Congo_', '_Oman_']","['m', 'f', 'f', 'f']","['p307', 'p268', 'p245', 'p248']","[7, 8, 4, 3]","[91.73820004985969, 92.0152836843556, 89.31368318402099, 89.14911522239515]",3.0,False,7.5,2.3804761428476167,1.999863862991333,0.629043241402792
0,,sub_102,2024-07-09 09:18:21,3,distance,cathedral,numerosity_judgement,2,4,5,countries_forward,"['_Belgium_', '_Togo_', '_Tonga_', '_Cuba_', '_Sudan_']","['m', 'f', 'm', 'f', 'm']","['p307', 'p245', 'p318', 'p248', 'p229']","[3, 0, 8, 10, 6]","[89.14911522239515, 84.40078082039426, 92.0152836843556, 93.00003341222717, 91.58892582949886]",3.0,False,7.4,3.9749213828703582,3.749744415283203,0.8929860401770514
0,,sub_102,2024-07-09 09:18:23,3,distance,cathedral,numerosity_judgement,2,5,2,countries_forward,"['_Mali_', '_Tonga_']","['m', 'f']","['p318', 'p245']","[0, 4]","[84.40078082039426, 89.31368318402099]",2.0,True,4.0,2.8284271247461903,1.2499115467071533,0.7303370786516854
0,,sub_102,2024-07-09 09:18:27,3,distance,cathedral,numerosity_judgement,2,6,3,countries_forward,"['_Peru_', '_Oman_', '_Yemen_']","['m', 'm', 'f']","['p256', 'p318', 'p268']","[2, 9, 7]","[87.57049330475357, 92.00610777531934, 91.73820004985969]",3.0,True,8.0,3.605551275463989,1.687387228012085,0.7319033026898195
0,,sub_102,2024-07-09 09:18:31,3,distance,cathedral,numerosity_judgement,2,7,6,countries_forward,"['_Peru_', '_Mali_', '_Congo_', '_Togo_', '_Belgium_', '_Tonga_']","['f', 'm', 'm', 'f', 'f', 'm']","['p245', 'p256', 'p318', 'p268', 'p248', 'p307']","[3, 5, 6, 4, 9, 2]","[89.14911522239515, 90.34149293193902, 91.58892582949886, 89.31368318402099, 92.00610777531934, 87.57049330475357]",4.0,False,6.833333333333333,2.48327740429189,1.9373669624328613,0.8451594597662013
0,,sub_102,2024-07-09 09:18:36,3,distance,cathedral,numerosity_judgement,2,8,5,countries_forward,"['_Cuba_', '_Congo_', '_Tonga_', '_Oman_', '_Togo_']","['m', 'f', 'm', 'f', 'f']","['p307', 'p284', 'p318', 'p268', 'p248']","[3, 10, 7, 5, 2]","[89.14911522239515, 93.00003341222717, 91.73820004985969, 90.34149293193902, 87.57049330475357]",5.0,True,7.4,3.2093613071762426,3.124786376953125,0.7798887753943934
0,,sub_102,2024-07-09 09:18:40,3,distance,cathedral,numerosity_judgement,2,9,4,countries_forward,"['_Cuba_', '_Tonga_', '_Sudan_', '_Yemen_']","['m', 'f', 'm', 'm']","['p307', 'p268', 'p256', 'p229']","[9, 7, 0, 3]","[92.00610777531934, 91.73820004985969, 84.40078082039426, 89.14911522239515]",3.0,False,6.75,4.031128874149275,2.2498459815979004,0.7687209170355238
0,,sub_102,2024-07-09 09:18:44,3,distance,cathedral,numerosity_judgement,2,10,6,countries_forward,"['_Belgium_', '_Japan_', '_Britain_', '_Sudan_', '_Peru_', '_Yemen_']","['f', 'f', 'm', 'm', 'f', 'm']","['p284', 'p245', 'p229', 'p307', 'p268', 'p256']","[8, 4, 0, 6, 10, 7]","[92.0152836843556, 89.31368318402099, 84.40078082039426, 91.58892582949886, 93.00003341222717, 91.73820004985969]",4.0,False,7.833333333333333,3.488074922742725,2.1873486042022705,0.7515491998638066
0,,sub_102,2024-07-09 09:18:47,3,distance,cathedral,numerosity_judgement,2,11,2,countries_forward,"['_Oman_', '_Mali_']","['f', 'f']","['p245', 'p284']","[8, 6]","[92.0152836843556, 91.58892582949886]",2.0,True,9.0,1.4142135623730951,1.7498795986175537,0.8767449778685734
0,,sub_102,2024-07-09 09:18:51,3,distance,cathedral,numerosity_judgement,2,12,5,countries_forward,"['_Syria_', '_Mali_', '_Cuba_', '_Yemen_', '_Japan_']","['f', 'm', 'm', 'f', 'm']","['p245', 'p256', 'p229', 'p248', 'p307']","[4, 9, 10, 7, 2]","[89.31368318402099, 92.00610777531934, 93.00003341222717, 91.73820004985969, 87.57049330475357]",3.0,False,8.4,3.361547262794322,2.4998300075531006,0.8045511292702304
0,,sub_102,2024-07-09 09:18:55,3,distance,cathedral,numerosity_judgement,2,13,3,countries_forward,"['_Sudan_', '_Tonga_', '_Togo_']","['f', 'f', 'f']","['p284', 'p268', 'p248']","[8, 4, 6]","[92.0152836843556, 89.31368318402099, 91.58892582949886]",2.0,False,8.0,2.0,1.8123762607574463,0.9582226762002044
0,,sub_102,2024-07-09 09:18:59,3,distance,cathedral,numerosity_judgement,2,14,4,countries_forward,"['_Belgium_', '_Mali_', '_Togo_', '_Syria_']","['m', 'f', 'm', 'f']","['p307', 'p248', 'p318', 'p284']","[3, 1, 0, 7]","[89.14911522239515, 86.2038576498559, 84.40078082039426, 91.73820004985969]",2.0,False,4.75,3.095695936834452,2.7498128414154053,0.9542957666553172
0,,sub_102,2024-07-09 09:19:03,3,distance,cathedral,numerosity_judgement,2,15,3,countries_forward,"['_Togo_', '_Oman_', '_Mali_']","['m', 'm', 'm']","['p229', 'p307', 'p318']","[2, 3, 10]","[87.57049330475357, 89.14911522239515, 93.00003341222717]",2.0,False,7.0,4.358898943540674,1.8123762607574463,0.7989672000907956
0,,sub_102,2024-07-09 09:19:06,3,distance,cathedral,numerosity_judgement,2,16,2,countries_forward,"['_Oman_', '_Yemen_']","['m', 'm']","['p229', 'p256']","[3, 6]","[89.14911522239515, 91.58892582949886]",2.0,True,6.5,2.1213203435596424,1.624912977218628,0.5410623084780388
0,,sub_102,2024-07-09 09:19:10,3,distance,cathedral,numerosity_judgement,2,17,4,countries_forward,"['_Japan_', '_Yemen_', '_Peru_', '_Mali_']","['m', 'f', 'm', 'f']","['p229', 'p248', 'p307', 'p268']","[3, 5, 9, 10]","[89.14911522239515, 90.34149293193902, 92.00610777531934, 93.00003341222717]",3.0,False,8.75,3.304037933599835,2.249842405319214,0.7486210418794689
0,,sub_102,2024-07-09 09:19:13,3,distance,cathedral,numerosity_judgement,2,18,6,countries_forward,"['_Congo_', '_Britain_', '_Yemen_', '_Mali_', '_Peru_', '_Cuba_']","['f', 'f', 'm', 'm', 'f', 'm']","['p248', 'p245', 'p256', 'p318', 'p268', 'p307']","[8, 3, 5, 10, 0, 4]","[92.0152836843556, 89.14911522239515, 90.34149293193902, 93.00003341222717, 84.40078082039426, 89.31368318402099]",4.0,False,7.0,3.5777087639996634,1.3124096393585205,0.7447054817841334
0,,sub_102,2024-07-09 09:19:16,3,distance,cathedral,numerosity_judgement,2,19,5,countries_forward,"['_Sudan_', '_Belgium_', '_Congo_', '_Oman_', '_Cuba_']","['f', 'm', 'f', 'f', 'm']","['p245', 'p318', 'p284', 'p248', 'p307']","[5, 4, 3, 2, 7]","[90.34149293193902, 89.31368318402099, 89.14911522239515, 87.57049330475357, 91.73820004985969]",5.0,True,6.2,1.9235384061671346,1.5623908042907715,0.8876404494382022
0,,sub_102,2024-07-09 09:19:21,3,distance,cathedral,numerosity_judgement,2,20,6,countries_forward,"['_Sudan_', '_Japan_', '_Tonga_', '_Britain_', '_Belgium_', '_Syria_']","['m', 'f', 'm', 'm', 'f', 'f']","['p229', 'p245', 'p307', 'p318', 'p284', 'p248']","[5, 1, 8, 2, 9, 6]","[90.34149293193902, 86.2038576498559, 92.0152836843556, 87.57049330475357, 92.00610777531934, 91.58892582949886]",5.0,False,7.166666666666667,3.188521078284832,2.1873505115509033,0.953705595278629
0,,sub_102,2024-07-09 09:19:24,3,distance,cathedral,numerosity_judgement,2,21,5,countries_forward,"['_Japan_', '_Oman_', '_Belgium_', '_Congo_', '_Yemen_']","['m', 'm', 'm', 'f', 'f']","['p256', 'p307', 'p318', 'p268', 'p248']","[10, 6, 3, 7, 2]","[93.00003341222717, 91.58892582949886, 89.14911522239515, 91.73820004985969, 87.57049330475357]",4.0,False,7.6,3.2093613071762426,1.4998981952667236,0.8419702644421746
0,,sub_102,2024-07-09 09:19:27,3,distance,cathedral,numerosity_judgement,2,22,2,countries_forward,"['_Britain_', '_Oman_']","['m', 'm']","['p307', 'p229']","[3, 6]","[89.14911522239515, 91.58892582949886]",2.0,True,6.5,2.1213203435596424,1.4374020099639893,0.5839972761321076
0,,sub_102,2024-07-09 09:19:31,3,distance,cathedral,numerosity_judgement,2,23,3,countries_forward,"['_Mali_', '_Japan_', '_Britain_']","['f', 'm', 'f']","['p245', 'p318', 'p248']","[5, 7, 3]","[90.34149293193902, 91.73820004985969, 89.14911522239515]",3.0,True,7.0,2.0,2.1873509883880615,0.8339916014073318
0,,sub_102,2024-07-09 09:19:34,3,distance,cathedral,numerosity_judgement,2,24,4,countries_forward,"['_Peru_', '_Britain_', '_Togo_', '_Oman_']","['f', 'f', 'f', 'm']","['p284', 'p245', 'p268', 'p307']","[9, 0, 3, 6]","[92.00610777531934, 84.40078082039426, 89.14911522239515, 91.58892582949886]",2.0,False,6.5,3.872983346207417,1.499870777130127,0.7148791283622744
0,,sub_102,2024-07-09 09:19:38,3,distance,cathedral,numerosity_judgement,2,25,3,countries_forward,"['_Togo_', '_Oman_', '_Britain_']","['m', 'f', 'm']","['p318', 'p248', 'p256']","[3, 10, 1]","[89.14911522239515, 93.00003341222717, 86.2038576498559]",2.0,False,6.666666666666667,4.725815626252608,2.9372994899749756,0.7769265690614006
0,,sub_102,2024-07-09 09:19:42,3,distance,cathedral,numerosity_judgement,2,26,6,countries_forward,"['_Yemen_', '_Tonga_', '_Congo_', '_Cuba_', '_Peru_', '_Japan_']","['f', 'f', 'f', 'm', 'm', 'f']","['p284', 'p268', 'p245', 'p256', 'p307', 'p248']","[9, 4, 0, 10, 5, 3]","[92.00610777531934, 89.31368318402099, 84.40078082039426, 93.00003341222717, 90.34149293193902, 89.14911522239515]",4.0,False,7.166666666666667,3.763863263545405,1.749880313873291,0.8162751106571331
0,,sub_102,2024-07-09 09:19:46,3,distance,cathedral,numerosity_judgement,2,27,2,countries_forward,"['_Congo_', '_Yemen_']","['m', 'm']","['p229', 'p256']","[0, 7]","[84.40078082039426, 91.73820004985969]",2.0,True,5.5,4.949747468305833,2.062358856201172,0.6918851435705369
0,,sub_102,2024-07-09 09:19:49,3,distance,cathedral,numerosity_judgement,2,28,4,countries_forward,"['_Cuba_', '_Yemen_', '_Belgium_', '_Britain_']","['f', 'f', 'm', 'f']","['p268', 'p245', 'p256', 'p248']","[3, 4, 10, 6]","[89.14911522239515, 89.31368318402099, 93.00003341222717, 91.58892582949886]",3.0,False,7.75,3.095695936834452,1.4998986721038818,0.8073771422086029
0,,sub_102,2024-07-09 09:19:53,3,distance,cathedral,numerosity_judgement,2,29,5,countries_forward,"['_Tonga_', '_Japan_', '_Oman_', '_Mali_', '_Cuba_']","['f', 'm', 'm', 'f', 'm']","['p245', 'p229', 'p256', 'p248', 'p307']","[9, 10, 7, 8, 4]","[92.00610777531934, 93.00003341222717, 91.73820004985969, 92.0152836843556, 89.31368318402099]",4.0,False,9.6,2.3021728866442674,2.1873505115509033,0.7297582567245489
0,,sub_102,2024-07-09 09:19:57,3,distance,cathedral,numerosity_judgement,2,30,2,countries_forward,"['_Oman_', '_Britain_']","['f', 'f']","['p245', 'p284']","[10, 8]","[93.00003341222717, 92.0152836843556]",3.0,False,11.0,1.4142135623730951,2.0623254776000977,0.7569288389513109
0,,sub_102,2024-07-09 09:20:00,3,distance,cathedral,numerosity_judgement,2,31,5,countries_forward,"['_Cuba_', '_Sudan_', '_Mali_', '_Belgium_', '_Yemen_']","['f', 'm', 'f', 'm', 'm']","['p248', 'p229', 'p284', 'p318', 'p307']","[9, 4, 6, 10, 1]","[92.00610777531934, 89.31368318402099, 91.58892582949886, 93.00003341222717, 86.2038576498559]",4.0,False,8.0,3.6742346141747673,1.5623936653137207,0.932788559754852
0,,sub_102,2024-07-09 09:20:04,3,distance,cathedral,numerosity_judgement,2,32,4,countries_forward,"['_Peru_', '_Sudan_', '_Togo_', '_Yemen_']","['m', 'm', 'm', 'f']","['p307', 'p229', 'p256', 'p248']","[2, 4, 5, 3]","[87.57049330475357, 89.31368318402099, 90.34149293193902, 89.14911522239515]",3.0,False,5.5,1.2909944487358056,2.0622942447662354,0.8488934286687095
0,,sub_102,2024-07-09 09:20:07,3,distance,cathedral,numerosity_judgement,2,33,3,countries_forward,"['_Congo_', '_Oman_', '_Yemen_']","['f', 'm', 'f']","['p268', 'p307', 'p245']","[3, 4, 6]","[89.14911522239515, 89.31368318402099, 91.58892582949886]",2.0,False,6.333333333333333,1.5275252316519465,1.499898910522461,0.6248439450686641
0,,sub_102,2024-07-09 09:20:10,3,distance,cathedral,numerosity_judgement,2,34,6,countries_forward,"['_Yemen_', '_Tonga_', '_Mali_', '_Cuba_', '_Togo_', '_Congo_']","['m', 'f', 'f', 'm', 'm', 'f']","['p318', 'p268', 'p248', 'p307', 'p256', 'p245']","[5, 3, 10, 7, 2, 4]","[90.34149293193902, 89.14911522239515, 93.00003341222717, 91.73820004985969, 87.57049330475357, 89.31368318402099]",3.0,False,7.166666666666667,2.9268868558020253,1.4374017715454102,0.6946544092611509
0,,sub_102,2024-07-09 09:20:13,3,distance,cathedral,numerosity_judgement,2,35,2,countries_forward,"['_Mali_', '_Oman_']","['m', 'f']","['p318', 'p245']","[3, 4]","[89.14911522239515, 89.31368318402099]",2.0,True,5.5,0.7071067811865476,1.312410831451416,0.7885030076041312
0,,sub_102,2024-07-09 09:20:18,3,distance,cathedral,numerosity_judgement,2,36,4,countries_forward,"['_Britain_', '_Mali_', '_Syria_', '_Oman_']","['m', 'f', 'm', 'f']","['p229', 'p284', 'p256', 'p245']","[8, 3, 7, 4]","[92.0152836843556, 89.14911522239515, 91.73820004985969, 89.31368318402099]",4.0,True,7.5,2.3804761428476167,3.499760389328003,0.8611621836340937
0,,sub_102,2024-07-09 09:20:22,3,distance,cathedral,numerosity_judgement,2,37,5,countries_forward,"['_Yemen_', '_Cuba_', '_Tonga_', '_Oman_', '_Peru_']","['f', 'm', 'f', 'f', 'm']","['p284', 'p229', 'p248', 'p245', 'p307']","[7, 3, 5, 6, 2]","[91.73820004985969, 89.14911522239515, 90.34149293193902, 91.58892582949886, 87.57049330475357]",4.0,False,6.6,2.073644135332772,1.6248888969421387,0.6934740665077743
0,,sub_102,2024-07-09 09:20:25,3,distance,cathedral,numerosity_judgement,2,38,3,countries_forward,"['_Sudan_', '_Togo_', '_Japan_']","['f', 'f', 'f']","['p245', 'p268', 'p284']","[3, 7, 4]","[89.14911522239515, 91.73820004985969, 89.31368318402099]",3.0,True,6.666666666666667,2.0816659994661326,1.6248869895935059,0.926830098740211
0,,sub_102,2024-07-09 09:20:28,3,distance,cathedral,numerosity_judgement,2,39,6,countries_forward,"['_Tonga_', '_Cuba_', '_Sudan_', '_Japan_', '_Togo_', '_Peru_']","['f', 'm', 'f', 'f', 'm', 'f']","['p268', 'p256', 'p284', 'p248', 'p229', 'p245']","[9, 5, 6, 1, 2, 0]","[92.00610777531934, 90.34149293193902, 91.58892582949886, 86.2038576498559, 87.57049330475357, 84.40078082039426]",4.0,False,5.833333333333333,3.430257521916783,1.374906301498413,0.9089320167971854
0,,sub_102,2024-07-09 09:20:32,3,distance,cathedral,numerosity_judgement,2,40,3,countries_forward,"['_Yemen_', '_Togo_', '_Oman_']","['m', 'f', 'f']","['p229', 'p248', 'p245']","[4, 8, 5]","[89.31368318402099, 92.0152836843556, 90.34149293193902]",3.0,True,7.666666666666667,2.0816659994661326,1.5624091625213623,0.6936102599023948
0,,sub_102,2024-07-09 09:20:36,3,distance,cathedral,numerosity_judgement,2,41,5,countries_forward,"['_Togo_', '_Cuba_', '_Britain_', '_Japan_', '_Sudan_']","['f', 'm', 'f', 'f', 'm']","['p268', 'p256', 'p284', 'p248', 'p318']","[2, 7, 1, 0, 9]","[87.57049330475357, 91.73820004985969, 86.2038576498559, 84.40078082039426, 92.00610777531934]",3.0,False,5.8,3.96232255123179,2.687317132949829,0.9252865736011804
0,,sub_102,2024-07-09 09:20:41,3,distance,cathedral,numerosity_judgement,2,42,2,countries_forward,"['_Sudan_', '_Peru_']","['f', 'f']","['p245', 'p268']","[6, 9]","[91.58892582949886, 92.00610777531934]",3.0,False,9.5,2.1213203435596424,2.9372339248657227,0.9061854500056749
0,,sub_102,2024-07-09 09:20:44,3,distance,cathedral,numerosity_judgement,2,43,6,countries_forward,"['_Syria_', '_Cuba_', '_Congo_', '_Togo_', '_Peru_', '_Britain_']","['f', 'm', 'f', 'f', 'm', 'f']","['p268', 'p229', 'p284', 'p245', 'p318', 'p248']","[2, 4, 5, 3, 7, 1]","[87.57049330475357, 89.31368318402099, 90.34149293193902, 89.14911522239515, 91.73820004985969, 86.2038576498559]",4.0,False,5.666666666666667,2.160246899469287,1.4998970031738281,0.8902167744864374
0,,sub_102,2024-07-09 09:20:48,3,distance,cathedral,numerosity_judgement,2,44,4,countries_forward,"['_Cuba_', '_Japan_', '_Togo_', '_Syria_']","['m', 'm', 'f', 'f']","['p256', 'p229', 'p284', 'p268']","[3, 2, 4, 10]","[89.14911522239515, 87.57049330475357, 89.31368318402099, 93.00003341222717]",5.0,False,6.75,3.593976442141304,2.312342882156372,0.9358983089320168
0,,sub_102,2024-07-09 09:20:52,3,distance,cathedral,numerosity_judgement,2,45,6,countries_forward,"['_Cuba_', '_Oman_', '_Togo_', '_Yemen_', '_Britain_', '_Mali_']","['f', 'm', 'm', 'f', 'm', 'm']","['p268', 'p256', 'p318', 'p284', 'p229', 'p307']","[0, 3, 6, 1, 10, 5]","[84.40078082039426, 89.14911522239515, 91.58892582949886, 86.2038576498559, 93.00003341222717, 90.34149293193902]",5.0,False,6.166666666666667,3.65604522218567,1.437403678894043,0.7721371013505844
0,,sub_102,2024-07-09 09:20:55,3,distance,cathedral,numerosity_judgement,2,46,5,countries_forward,"['_Britain_', '_Cuba_', '_Tonga_', '_Peru_', '_Mali_']","['f', 'm', 'm', 'm', 'm']","['p245', 'p307', 'p229', 'p318', 'p256']","[3, 7, 2, 6, 4]","[89.14911522239515, 91.73820004985969, 87.57049330475357, 91.58892582949886, 89.31368318402099]",4.0,False,6.4,2.073644135332772,1.499896764755249,0.7112132561570764
0,,sub_102,2024-07-09 09:20:59,3,distance,cathedral,numerosity_judgement,2,47,4,countries_forward,"['_Britain_', '_Yemen_', '_Oman_', '_Togo_']","['m', 'f', 'm', 'f']","['p229', 'p248', 'p318', 'p245']","[0, 4, 3, 10]","[84.40078082039426, 89.31368318402099, 89.14911522239515, 93.00003341222717]",4.0,True,6.25,4.193248541803041,1.749880313873291,0.8181364203836113
0,,sub_102,2024-07-09 09:21:02,3,distance,cathedral,numerosity_judgement,2,48,2,countries_forward,"['_Sudan_', '_Britain_']","['f', 'm']","['p284', 'p307']","[9, 2]","[92.00610777531934, 87.57049330475357]",2.0,True,7.5,4.949747468305833,2.3123419284820557,0.9702644421745544
0,,sub_102,2024-07-09 09:21:06,3,distance,cathedral,numerosity_judgement,2,49,3,countries_forward,"['_Tonga_', '_Belgium_', '_Togo_']","['m', 'f', 'f']","['p229', 'p245', 'p284']","[10, 4, 2]","[93.00003341222717, 89.31368318402099, 87.57049330475357]",3.0,True,7.333333333333333,4.163331998932266,2.2498457431793213,0.8790602655771195
0,,sub_102,2024-07-09 09:21:11,3,distance,cathedral,numerosity_judgement,2,50,6,countries_forward,"['_Syria_', '_Sudan_', '_Peru_', '_Cuba_', '_Togo_', '_Tonga_']","['m', 'f', 'f', 'm', 'm', 'm']","['p318', 'p248', 'p268', 'p256', 'p229', 'p307']","[4, 2, 1, 10, 6, 0]","[89.31368318402099, 87.57049330475357, 86.2038576498559, 93.00003341222717, 91.58892582949886, 84.40078082039426]",3.0,False,5.833333333333333,3.7103458958251676,2.4998300075531006,0.7964703211894223
0,,sub_102,2024-07-09 09:21:14,3,distance,cathedral,numerosity_judgement,2,51,4,countries_forward,"['_Mali_', '_Belgium_', '_Togo_', '_Congo_']","['m', 'f', 'm', 'm']","['p229', 'p268', 'p256', 'p318']","[8, 0, 1, 10]","[92.0152836843556, 84.40078082039426, 86.2038576498559, 93.00003341222717]",3.0,False,6.75,4.9916597106239795,1.8748714923858643,0.8916581545795029
0,,sub_102,2024-07-09 09:21:18,3,distance,cathedral,numerosity_judgement,2,52,3,countries_forward,"['_Congo_', '_Mali_', '_Sudan_']","['f', 'm', 'm']","['p245', 'p318', 'p229']","[5, 0, 1]","[90.34149293193902, 84.40078082039426, 86.2038576498559]",2.0,False,4.0,2.6457513110645907,1.749880313873291,0.9355351265463624
0,,sub_102,2024-07-09 09:21:22,3,distance,cathedral,numerosity_judgement,2,53,5,countries_forward,"['_Peru_', '_Cuba_', '_Oman_', '_Tonga_', '_Yemen_']","['m', 'm', 'f', 'f', 'f']","['p256', 'p307', 'p268', 'p284', 'p248']","[5, 10, 2, 8, 4]","[90.34149293193902, 93.00003341222717, 87.57049330475357, 92.0152836843556, 89.31368318402099]",4.0,False,7.8,3.1937438845342623,1.9998643398284912,0.7737714220860288
0,,sub_102,2024-07-09 09:21:24,3,distance,cathedral,numerosity_judgement,2,54,2,countries_forward,"['_Oman_', '_Peru_']","['m', 'f']","['p307', 'p245']","[7, 6]","[91.73820004985969, 91.58892582949886]",2.0,True,8.5,0.7071067811865476,1.3748786449432373,0.6476336397684712
0,,sub_102,2024-07-09 09:21:28,3,distance,cathedral,numerosity_judgement,2,55,4,countries_forward,"['_Yemen_', '_Cuba_', '_Peru_', '_Mali_']","['f', 'f', 'm', 'm']","['p245', 'p268', 'p256', 'p229']","[2, 1, 9, 3]","[87.57049330475357, 86.2038576498559, 92.00610777531934, 89.14911522239515]",3.0,False,5.75,3.593976442141304,2.37483811378479,0.7291340369992055
0,,sub_102,2024-07-09 09:21:31,3,distance,cathedral,numerosity_judgement,2,56,2,countries_forward,"['_Tonga_', '_Yemen_']","['m', 'f']","['p256', 'p248']","[1, 4]","[86.2038576498559, 89.31368318402099]",2.0,True,4.5,2.1213203435596424,1.4373750686645508,0.838849165815458
0,,sub_102,2024-07-09 09:21:34,3,distance,cathedral,numerosity_judgement,2,57,3,countries_forward,"['_Congo_', '_Togo_', '_Oman_']","['f', 'm', 'f']","['p248', 'p229', 'p268']","[5, 3, 1]","[90.34149293193902, 89.14911522239515, 86.2038576498559]",3.0,True,5.0,2.0,1.4374017715454102,0.8824310520939734
0,,sub_102,2024-07-09 09:21:38,3,distance,cathedral,numerosity_judgement,2,58,5,countries_forward,"['_Yemen_', '_Togo_', '_Cuba_', '_Sudan_', '_Mali_']","['f', 'm', 'm', 'm', 'm']","['p268', 'p229', 'p318', 'p256', 'p307']","[8, 1, 0, 2, 7]","[92.0152836843556, 86.2038576498559, 84.40078082039426, 87.57049330475357, 91.73820004985969]",3.0,False,5.6,3.6469165057620936,2.062359571456909,0.8162183634093746
0,,sub_102,2024-07-09 09:21:42,3,distance,cathedral,numerosity_judgement,2,59,6,countries_forward,"['_Belgium_', '_Togo_', '_Britain_', '_Peru_', '_Sudan_', '_Oman_']","['f', 'm', 'm', 'm', 'f', 'f']","['p248', 'p318', 'p229', 'p256', 'p245', 'p268']","[5, 2, 0, 7, 1, 10]","[90.34149293193902, 87.57049330475357, 84.40078082039426, 91.73820004985969, 86.2038576498559, 93.00003341222717]",4.0,False,6.166666666666667,3.8686776379877745,1.8748717308044434,0.931290432414028
0,,sub_102,2024-07-09 09:21:48,3,distance,cathedral,numerosity_judgement,2,60,4,countries_forward,"['_Yemen_', '_Peru_', '_Cuba_', '_Britain_']","['m', 'm', 'm', 'f']","['p256', 'p229', 'p307', 'p248']","[9, 1, 7, 8]","[92.00610777531934, 86.2038576498559, 91.73820004985969, 92.0152836843556]",3.0,False,8.25,3.593976442141304,3.812232732772827,0.6815457950289411
0,,sub_102,2024-07-09 09:21:51,3,distance,cathedral,numerosity_judgement,2,61,3,countries_forward,"['_Yemen_', '_Oman_', '_Britain_']","['m', 'm', 'f']","['p229', 'p307', 'p245']","[3, 8, 7]","[89.14911522239515, 92.0152836843556, 91.73820004985969]",2.0,False,8.0,2.6457513110645907,1.4374029636383057,0.6654295766655317
0,,sub_102,2024-07-09 09:21:54,3,distance,cathedral,numerosity_judgement,2,62,2,countries_forward,"['_Congo_', '_Yemen_']","['m', 'f']","['p256', 'p245']","[8, 3]","[92.0152836843556, 89.14911522239515]",2.0,True,7.5,3.5355339059327378,1.5623929500579834,0.6093632958801498
0,,sub_102,2024-07-09 09:22:00,3,distance,cathedral,numerosity_judgement,2,63,6,countries_forward,"['_Belgium_', '_Mali_', '_Britain_', '_Togo_', '_Tonga_', '_Syria_']","['f', 'm', 'm', 'm', 'f', 'f']","['p284', 'p318', 'p307', 'p229', 'p248', 'p268']","[5, 2, 1, 8, 0, 6]","[90.34149293193902, 87.57049330475357, 86.2038576498559, 92.0152836843556, 84.40078082039426, 91.58892582949886]",3.0,False,5.666666666666667,3.141125063837266,3.8747355937957764,0.9498921802292588
0,,sub_102,2024-07-09 09:22:04,3,distance,cathedral,numerosity_judgement,2,64,5,countries_forward,"['_Peru_', '_Congo_', '_Yemen_', '_Oman_', '_Cuba_']","['f', 'm', 'f', 'm', 'm']","['p245', 'p229', 'p248', 'p256', 'p318']","[8, 9, 5, 0, 1]","[92.0152836843556, 92.00610777531934, 90.34149293193902, 84.40078082039426, 86.2038576498559]",3.0,False,6.6,4.03732584763727,2.1248552799224854,0.7525479514243559
0,,sub_102,2024-07-09 09:22:07,3,distance,cathedral,numerosity_judgement,2,65,6,countries_forward,"['_Cuba_', '_Peru_', '_Tonga_', '_Oman_', '_Togo_', '_Yemen_']","['m', 'f', 'f', 'f', 'm', 'f']","['p307', 'p268', 'p245', 'p248', 'p229', 'p284']","[3, 8, 10, 6, 7, 2]","[89.14911522239515, 92.0152836843556, 93.00003341222717, 91.58892582949886, 91.73820004985969, 87.57049330475357]",4.0,False,8.0,3.03315017762062,1.687384843826294,0.718374758824197
0,,sub_102,2024-07-09 09:22:10,3,distance,cathedral,numerosity_judgement,2,66,2,countries_forward,"['_Syria_', '_Tonga_']","['m', 'm']","['p229', 'p256']","[1, 2]","[86.2038576498559, 87.57049330475357]",2.0,True,3.5,0.7071067811865476,1.4998810291290283,0.9490750198615368
0,,sub_102,2024-07-09 09:22:13,3,distance,cathedral,numerosity_judgement,2,67,3,countries_forward,"['_Peru_', '_Cuba_', '_Yemen_']","['f', 'm', 'm']","['p245', 'p229', 'p307']","[0, 9, 1]","[84.40078082039426, 92.00610777531934, 86.2038576498559]",2.0,False,5.333333333333333,4.932882862316247,1.2499139308929443,0.8216887980932924
0,,sub_102,2024-07-09 09:22:17,3,distance,cathedral,numerosity_judgement,2,68,4,countries_forward,"['_Oman_', '_Peru_', '_Britain_', '_Cuba_']","['f', 'm', 'm', 'f']","['p248', 'p307', 'p318', 'p268']","[7, 5, 10, 3]","[91.73820004985969, 90.34149293193902, 93.00003341222717, 89.14911522239515]",3.0,False,8.25,2.9860788111948193,1.6873846054077148,0.6691067983202814
0,,sub_102,2024-07-09 09:22:21,3,distance,cathedral,numerosity_judgement,2,69,5,countries_forward,"['_Cuba_', '_Mali_', '_Congo_', '_Peru_', '_Sudan_']","['m', 'f', 'm', 'f', 'm']","['p256', 'p284', 'p318', 'p245', 'p229']","[1, 4, 6, 2, 9]","[86.2038576498559, 89.31368318402099, 91.58892582949886, 87.57049330475357, 92.00610777531934]",3.0,False,6.4,3.2093613071762426,2.3123421669006348,0.9558506412438996
0,,sub_102,2024-07-09 09:22:24,3,distance,cathedral,numerosity_judgement,2,70,4,countries_forward,"['_Peru_', '_Tonga_', '_Congo_', '_Syria_']","['f', 'f', 'f', 'm']","['p268', 'p284', 'p248', 'p307']","[6, 0, 3, 2]","[91.58892582949886, 84.40078082039426, 89.14911522239515, 87.57049330475357]",3.0,False,4.75,2.5,1.4998972415924072,0.9106911814776985
0,,sub_102,2024-07-09 09:22:27,3,distance,cathedral,numerosity_judgement,2,71,6,countries_forward,"['_Togo_', '_Cuba_', '_Tonga_', '_Oman_', '_Belgium_', '_Japan_']","['f', 'f', 'f', 'f', 'm', 'm']","['p284', 'p248', 'p245', 'p268', 'p307', 'p318']","[4, 6, 3, 9, 1, 7]","[89.31368318402099, 91.58892582949886, 89.14911522239515, 92.00610777531934, 86.2038576498559, 91.73820004985969]",4.0,False,7.0,2.898275349237888,1.4373376369476318,0.864374077857224
0,,sub_102,2024-07-09 09:22:31,3,distance,cathedral,numerosity_judgement,2,72,3,countries_forward,"['_Cuba_', '_Yemen_', '_Togo_']","['f', 'm', 'f']","['p248', 'p307', 'p245']","[10, 8, 1]","[93.00003341222717, 92.0152836843556, 86.2038576498559]",3.0,True,8.333333333333334,4.725815626252608,2.1873509883880615,0.74214050618545
0,,sub_102,2024-07-09 09:22:34,3,distance,cathedral,numerosity_judgement,2,73,5,countries_forward,"['_Congo_', '_Mali_', '_Tonga_', '_Togo_', '_Belgium_']","['m', 'f', 'f', 'm', 'm']","['p256', 'p284', 'p268', 'p307', 'p229']","[0, 5, 9, 4, 6]","[84.40078082039426, 90.34149293193902, 92.00610777531934, 89.31368318402099, 91.58892582949886]",3.0,False,6.8,3.271085446759225,1.3124101161956787,0.8575417092271025
0,,sub_102,2024-07-09 09:22:37,3,distance,cathedral,numerosity_judgement,2,74,2,countries_forward,"['_Peru_', '_Sudan_']","['m', 'm']","['p318', 'p256']","[8, 6]","[92.0152836843556, 91.58892582949886]",2.0,True,9.0,1.4142135623730951,1.4998970031738281,0.8057768698218136
0,,sub_102,2024-07-09 09:24:11,3,distance,cathedral,numerosity_judgement,3,0,2,countries_reversed,"['_Oman_reversed', '_Yemen_reversed']","['m', 'f']","['p256', 'p248']","[10, 6]","[93.00003341222717, 91.58892582949886]",2.0,True,10.0,2.8284271247461903,2.812267541885376,0.6849279309953468
0,,sub_102,2024-07-09 09:24:14,3,distance,cathedral,numerosity_judgement,3,1,3,countries_reversed,"['_Britain_reversed', '_Oman_reversed', '_Peru_reversed']","['m', 'm', 'f']","['p256', 'p307', 'p245']","[10, 0, 3]","[93.00003341222717, 84.40078082039426, 89.14911522239515]",2.0,False,6.333333333333333,5.131601439446884,1.5623929500579834,0.6667234139144251
0,,sub_102,2024-07-09 09:24:17,3,distance,cathedral,numerosity_judgement,3,2,6,countries_reversed,"['_Peru_reversed', '_Cuba_reversed', '_Syria_reversed', '_Congo_reversed', '_Mali_reversed', '_Japan_reversed']","['f', 'm', 'm', 'f', 'm', 'f']","['p284', 'p229', 'p256', 'p268', 'p318', 'p248']","[8, 3, 10, 7, 2, 5]","[92.0152836843556, 89.14911522239515, 93.00003341222717, 91.73820004985969, 87.57049330475357, 90.34149293193902]",4.0,False,7.833333333333333,3.0605010483034745,1.5623912811279297,0.7366814209510839
0,,sub_102,2024-07-09 09:24:19,3,distance,cathedral,numerosity_judgement,3,3,4,countries_reversed,"['_Japan_reversed', '_Britain_reversed', '_Togo_reversed', '_Tonga_reversed']","['f', 'f', 'f', 'f']","['p284', 'p268', 'p245', 'p248']","[3, 2, 0, 4]","[89.14911522239515, 87.57049330475357, 84.40078082039426, 89.31368318402099]",3.0,False,4.25,1.707825127659933,1.4998972415924072,0.9288276018613096
0,,sub_102,2024-07-09 09:24:22,3,distance,cathedral,numerosity_judgement,3,4,5,countries_reversed,"['_Yemen_reversed', '_Britain_reversed', '_Cuba_reversed', '_Oman_reversed', '_Togo_reversed']","['f', 'f', 'f', 'm', 'f']","['p245', 'p284', 'p268', 'p318', 'p248']","[0, 6, 5, 9, 7]","[84.40078082039426, 91.58892582949886, 90.34149293193902, 92.00610777531934, 91.73820004985969]",4.0,False,7.4,3.361547262794322,1.7498764991760254,0.8335035750766088
0,,sub_102,2024-07-09 09:24:26,3,distance,cathedral,numerosity_judgement,3,5,6,countries_reversed,"['_Togo_reversed', '_Yemen_reversed', '_Congo_reversed', '_Oman_reversed', '_Mali_reversed', '_Belgium_reversed']","['m', 'f', 'm', 'f', 'm', 'm']","['p318', 'p268', 'p256', 'p248', 'p307', 'p229']","[2, 9, 6, 8, 10, 5]","[87.57049330475357, 92.00610777531934, 91.58892582949886, 92.0152836843556, 93.00003341222717, 90.34149293193902]",4.0,False,8.666666666666666,2.943920288775949,2.624821186065674,0.7787651798887754
0,,sub_102,2024-07-09 09:24:29,3,distance,cathedral,numerosity_judgement,3,6,5,countries_reversed,"['_Tonga_reversed', '_Cuba_reversed', '_Sudan_reversed', '_Britain_reversed', '_Yemen_reversed']","['m', 'm', 'm', 'f', 'f']","['p229', 'p256', 'p307', 'p248', 'p284']","[4, 10, 0, 5, 7]","[89.31368318402099, 93.00003341222717, 84.40078082039426, 90.34149293193902, 91.73820004985969]",5.0,True,7.2,3.7013511046643495,1.437401294708252,0.7519350811485643
0,,sub_102,2024-07-09 09:24:32,3,distance,cathedral,numerosity_judgement,3,7,2,countries_reversed,"['_Oman_reversed', '_Mali_reversed']","['m', 'm']","['p229', 'p256']","[4, 6]","[89.31368318402099, 91.58892582949886]",3.0,False,7.0,1.4142135623730951,1.624887466430664,0.7789808194302577
0,,sub_102,2024-07-09 09:24:35,3,distance,cathedral,numerosity_judgement,3,8,3,countries_reversed,"['_Britain_reversed', '_Oman_reversed', '_Peru_reversed']","['m', 'f', 'f']","['p318', 'p245', 'p284']","[1, 10, 5]","[86.2038576498559, 93.00003341222717, 90.34149293193902]",2.0,False,7.333333333333333,4.509249752822894,1.4374620914459229,0.779752581999773
0,,sub_102,2024-07-09 09:24:37,3,distance,cathedral,numerosity_judgement,3,9,4,countries_reversed,"['_Mali_reversed', '_Peru_reversed', '_Yemen_reversed', '_Togo_reversed']","['m', 'm', 'f', 'm']","['p229', 'p318', 'p268', 'p307']","[1, 3, 8, 5]","[86.2038576498559, 89.14911522239515, 92.0152836843556, 90.34149293193902]",3.0,False,6.25,2.9860788111948193,1.3123421669006348,0.7928498467824311
0,,sub_102,2024-07-09 09:24:40,3,distance,cathedral,numerosity_judgement,3,10,2,countries_reversed,"['_Mali_reversed', '_Cuba_reversed']","['m', 'f']","['p307', 'p248']","[10, 8]","[93.00003341222717, 92.0152836843556]",2.0,True,11.0,1.4142135623730951,1.7498805522918701,0.627431619566451
0,,sub_102,2024-07-09 09:24:43,3,distance,cathedral,numerosity_judgement,3,11,4,countries_reversed,"['_Syria_reversed', '_Togo_reversed', '_Tonga_reversed', '_Britain_reversed']","['f', 'm', 'f', 'f']","['p245', 'p318', 'p284', 'p268']","[6, 7, 1, 8]","[91.58892582949886, 91.73820004985969, 86.2038576498559, 92.0152836843556]",3.0,False,7.5,3.1091263510296048,1.437462568283081,0.8452502553626149
0,,sub_102,2024-07-09 09:24:46,3,distance,cathedral,numerosity_judgement,3,12,3,countries_reversed,"['_Yemen_reversed', '_Syria_reversed', '_Togo_reversed']","['m', 'm', 'm']","['p256', 'p229', 'p318']","[10, 8, 9]","[93.00003341222717, 92.0152836843556, 92.00610777531934]",3.0,True,11.0,1.0,2.062331199645996,0.7953694245829077
0,,sub_102,2024-07-09 09:24:50,3,distance,cathedral,numerosity_judgement,3,13,6,countries_reversed,"['_Britain_reversed', '_Yemen_reversed', '_Congo_reversed', '_Togo_reversed', '_Oman_reversed', '_Belgium_reversed']","['m', 'm', 'm', 'm', 'f', 'f']","['p318', 'p256', 'p307', 'p229', 'p268', 'p284']","[0, 8, 4, 1, 6, 3]","[84.40078082039426, 92.0152836843556, 89.31368318402099, 86.2038576498559, 91.58892582949886, 89.14911522239515]",4.0,False,5.666666666666667,3.011090610836324,2.374837875366211,0.7980138463284531
0,,sub_102,2024-07-09 09:24:54,3,distance,cathedral,numerosity_judgement,3,14,5,countries_reversed,"['_Belgium_reversed', '_Britain_reversed', '_Japan_reversed', '_Oman_reversed', '_Tonga_reversed']","['f', 'f', 'f', 'm', 'm']","['p268', 'p245', 'p248', 'p307', 'p318']","[10, 5, 8, 4, 3]","[93.00003341222717, 90.34149293193902, 92.0152836843556, 89.31368318402099, 89.14911522239515]",4.0,False,8.0,2.9154759474226504,2.687314748764038,0.7836567926455567
0,,sub_102,2024-07-09 09:24:57,3,distance,cathedral,numerosity_judgement,3,15,4,countries_reversed,"['_Belgium_reversed', '_Mali_reversed', '_Cuba_reversed', '_Syria_reversed']","['m', 'm', 'f', 'f']","['p229', 'p318', 'p245', 'p284']","[0, 1, 7, 8]","[84.40078082039426, 86.2038576498559, 91.73820004985969, 92.0152836843556]",4.0,True,6.0,4.08248290463863,1.9373681545257568,0.8153671546929974
0,,sub_102,2024-07-09 09:25:00,3,distance,cathedral,numerosity_judgement,3,16,5,countries_reversed,"['_Mali_reversed', '_Sudan_reversed', '_Oman_reversed', '_Japan_reversed', '_Yemen_reversed']","['f', 'm', 'm', 'f', 'f']","['p245', 'p256', 'p318', 'p284', 'p268']","[4, 5, 7, 1, 3]","[89.31368318402099, 90.34149293193902, 91.73820004985969, 86.2038576498559, 89.14911522239515]",5.0,True,6.0,2.23606797749979,1.8123760223388672,0.7634661218930882
0,,sub_102,2024-07-09 09:25:03,3,distance,cathedral,numerosity_judgement,3,17,3,countries_reversed,"['_Congo_reversed', '_Cuba_reversed', '_Peru_reversed']","['m', 'm', 'f']","['p318', 'p307', 'p245']","[3, 7, 1]","[89.14911522239515, 91.73820004985969, 86.2038576498559]",3.0,True,5.666666666666667,3.0550504633038935,1.749880075454712,0.6969242991714902
0,,sub_102,2024-07-09 09:25:06,3,distance,cathedral,numerosity_judgement,3,18,6,countries_reversed,"['_Sudan_reversed', '_Britain_reversed', '_Japan_reversed', '_Peru_reversed', '_Belgium_reversed', '_Togo_reversed']","['m', 'm', 'f', 'f', 'f', 'm']","['p256', 'p318', 'p248', 'p268', 'p245', 'p307']","[4, 8, 1, 7, 2, 5]","[89.31368318402099, 92.0152836843556, 86.2038576498559, 91.73820004985969, 87.57049330475357, 90.34149293193902]",4.0,False,6.5,2.7386127875258306,1.499896764755249,0.8814323005334241
0,,sub_102,2024-07-09 09:25:09,3,distance,cathedral,numerosity_judgement,3,19,2,countries_reversed,"['_Yemen_reversed', '_Syria_reversed']","['f', 'm']","['p248', 'p318']","[7, 5]","[91.73820004985969, 90.34149293193902]",3.0,False,8.0,1.4142135623730951,2.3123157024383545,0.7237430484621495
0,,sub_102,2024-07-09 09:25:12,3,distance,cathedral,numerosity_judgement,3,20,6,countries_reversed,"['_Tonga_reversed', '_Syria_reversed', '_Peru_reversed', '_Sudan_reversed', '_Congo_reversed', '_Togo_reversed']","['f', 'f', 'f', 'm', 'm', 'm']","['p268', 'p245', 'p248', 'p256', 'p229', 'p307']","[8, 10, 0, 3, 7, 5]","[92.0152836843556, 93.00003341222717, 84.40078082039426, 89.14911522239515, 91.73820004985969, 90.34149293193902]",4.0,False,7.5,3.6193922141707713,1.6752846240997314,0.905277494041539
0,,sub_102,2024-07-09 09:25:15,3,distance,cathedral,numerosity_judgement,3,21,3,countries_reversed,"['_Cuba_reversed', '_Togo_reversed', '_Peru_reversed']","['m', 'm', 'f']","['p307', 'p256', 'p248']","[4, 9, 10]","[89.31368318402099, 92.00610777531934, 93.00003341222717]",3.0,True,9.666666666666666,3.214550253664318,1.437394618988037,0.8443536488480309
0,,sub_102,2024-07-09 09:25:18,3,distance,cathedral,numerosity_judgement,3,22,4,countries_reversed,"['_Syria_reversed', '_Belgium_reversed', '_Yemen_reversed', '_Britain_reversed']","['m', 'f', 'm', 'm']","['p307', 'p284', 'p229', 'p318']","[1, 10, 6, 2]","[86.2038576498559, 93.00003341222717, 91.58892582949886, 87.57049330475357]",3.0,False,6.75,4.112987559751022,1.6249523162841797,0.8811145159459767
0,,sub_102,2024-07-09 09:25:20,3,distance,cathedral,numerosity_judgement,3,23,2,countries_reversed,"['_Congo_reversed', '_Yemen_reversed']","['f', 'f']","['p268', 'p248']","[7, 5]","[91.73820004985969, 90.34149293193902]",2.0,True,8.0,1.4142135623730951,1.3124103546142578,0.6503348087617751
0,,sub_102,2024-07-09 09:25:23,3,distance,cathedral,numerosity_judgement,3,24,5,countries_reversed,"['_Congo_reversed', '_Yemen_reversed', '_Belgium_reversed', '_Cuba_reversed', '_Peru_reversed']","['m', 'm', 'f', 'm', 'm']","['p256', 'p318', 'p268', 'p229', 'p307']","[0, 5, 2, 1, 3]","[84.40078082039426, 90.34149293193902, 87.57049330475357, 86.2038576498559, 89.14911522239515]",3.0,False,4.2,1.9235384061671346,1.5623939037322998,0.8777550788786744
0,,sub_102,2024-07-09 09:25:26,3,distance,cathedral,numerosity_judgement,3,25,2,countries_reversed,"['_Tonga_reversed', '_Yemen_reversed']","['m', 'f']","['p256', 'p268']","[9, 10]","[92.00610777531934, 93.00003341222717]",2.0,True,11.5,0.7071067811865476,1.624889612197876,0.7368516626943593
0,,sub_102,2024-07-09 09:25:29,3,distance,cathedral,numerosity_judgement,3,26,4,countries_reversed,"['_Congo_reversed', '_Yemen_reversed', '_Japan_reversed', '_Cuba_reversed']","['m', 'f', 'f', 'f']","['p256', 'p268', 'p248', 'p245']","[9, 10, 7, 3]","[92.00610777531934, 93.00003341222717, 91.73820004985969, 89.14911522239515]",3.0,False,9.25,3.095695936834452,1.2499539852142334,0.7242651231415277
0,,sub_102,2024-07-09 09:25:32,3,distance,cathedral,numerosity_judgement,3,27,6,countries_reversed,"['_Cuba_reversed', '_Oman_reversed', '_Congo_reversed', '_Yemen_reversed', '_Peru_reversed', '_Mali_reversed']","['f', 'f', 'f', 'm', 'm', 'f']","['p268', 'p248', 'p284', 'p256', 'p318', 'p245']","[10, 9, 6, 7, 3, 0]","[93.00003341222717, 92.00610777531934, 91.58892582949886, 91.73820004985969, 89.14911522239515, 84.40078082039426]",4.0,False,7.833333333333333,3.763863263545405,1.9373669624328613,0.7130632164340029
0,,sub_102,2024-07-09 09:25:35,3,distance,cathedral,numerosity_judgement,3,28,5,countries_reversed,"['_Belgium_reversed', '_Britain_reversed', '_Japan_reversed', '_Peru_reversed', '_Sudan_reversed']","['f', 'm', 'f', 'f', 'm']","['p284', 'p318', 'p268', 'p248', 'p229']","[5, 1, 3, 0, 9]","[90.34149293193902, 86.2038576498559, 89.14911522239515, 84.40078082039426, 92.00610777531934]",4.0,False,5.6,3.5777087639996634,1.499896764755249,0.957598456474861
0,,sub_102,2024-07-09 09:25:37,3,distance,cathedral,numerosity_judgement,3,29,3,countries_reversed,"['_Oman_reversed', '_Yemen_reversed', '_Cuba_reversed']","['f', 'm', 'f']","['p284', 'p307', 'p268']","[9, 7, 3]","[92.00610777531934, 91.73820004985969, 89.14911522239515]",3.0,True,8.333333333333334,3.055050463303893,1.437401294708252,0.5765633866757462
0,,sub_102,2024-07-09 09:25:41,3,distance,cathedral,numerosity_judgement,3,30,4,countries_reversed,"['_Britain_reversed', '_Yemen_reversed', '_Togo_reversed', '_Syria_reversed']","['f', 'm', 'f', 'm']","['p284', 'p229', 'p248', 'p307']","[5, 0, 8, 1]","[90.34149293193902, 84.40078082039426, 92.0152836843556, 86.2038576498559]",3.0,False,5.5,3.696845502136472,1.8748948574066162,0.9491090682101918
0,,sub_102,2024-07-09 09:25:43,3,distance,cathedral,numerosity_judgement,3,31,6,countries_reversed,"['_Cuba_reversed', '_Yemen_reversed', '_Congo_reversed', '_Mali_reversed', '_Syria_reversed', '_Togo_reversed']","['f', 'f', 'm', 'm', 'f', 'f']","['p245', 'p284', 'p256', 'p307', 'p248', 'p268']","[0, 2, 8, 6, 1, 10]","[84.40078082039426, 87.57049330475357, 92.0152836843556, 91.58892582949886, 86.2038576498559, 93.00003341222717]",4.0,False,6.5,4.08656334834051,1.560344934463501,0.7597548518896834
0,,sub_102,2024-07-09 09:25:48,3,distance,cathedral,numerosity_judgement,3,32,5,countries_reversed,"['_Belgium_reversed', '_Japan_reversed', '_Tonga_reversed', '_Togo_reversed', '_Syria_reversed']","['m', 'm', 'f', 'f', 'f']","['p256', 'p229', 'p245', 'p268', 'p248']","[0, 2, 10, 1, 9]","[84.40078082039426, 87.57049330475357, 93.00003341222717, 86.2038576498559, 92.00610777531934]",3.0,False,6.4,4.722287581247038,3.1872172355651855,0.9244694132334582
0,,sub_102,2024-07-09 09:25:51,3,distance,cathedral,numerosity_judgement,3,33,2,countries_reversed,"['_Belgium_reversed', '_Sudan_reversed']","['f', 'f']","['p248', 'p245']","[8, 0]","[92.0152836843556, 84.40078082039426]",2.0,True,6.0,5.656854249492381,1.9998629093170166,0.9619566451027124
0,,sub_102,2024-07-09 09:25:54,3,distance,cathedral,numerosity_judgement,3,34,3,countries_reversed,"['_Togo_reversed', '_Congo_reversed', '_Sudan_reversed']","['f', 'f', 'm']","['p268', 'p284', 'p229']","[4, 6, 0]","[89.31368318402099, 91.58892582949886, 84.40078082039426]",2.0,False,5.333333333333333,3.0550504633038935,1.5623936653137207,0.9263534218590398
0,,sub_102,2024-07-09 09:25:57,3,distance,cathedral,numerosity_judgement,3,35,5,countries_reversed,"['_Cuba_reversed', '_Belgium_reversed', '_Oman_reversed', '_Yemen_reversed', '_Peru_reversed']","['m', 'f', 'm', 'm', 'f']","['p256', 'p284', 'p229', 'p307', 'p248']","[9, 6, 3, 8, 10]","[92.00610777531934, 91.58892582949886, 89.14911522239515, 92.0152836843556, 93.00003341222717]",2.0,False,9.2,2.7748873851023217,1.8123764991760254,0.8062648961525366
0,,sub_102,2024-07-09 09:26:00,3,distance,cathedral,numerosity_judgement,3,36,4,countries_reversed,"['_Tonga_reversed', '_Syria_reversed', '_Sudan_reversed', '_Oman_reversed']","['f', 'm', 'f', 'f']","['p248', 'p256', 'p284', 'p245']","[10, 8, 4, 5]","[93.00003341222717, 92.0152836843556, 89.31368318402099, 90.34149293193902]",3.0,False,8.75,2.753785273643051,1.437406063079834,0.7485075473839519
0,,sub_102,2024-07-09 09:26:03,3,distance,cathedral,numerosity_judgement,3,37,6,countries_reversed,"['_Sudan_reversed', '_Japan_reversed', '_Mali_reversed', '_Britain_reversed', '_Oman_reversed', '_Yemen_reversed']","['f', 'f', 'm', 'f', 'f', 'm']","['p268', 'p284', 'p307', 'p245', 'p248', 'p229']","[5, 3, 4, 1, 0, 2]","[90.34149293193902, 89.14911522239515, 89.31368318402099, 86.2038576498559, 84.40078082039426, 87.57049330475357]",3.0,False,4.5,1.8708286933869707,2.062410354614258,0.9480308705027806
0,,sub_102,2024-07-09 09:26:06,3,distance,cathedral,numerosity_judgement,3,38,2,countries_reversed,"['_Peru_reversed', '_Oman_reversed']","['m', 'm']","['p256', 'p307']","[6, 5]","[91.58892582949886, 90.34149293193902]",2.0,True,7.5,0.7071067811865476,1.437401533126831,0.5561570763817955
0,,sub_102,2024-07-09 09:26:09,3,distance,cathedral,numerosity_judgement,3,39,3,countries_reversed,"['_Mali_reversed', '_Oman_reversed', '_Yemen_reversed']","['m', 'm', 'm']","['p318', 'p229', 'p256']","[8, 6, 3]","[92.0152836843556, 91.58892582949886, 89.14911522239515]",2.0,False,7.666666666666667,2.516611478423583,1.687384843826294,0.6290886392009988
0,,sub_102,2024-07-09 09:26:12,3,distance,cathedral,numerosity_judgement,3,40,5,countries_reversed,"['_Mali_reversed', '_Oman_reversed', '_Britain_reversed', '_Peru_reversed', '_Yemen_reversed']","['f', 'm', 'm', 'm', 'f']","['p268', 'p256', 'p318', 'p307', 'p245']","[1, 6, 10, 9, 5]","[86.2038576498559, 91.58892582949886, 93.00003341222717, 92.00610777531934, 90.34149293193902]",3.0,False,8.2,3.5637059362410923,2.187350034713745,0.6607536034502327
0,,sub_102,2024-07-09 09:26:15,3,distance,cathedral,numerosity_judgement,3,41,4,countries_reversed,"['_Britain_reversed', '_Peru_reversed', '_Oman_reversed', '_Syria_reversed']","['m', 'f', 'm', 'm']","['p318', 'p245', 'p229', 'p256']","[6, 9, 7, 5]","[91.58892582949886, 92.00610777531934, 91.73820004985969, 90.34149293193902]",3.0,False,8.75,1.707825127659933,1.5623929500579834,0.6560549313358303
0,,sub_102,2024-07-09 09:26:18,3,distance,cathedral,numerosity_judgement,3,42,3,countries_reversed,"['_Cuba_reversed', '_Togo_reversed', '_Japan_reversed']","['f', 'f', 'm']","['p248', 'p268', 'p256']","[10, 1, 9]","[93.00003341222717, 86.2038576498559, 92.00610777531934]",4.0,False,8.666666666666666,4.932882862316248,1.6248893737792969,0.7394506866416979
0,,sub_102,2024-07-09 09:26:21,3,distance,cathedral,numerosity_judgement,3,43,6,countries_reversed,"['_Britain_reversed', '_Peru_reversed', '_Mali_reversed', '_Syria_reversed', '_Yemen_reversed', '_Japan_reversed']","['f', 'f', 'f', 'm', 'm', 'm']","['p268', 'p245', 'p284', 'p256', 'p229', 'p318']","[3, 2, 6, 7, 4, 1]","[89.14911522239515, 87.57049330475357, 91.58892582949886, 91.73820004985969, 89.31368318402099, 86.2038576498559]",5.0,False,5.833333333333333,2.316606713852541,1.8748726844787598,0.9119509703779368
0,,sub_102,2024-07-09 09:26:24,3,distance,cathedral,numerosity_judgement,3,44,2,countries_reversed,"['_Yemen_reversed', '_Tonga_reversed']","['f', 'f']","['p284', 'p248']","[2, 7]","[87.57049330475357, 91.73820004985969]",2.0,True,6.5,3.5355339059327378,1.8748722076416016,0.911156508909318
0,,sub_102,2024-07-09 09:26:27,3,distance,cathedral,numerosity_judgement,3,45,3,countries_reversed,"['_Tonga_reversed', '_Sudan_reversed', '_Oman_reversed']","['f', 'm', 'm']","['p248', 'p229', 'p318']","[2, 5, 1]","[87.57049330475357, 90.34149293193902, 86.2038576498559]",3.0,True,4.666666666666667,2.0816659994661326,1.6873855590820312,0.9543525139030756
0,,sub_102,2024-07-09 09:26:30,3,distance,cathedral,numerosity_judgement,3,46,5,countries_reversed,"['_Syria_reversed', '_Tonga_reversed', '_Japan_reversed', '_Sudan_reversed', '_Yemen_reversed']","['f', 'f', 'm', 'f', 'f']","['p284', 'p248', 'p307', 'p268', 'p245']","[2, 5, 0, 6, 7]","[87.57049330475357, 90.34149293193902, 84.40078082039426, 91.58892582949886, 91.73820004985969]",4.0,False,6.0,2.9154759474226504,1.9998629093170166,0.8430484621495857
0,,sub_102,2024-07-09 09:26:33,3,distance,cathedral,numerosity_judgement,3,47,2,countries_reversed,"['_Congo_reversed', '_Cuba_reversed']","['f', 'f']","['p268', 'p245']","[4, 7]","[89.31368318402099, 91.73820004985969]",2.0,True,7.5,2.1213203435596424,1.7498276233673096,0.6048462149585745
0,,sub_102,2024-07-09 09:26:36,3,distance,cathedral,numerosity_judgement,3,48,4,countries_reversed,"['_Mali_reversed', '_Yemen_reversed', '_Congo_reversed', '_Togo_reversed']","['m', 'f', 'f', 'm']","['p318', 'p268', 'p248', 'p307']","[5, 9, 2, 7]","[90.34149293193902, 92.00610777531934, 87.57049330475357, 91.73820004985969]",3.0,False,7.75,2.9860788111948193,1.499896764755249,0.7665191238224947
0,,sub_102,2024-07-09 09:26:39,3,distance,cathedral,numerosity_judgement,3,49,6,countries_reversed,"['_Syria_reversed', '_Yemen_reversed', '_Oman_reversed', '_Peru_reversed', '_Sudan_reversed', '_Cuba_reversed']","['m', 'f', 'm', 'f', 'f', 'm']","['p256', 'p248', 'p307', 'p268', 'p284', 'p318']","[2, 3, 5, 6, 0, 10]","[87.57049330475357, 89.14911522239515, 90.34149293193902, 91.58892582949886, 84.40078082039426, 93.00003341222717]",4.0,False,6.333333333333333,3.5023801430836525,1.6873846054077148,0.6612870275791624
0,,sub_102,2024-07-09 09:26:42,3,distance,cathedral,numerosity_judgement,3,50,4,countries_reversed,"['_Sudan_reversed', '_Congo_reversed', '_Tonga_reversed', '_Britain_reversed']","['f', 'f', 'm', 'm']","['p268', 'p284', 'p318', 'p256']","[3, 4, 9, 5]","[89.14911522239515, 89.31368318402099, 92.00610777531934, 90.34149293193902]",3.0,False,7.25,2.6299556396765835,1.6248857975006104,0.9218022925888094
0,,sub_102,2024-07-09 09:26:45,3,distance,cathedral,numerosity_judgement,3,51,5,countries_reversed,"['_Japan_reversed', '_Cuba_reversed', '_Sudan_reversed', '_Togo_reversed', '_Oman_reversed']","['f', 'f', 'm', 'm', 'm']","['p284', 'p245', 'p318', 'p307', 'p256']","[2, 0, 4, 7, 10]","[87.57049330475357, 84.40078082039426, 89.31368318402099, 91.73820004985969, 93.00003341222717]",3.0,False,6.6,3.9749213828703582,1.687436819076538,0.7196685960730904
0,,sub_102,2024-07-09 09:26:48,3,distance,cathedral,numerosity_judgement,3,52,2,countries_reversed,"['_Sudan_reversed', '_Togo_reversed']","['m', 'f']","['p307', 'p268']","[1, 3]","[86.2038576498559, 89.14911522239515]",2.0,True,4.0,1.4142135623730951,1.3749065399169922,0.8377482692089434
0,,sub_102,2024-07-09 09:26:51,3,distance,cathedral,numerosity_judgement,3,53,6,countries_reversed,"['_Congo_reversed', '_Cuba_reversed', '_Britain_reversed', '_Japan_reversed', '_Belgium_reversed', '_Tonga_reversed']","['m', 'm', 'f', 'f', 'f', 'm']","['p256', 'p307', 'p245', 'p284', 'p248', 'p229']","[7, 2, 5, 6, 8, 9]","[91.73820004985969, 87.57049330475357, 90.34149293193902, 91.58892582949886, 92.0152836843556, 92.00610777531934]",4.0,False,8.166666666666666,2.48327740429189,2.12485408782959,0.8223016683690841
0,,sub_102,2024-07-09 09:26:54,3,distance,cathedral,numerosity_judgement,3,54,3,countries_reversed,"['_Cuba_reversed', '_Congo_reversed', '_Peru_reversed']","['m', 'f', 'f']","['p307', 'p268', 'p248']","[0, 10, 9]","[84.40078082039426, 93.00003341222717, 92.00610777531934]",3.0,True,8.333333333333334,5.507570547286102,1.749880313873291,0.8690160027238679
0,,sub_102,2024-07-09 09:26:58,3,distance,cathedral,numerosity_judgement,3,55,4,countries_reversed,"['_Oman_reversed', '_Sudan_reversed', '_Syria_reversed', '_Belgium_reversed']","['m', 'f', 'm', 'f']","['p256', 'p268', 'p229', 'p245']","[6, 4, 9, 5]","[91.58892582949886, 89.31368318402099, 92.00610777531934, 90.34149293193902]",4.0,True,8.0,2.160246899469287,2.937299966812134,0.870548178413347
0,,sub_102,2024-07-09 09:27:03,3,distance,cathedral,numerosity_judgement,3,56,6,countries_reversed,"['_Sudan_reversed', '_Peru_reversed', '_Britain_reversed', '_Japan_reversed', '_Yemen_reversed', '_Oman_reversed']","['m', 'f', 'm', 'f', 'm', 'f']","['p318', 'p248', 'p256', 'p268', 'p307', 'p245']","[10, 8, 6, 2, 1, 5]","[93.00003341222717, 92.0152836843556, 91.58892582949886, 87.57049330475357, 86.2038576498559, 90.34149293193902]",4.0,False,7.333333333333333,3.444802848737017,3.187282085418701,0.8431960049937578
0,,sub_102,2024-07-09 09:27:05,3,distance,cathedral,numerosity_judgement,3,57,3,countries_reversed,"['_Syria_reversed', '_Mali_reversed', '_Cuba_reversed']","['m', 'f', 'f']","['p229', 'p245', 'p248']","[6, 5, 3]","[91.58892582949886, 90.34149293193902, 89.14911522239515]",3.0,True,6.666666666666667,1.5275252316519465,1.249915361404419,0.8319033026898195
0,,sub_102,2024-07-09 09:27:10,3,distance,cathedral,numerosity_judgement,3,58,5,countries_reversed,"['_Mali_reversed', '_Britain_reversed', '_Togo_reversed', '_Cuba_reversed', '_Oman_reversed']","['f', 'f', 'm', 'm', 'm']","['p248', 'p245', 'p256', 'p229', 'p307']","[0, 10, 6, 7, 5]","[84.40078082039426, 93.00003341222717, 91.58892582949886, 91.73820004985969, 90.34149293193902]",4.0,False,7.6,3.646916505762094,3.2497808933258057,0.6807399841107706
0,,sub_102,2024-07-09 09:27:12,3,distance,cathedral,numerosity_judgement,3,59,2,countries_reversed,"['_Syria_reversed', '_Yemen_reversed']","['m', 'm']","['p229', 'p307']","[9, 10]","[92.00610777531934, 93.00003341222717]",2.0,True,11.5,0.7071067811865476,1.2499151229858398,0.8659743502440131
0,,sub_102,2024-07-09 09:27:15,3,distance,cathedral,numerosity_judgement,3,60,6,countries_reversed,"['_Belgium_reversed', '_Syria_reversed', '_Congo_reversed', '_Tonga_reversed', '_Japan_reversed', '_Sudan_reversed']","['f', 'm', 'f', 'f', 'f', 'm']","['p248', 'p256', 'p245', 'p268', 'p284', 'p318']","[2, 6, 4, 0, 8, 1]","[87.57049330475357, 91.58892582949886, 89.31368318402099, 84.40078082039426, 92.0152836843556, 86.2038576498559]",5.0,False,5.5,3.082207001484488,1.5623931884765625,0.931210986267166
0,,sub_102,2024-07-09 09:27:17,3,distance,cathedral,numerosity_judgement,3,61,5,countries_reversed,"['_Tonga_reversed', '_Oman_reversed', '_Belgium_reversed', '_Cuba_reversed', '_Japan_reversed']","['m', 'f', 'f', 'f', 'm']","['p318', 'p245', 'p284', 'p268', 'p307']","[10, 9, 8, 6, 4]","[93.00003341222717, 92.00610777531934, 92.0152836843556, 91.58892582949886, 89.31368318402099]",5.0,True,9.4,2.4083189157584592,1.062427043914795,0.7070026103733968
0,,sub_102,2024-07-09 09:27:20,3,distance,cathedral,numerosity_judgement,3,62,3,countries_reversed,"['_Congo_reversed', '_Britain_reversed', '_Oman_reversed']","['f', 'm', 'f']","['p284', 'p256', 'p245']","[5, 10, 8]","[90.34149293193902, 93.00003341222717, 92.0152836843556]",4.0,False,9.666666666666666,2.516611478423583,1.6248893737792969,0.7330722959936443
0,,sub_102,2024-07-09 09:27:23,3,distance,cathedral,numerosity_judgement,3,63,4,countries_reversed,"['_Oman_reversed', '_Sudan_reversed', '_Togo_reversed', '_Yemen_reversed']","['m', 'm', 'm', 'f']","['p229', 'p256', 'p307', 'p248']","[6, 8, 4, 1]","[91.58892582949886, 92.0152836843556, 89.31368318402099, 86.2038576498559]",4.0,True,6.75,2.9860788111948193,1.437422752380371,0.6650663942798775
0,,sub_102,2024-07-09 09:27:26,3,distance,cathedral,numerosity_judgement,3,64,2,countries_reversed,"['_Sudan_reversed', '_Japan_reversed']","['m', 'f']","['p256', 'p284']","[8, 0]","[92.0152836843556, 84.40078082039426]",3.0,False,6.0,5.656854249492381,1.5623931884765625,0.7889342866870956
0,,sub_102,2024-07-09 09:27:29,3,distance,cathedral,numerosity_judgement,3,65,5,countries_reversed,"['_Yemen_reversed', '_Tonga_reversed', '_Mali_reversed', '_Britain_reversed', '_Syria_reversed']","['m', 'm', 'm', 'f', 'f']","['p229', 'p256', 'p318', 'p268', 'p248']","[1, 2, 10, 6, 8]","[86.2038576498559, 87.57049330475357, 93.00003341222717, 91.58892582949886, 92.0152836843556]",4.0,False,7.4,3.847076812334269,2.3123421669006348,0.89939847917376
0,,sub_102,2024-07-09 09:27:32,3,distance,cathedral,numerosity_judgement,3,66,2,countries_reversed,"['_Japan_reversed', '_Togo_reversed']","['m', 'm']","['p229', 'p307']","[6, 9]","[91.58892582949886, 92.00610777531934]",2.0,True,9.5,2.1213203435596424,1.3124115467071533,0.8911020315514697
0,,sub_102,2024-07-09 09:27:34,3,distance,cathedral,numerosity_judgement,3,67,4,countries_reversed,"['_Oman_reversed', '_Yemen_reversed', '_Britain_reversed', '_Mali_reversed']","['m', 'm', 'm', 'm']","['p229', 'p318', 'p307', 'p256']","[5, 7, 9, 6]","[90.34149293193902, 91.73820004985969, 92.00610777531934, 91.58892582949886]",3.0,False,8.75,1.707825127659933,1.3124098777770996,0.6135966405629327
0,,sub_102,2024-07-09 09:27:37,3,distance,cathedral,numerosity_judgement,3,68,6,countries_reversed,"['_Yemen_reversed', '_Belgium_reversed', '_Cuba_reversed', '_Japan_reversed', '_Congo_reversed', '_Syria_reversed']","['f', 'm', 'm', 'm', 'f', 'm']","['p248', 'p318', 'p229', 'p307', 'p245', 'p256']","[7, 6, 3, 4, 1, 8]","[91.73820004985969, 91.58892582949886, 89.14911522239515, 89.31368318402099, 86.2038576498559, 92.0152836843556]",4.0,False,6.833333333333333,2.6394443859772205,1.374922752380371,0.8588241970264442
0,,sub_102,2024-07-09 09:27:40,3,distance,cathedral,numerosity_judgement,3,69,3,countries_reversed,"['_Sudan_reversed', '_Togo_reversed', '_Congo_reversed']","['m', 'm', 'f']","['p229', 'p307', 'p245']","[2, 7, 0]","[87.57049330475357, 91.73820004985969, 84.40078082039426]",2.0,False,5.0,3.605551275463989,1.3124103546142578,0.8980705935762116
0,,sub_102,2024-07-09 09:27:43,3,distance,cathedral,numerosity_judgement,3,70,6,countries_reversed,"['_Togo_reversed', '_Congo_reversed', '_Cuba_reversed', '_Yemen_reversed', '_Mali_reversed', '_Oman_reversed']","['m', 'm', 'f', 'f', 'f', 'f']","['p256', 'p229', 'p245', 'p268', 'p248', 'p284']","[8, 1, 5, 9, 10, 6]","[92.0152836843556, 86.2038576498559, 90.34149293193902, 92.00610777531934, 93.00003341222717, 91.58892582949886]",4.0,False,8.5,3.271085446759225,1.9998629093170166,0.683270911360799
0,,sub_102,2024-07-09 09:27:47,3,distance,cathedral,numerosity_judgement,3,71,2,countries_reversed,"['_Japan_reversed', '_Syria_reversed']","['f', 'f']","['p284', 'p268']","[9, 7]","[92.00610777531934, 91.73820004985969]",3.0,False,10.0,1.4142135623730951,2.437333345413208,0.9394052888434912
0,,sub_102,2024-07-09 09:27:49,3,distance,cathedral,numerosity_judgement,3,72,5,countries_reversed,"['_Belgium_reversed', '_Sudan_reversed', '_Cuba_reversed', '_Togo_reversed', '_Britain_reversed']","['f', 'f', 'm', 'm', 'm']","['p284', 'p248', 'p256', 'p318', 'p307']","[7, 8, 4, 0, 5]","[91.73820004985969, 92.0152836843556, 89.31368318402099, 84.40078082039426, 90.34149293193902]",3.0,False,6.8,3.1144823004794877,1.437401533126831,0.948507547383952
0,,sub_102,2024-07-09 09:27:52,3,distance,cathedral,numerosity_judgement,3,73,3,countries_reversed,"['_Peru_reversed', '_Yemen_reversed', '_Tonga_reversed']","['f', 'f', 'f']","['p248', 'p268', 'p245']","[10, 2, 6]","[93.00003341222717, 87.57049330475357, 91.58892582949886]",4.0,False,8.0,4.0,1.4998974800109863,0.6479173760072636
0,,sub_102,2024-07-09 09:27:55,3,distance,cathedral,numerosity_judgement,3,74,4,countries_reversed,"['_Yemen_reversed', '_Oman_reversed', '_Cuba_reversed', '_Sudan_reversed']","['m', 'm', 'f', 'f']","['p256', 'p229', 'p248', 'p245']","[3, 8, 0, 7]","[89.14911522239515, 92.0152836843556, 84.40078082039426, 91.73820004985969]",4.0,True,6.5,3.696845502136472,1.4998970031738281,0.689558506412439
0,,sub_102,2024-07-09 09:29:42,3,distance,cathedral,numerosity_judgement,4,0,3,countries_reversed,"['_Cuba_reversed', '_Oman_reversed', '_Britain_reversed']","['f', 'm', 'm']","['p245', 'p256', 'p307']","[9, 5, 10]","[92.00610777531934, 90.34149293193902, 93.00003341222717]",3.0,True,10.0,2.6457513110645907,2.124854803085327,0.6796617864033594
0,,sub_102,2024-07-09 09:29:45,3,distance,cathedral,numerosity_judgement,4,1,4,countries_reversed,"['_Peru_reversed', '_Tonga_reversed', '_Yemen_reversed', '_Japan_reversed']","['m', 'm', 'f', 'f']","['p318', 'p229', 'p248', 'p268']","[10, 1, 5, 8]","[93.00003341222717, 86.2038576498559, 90.34149293193902, 92.0152836843556]",4.0,True,8.0,3.9157800414902435,1.874870777130127,0.7905572579729883
0,,sub_102,2024-07-09 09:29:48,3,distance,cathedral,numerosity_judgement,4,2,5,countries_reversed,"['_Britain_reversed', '_Sudan_reversed', '_Japan_reversed', '_Peru_reversed', '_Togo_reversed']","['f', 'm', 'm', 'm', 'f']","['p268', 'p307', 'p229', 'p256', 'p284']","[7, 5, 9, 1, 10]","[91.73820004985969, 90.34149293193902, 92.00610777531934, 86.2038576498559, 93.00003341222717]",4.0,False,8.4,3.5777087639996634,1.4998972415924072,0.9550788786743843
0,,sub_102,2024-07-09 09:29:52,3,distance,cathedral,numerosity_judgement,4,3,6,countries_reversed,"['_Togo_reversed', '_Oman_reversed', '_Tonga_reversed', '_Britain_reversed', '_Belgium_reversed', '_Congo_reversed']","['m', 'f', 'f', 'f', 'm', 'f']","['p256', 'p248', 'p284', 'p245', 'p229', 'p268']","[5, 6, 8, 4, 10, 1]","[90.34149293193902, 91.58892582949886, 92.0152836843556, 89.31368318402099, 93.00003341222717, 86.2038576498559]",5.0,False,7.666666666666667,3.141125063837266,2.687316417694092,0.8669504029054591
0,,sub_102,2024-07-09 09:29:57,3,distance,cathedral,numerosity_judgement,4,4,2,countries_reversed,"['_Britain_reversed', '_Oman_reversed']","['m', 'm']","['p256', 'p229']","[5, 7]","[90.34149293193902, 91.73820004985969]",2.0,True,8.0,1.4142135623730951,3.812239170074463,0.6254908636931109
0,,sub_102,2024-07-09 09:30:01,3,distance,cathedral,numerosity_judgement,4,5,6,countries_reversed,"['_Cuba_reversed', '_Tonga_reversed', '_Oman_reversed', '_Peru_reversed', '_Mali_reversed', '_Togo_reversed']","['f', 'm', 'f', 'f', 'm', 'm']","['p284', 'p256', 'p245', 'p268', 'p307', 'p229']","[10, 2, 9, 8, 0, 1]","[93.00003341222717, 87.57049330475357, 92.00610777531934, 92.0152836843556, 84.40078082039426, 86.2038576498559]",3.0,False,7.0,4.47213595499958,2.6873161792755127,0.8925320621949835
0,,sub_102,2024-07-09 09:30:04,3,distance,cathedral,numerosity_judgement,4,6,2,countries_reversed,"['_Congo_reversed', '_Yemen_reversed']","['f', 'm']","['p268', 'p256']","[3, 2]","[89.14911522239515, 87.57049330475357]",2.0,True,4.5,0.7071067811865476,1.56235671043396,0.7770514130064692
0,,sub_102,2024-07-09 09:30:07,3,distance,cathedral,numerosity_judgement,4,7,5,countries_reversed,"['_Belgium_reversed', '_Cuba_reversed', '_Congo_reversed', '_Oman_reversed', '_Britain_reversed']","['f', 'm', 'f', 'f', 'm']","['p268', 'p307', 'p248', 'p245', 'p229']","[9, 7, 4, 6, 10]","[92.00610777531934, 91.73820004985969, 89.31368318402099, 91.58892582949886, 93.00003341222717]",3.0,False,9.2,2.3874672772626644,2.124854803085327,0.6419362160935195
0,,sub_102,2024-07-09 09:30:11,3,distance,cathedral,numerosity_judgement,4,8,4,countries_reversed,"['_Oman_reversed', '_Yemen_reversed', '_Britain_reversed', '_Mali_reversed']","['m', 'm', 'm', 'm']","['p229', 'p318', 'p307', 'p256']","[5, 7, 9, 6]","[90.34149293193902, 91.73820004985969, 92.00610777531934, 91.58892582949886]",2.0,False,8.75,1.707825127659933,2.8123085498809814,0.6135966405629327
0,,sub_102,2024-07-09 09:30:14,3,distance,cathedral,numerosity_judgement,4,9,3,countries_reversed,"['_Cuba_reversed', '_Britain_reversed', '_Yemen_reversed']","['f', 'm', 'f']","['p245', 'p318', 'p268']","[7, 0, 9]","[91.73820004985969, 84.40078082039426, 92.00610777531934]",2.0,False,7.333333333333333,4.725815626252608,1.5623927116394043,0.6158778799228237
0,,sub_102,2024-07-09 09:30:17,3,distance,cathedral,numerosity_judgement,4,10,2,countries_reversed,"['_Yemen_reversed', '_Oman_reversed']","['m', 'f']","['p256', 'p245']","[3, 7]","[89.14911522239515, 91.73820004985969]",2.0,True,7.0,2.8284271247461903,1.749882698059082,0.5731245034615822
0,,sub_102,2024-07-09 09:30:21,3,distance,cathedral,numerosity_judgement,4,11,3,countries_reversed,"['_Tonga_reversed', '_Britain_reversed', '_Mali_reversed']","['m', 'f', 'f']","['p229', 'p245', 'p268']","[7, 4, 2]","[91.73820004985969, 89.31368318402099, 87.57049330475357]",3.0,True,6.333333333333333,2.516611478423583,2.9997949600219727,0.9411871524231076
0,,sub_102,2024-07-09 09:30:24,3,distance,cathedral,numerosity_judgement,4,12,5,countries_reversed,"['_Yemen_reversed', '_Mali_reversed', '_Oman_reversed', '_Tonga_reversed', '_Britain_reversed']","['m', 'f', 'f', 'f', 'f']","['p256', 'p248', 'p245', 'p268', 'p284']","[3, 5, 1, 9, 0]","[89.14911522239515, 90.34149293193902, 86.2038576498559, 92.00610777531934, 84.40078082039426]",3.0,False,5.6,3.5777087639996634,1.6248888969421387,0.8638520031778458
0,,sub_102,2024-07-09 09:30:27,3,distance,cathedral,numerosity_judgement,4,13,6,countries_reversed,"['_Syria_reversed', '_Yemen_reversed', '_Oman_reversed', '_Peru_reversed', '_Sudan_reversed', '_Cuba_reversed']","['m', 'f', 'm', 'f', 'f', 'm']","['p256', 'p248', 'p307', 'p268', 'p284', 'p318']","[2, 3, 5, 6, 0, 10]","[87.57049330475357, 89.14911522239515, 90.34149293193902, 91.58892582949886, 84.40078082039426, 93.00003341222717]",4.0,False,6.333333333333333,3.5023801430836525,1.4374537467956543,0.6612870275791624
0,,sub_102,2024-07-09 09:30:29,3,distance,cathedral,numerosity_judgement,4,14,4,countries_reversed,"['_Yemen_reversed', '_Belgium_reversed', '_Oman_reversed', '_Peru_reversed']","['f', 'f', 'm', 'm']","['p284', 'p245', 'p307', 'p256']","[10, 7, 4, 9]","[93.00003341222717, 91.73820004985969, 89.31368318402099, 92.00610777531934]",3.0,False,9.5,2.6457513110645907,1.312356948852539,0.6722846441947565
0,,sub_102,2024-07-09 09:30:32,3,distance,cathedral,numerosity_judgement,4,15,3,countries_reversed,"['_Mali_reversed', '_Japan_reversed', '_Peru_reversed']","['f', 'f', 'f']","['p248', 'p268', 'p284']","[7, 2, 4]","[91.73820004985969, 87.57049330475357, 89.31368318402099]",2.0,False,6.333333333333333,2.516611478423583,1.3749635219573975,0.9533537623425264
0,,sub_102,2024-07-09 09:30:36,3,distance,cathedral,numerosity_judgement,4,16,6,countries_reversed,"['_Oman_reversed', '_Cuba_reversed', '_Sudan_reversed', '_Peru_reversed', '_Syria_reversed', '_Mali_reversed']","['m', 'f', 'f', 'f', 'm', 'm']","['p318', 'p248', 'p284', 'p268', 'p256', 'p307']","[3, 10, 1, 8, 9, 5]","[89.14911522239515, 93.00003341222717, 86.2038576498559, 92.0152836843556, 92.00610777531934, 90.34149293193902]",3.0,False,8.0,3.5777087639996634,2.187347650527954,0.7595959595959596
0,,sub_102,2024-07-09 09:30:39,3,distance,cathedral,numerosity_judgement,4,17,2,countries_reversed,"['_Oman_reversed', '_Mali_reversed']","['m', 'm']","['p307', 'p256']","[1, 3]","[86.2038576498559, 89.14911522239515]",2.0,True,4.0,1.4142135623730951,1.8123760223388672,0.7423334468278289
0,,sub_102,2024-07-09 09:30:42,3,distance,cathedral,numerosity_judgement,4,18,5,countries_reversed,"['_Sudan_reversed', '_Yemen_reversed', '_Togo_reversed', '_Mali_reversed', '_Peru_reversed']","['f', 'f', 'm', 'f', 'm']","['p268', 'p284', 'p318', 'p248', 'p307']","[8, 2, 0, 5, 4]","[92.0152836843556, 87.57049330475357, 84.40078082039426, 90.34149293193902, 89.31368318402099]",3.0,False,5.8,3.03315017762062,2.374837636947632,0.9350471002156396
0,,sub_102,2024-07-09 09:30:46,3,distance,cathedral,numerosity_judgement,4,19,4,countries_reversed,"['_Yemen_reversed', '_Congo_reversed', '_Peru_reversed', '_Britain_reversed']","['m', 'm', 'm', 'f']","['p256', 'p229', 'p318', 'p245']","[9, 4, 6, 8]","[92.00610777531934, 89.31368318402099, 91.58892582949886, 92.0152836843556]",4.0,True,8.75,2.217355782608345,2.5623250007629395,0.7670411985018727
0,,sub_102,2024-07-09 09:30:50,3,distance,cathedral,numerosity_judgement,4,20,3,countries_reversed,"['_Japan_reversed', '_Sudan_reversed', '_Oman_reversed']","['m', 'm', 'm']","['p256', 'p307', 'p229']","[3, 4, 8]","[89.14911522239515, 89.31368318402099, 92.0152836843556]",4.0,False,7.0,2.6457513110645907,3.0622904300689697,0.8137214845080014
0,,sub_102,2024-07-09 09:30:57,3,distance,cathedral,numerosity_judgement,4,21,2,countries_reversed,"['_Mali_reversed', '_Peru_reversed']","['f', 'm']","['p245', 'p229']","[9, 10]","[92.00610777531934, 93.00003341222717]",2.0,True,11.5,0.7071067811865476,4.874666929244995,0.8060946544092612
0,,sub_102,2024-07-09 09:31:00,3,distance,cathedral,numerosity_judgement,4,22,6,countries_reversed,"['_Togo_reversed', '_Congo_reversed', '_Cuba_reversed', '_Yemen_reversed', '_Mali_reversed', '_Oman_reversed']","['m', 'm', 'f', 'f', 'f', 'f']","['p256', 'p229', 'p245', 'p268', 'p248', 'p284']","[8, 1, 5, 9, 10, 6]","[92.0152836843556, 86.2038576498559, 90.34149293193902, 92.00610777531934, 93.00003341222717, 91.58892582949886]",3.0,False,8.5,3.271085446759225,2.0623395442962646,0.683270911360799
0,,sub_102,2024-07-09 09:31:05,3,distance,cathedral,numerosity_judgement,4,23,4,countries_reversed,"['_Belgium_reversed', '_Cuba_reversed', '_Togo_reversed', '_Oman_reversed']","['m', 'm', 'f', 'm']","['p318', 'p307', 'p245', 'p229']","[2, 0, 3, 9]","[87.57049330475357, 84.40078082039426, 89.14911522239515, 92.00610777531934]",3.0,False,5.5,3.872983346207417,3.9997267723083496,0.8236182045170809
0,,sub_102,2024-07-09 09:31:09,3,distance,cathedral,numerosity_judgement,4,24,5,countries_reversed,"['_Togo_reversed', '_Peru_reversed', '_Yemen_reversed', '_Oman_reversed', '_Congo_reversed']","['f', 'f', 'm', 'm', 'f']","['p248', 'p245', 'p318', 'p229', 'p268']","[4, 7, 5, 8, 6]","[89.31368318402099, 91.73820004985969, 90.34149293193902, 92.0152836843556, 91.58892582949886]",4.0,False,8.0,1.5811388300841898,2.1248550415039062,0.6672341391442516
0,,sub_102,2024-07-09 09:31:12,3,distance,cathedral,numerosity_judgement,4,25,6,countries_reversed,"['_Syria_reversed', '_Peru_reversed', '_Japan_reversed', '_Oman_reversed', '_Sudan_reversed', '_Cuba_reversed']","['m', 'm', 'm', 'f', 'm', 'f']","['p307', 'p229', 'p256', 'p245', 'p318', 'p284']","[9, 8, 3, 1, 5, 2]","[92.00610777531934, 92.0152836843556, 89.14911522239515, 86.2038576498559, 90.34149293193902, 87.57049330475357]",4.0,False,6.666666666666667,3.265986323710904,1.8748714923858643,0.8385881284757689
0,,sub_102,2024-07-09 09:31:14,3,distance,cathedral,numerosity_judgement,4,26,2,countries_reversed,"['_Sudan_reversed', '_Peru_reversed']","['f', 'f']","['p245', 'p268']","[7, 10]","[91.73820004985969, 93.00003341222717]",2.0,True,10.5,2.1213203435596424,1.437398910522461,0.8181023720349563
0,,sub_102,2024-07-09 09:31:17,3,distance,cathedral,numerosity_judgement,4,27,4,countries_reversed,"['_Peru_reversed', '_Britain_reversed', '_Yemen_reversed', '_Congo_reversed']","['m', 'f', 'f', 'm']","['p307', 'p245', 'p268', 'p256']","[6, 0, 4, 3]","[91.58892582949886, 84.40078082039426, 89.31368318402099, 89.14911522239515]",3.0,False,5.25,2.5,1.3749070167541504,0.6504256043581886
0,,sub_102,2024-07-09 09:31:20,3,distance,cathedral,numerosity_judgement,4,28,3,countries_reversed,"['_Oman_reversed', '_Yemen_reversed', '_Cuba_reversed']","['f', 'm', 'f']","['p284', 'p307', 'p268']","[9, 7, 3]","[92.00610777531934, 91.73820004985969, 89.14911522239515]",2.0,False,8.333333333333334,3.055050463303893,1.8123769760131836,0.5765633866757462
0,,sub_102,2024-07-09 09:31:24,3,distance,cathedral,numerosity_judgement,4,29,5,countries_reversed,"['_Belgium_reversed', '_Syria_reversed', '_Tonga_reversed', '_Mali_reversed', '_Peru_reversed']","['f', 'f', 'm', 'f', 'm']","['p245', 'p248', 'p318', 'p268', 'p256']","[10, 4, 5, 8, 0]","[93.00003341222717, 89.31368318402099, 90.34149293193902, 92.0152836843556, 84.40078082039426]",4.0,False,7.4,3.847076812334269,2.5623247623443604,0.9021450459652708
0,,sub_102,2024-07-09 09:31:30,3,distance,cathedral,numerosity_judgement,4,30,6,countries_reversed,"['_Syria_reversed', '_Peru_reversed', '_Tonga_reversed', '_Togo_reversed', '_Sudan_reversed', '_Japan_reversed']","['f', 'm', 'f', 'm', 'f', 'm']","['p268', 'p229', 'p248', 'p256', 'p284', 'p318']","[1, 3, 7, 9, 10, 2]","[86.2038576498559, 89.14911522239515, 91.73820004985969, 92.00610777531934, 93.00003341222717, 87.57049330475357]",3.0,False,7.333333333333333,3.8297084310253524,4.374701261520386,0.9600839859266824
0,,sub_102,2024-07-09 09:31:32,3,distance,cathedral,numerosity_judgement,4,31,2,countries_reversed,"['_Tonga_reversed', '_Yemen_reversed']","['f', 'f']","['p245', 'p248']","[10, 6]","[93.00003341222717, 91.58892582949886]",2.0,True,10.0,2.8284271247461903,1.4374010562896729,0.6908977414595392
0,,sub_102,2024-07-09 09:31:35,3,distance,cathedral,numerosity_judgement,4,32,5,countries_reversed,"['_Yemen_reversed', '_Tonga_reversed', '_Sudan_reversed', '_Cuba_reversed', '_Peru_reversed']","['m', 'm', 'f', 'f', 'f']","['p318', 'p229', 'p248', 'p245', 'p268']","[6, 2, 1, 10, 7]","[91.58892582949886, 87.57049330475357, 86.2038576498559, 93.00003341222717, 91.73820004985969]",3.0,False,7.2,3.7013511046643495,1.437401533126831,0.8485188968335036
0,,sub_102,2024-07-09 09:31:38,3,distance,cathedral,numerosity_judgement,4,33,4,countries_reversed,"['_Congo_reversed', '_Tonga_reversed', '_Peru_reversed', '_Japan_reversed']","['m', 'f', 'f', 'm']","['p318', 'p284', 'p245', 'p256']","[8, 3, 10, 4]","[92.0152836843556, 89.14911522239515, 93.00003341222717, 89.31368318402099]",4.0,True,8.25,3.304037933599835,1.6248888969421387,0.8776415843831574
0,,sub_102,2024-07-09 09:31:41,3,distance,cathedral,numerosity_judgement,4,34,3,countries_reversed,"['_Syria_reversed', '_Mali_reversed', '_Britain_reversed']","['f', 'f', 'm']","['p284', 'p268', 'p256']","[0, 6, 7]","[84.40078082039426, 91.58892582949886, 91.73820004985969]",3.0,True,6.333333333333333,3.7859388972001824,1.49989652633667,0.8447849279309954
