,event_id,timestamp,subject_id,session_index,plane,setup,task,block,trial_index,stim_type,headpose_offset_azi,headpose_offset_ele,stim_filename,stim_level,mgb_level,fluctuation,speaker_id,speaker_proc,speaker_chan,stim_azi,stim_ele,stim_dist,resp_azi,resp_ele,resp_dist,reaction_time
0,,2024-07-09 08:43:59,sub_102,3,distance,cathedral,localisation_accuracy,1,0,babble,,,babble-reversed_n13_p318-three-p229-one-p256-eight-p245-five-p248-four-p284-nine.wav,93.28663928007,30,0.4056426504153773,10,RX81,11,0.0,0.0,12.0,0,0,10.023460410557185,4.077799320220947
0,,2024-07-09 08:44:03,sub_102,3,distance,cathedral,localisation_accuracy,1,1,babble,,,babble-reversed_n13_p256-eight-p229-three-p307-nine-p245-five-p248-four-p268-two.wav,88.9630489740756,30,-0.46456276420492015,4,RX81,5,0.0,0.0,6.0,0,0,6.064516129032258,3.1090965270996094
0,,2024-07-09 08:44:08,sub_102,3,distance,cathedral,localisation_accuracy,1,2,babble,,,babble-reversed_n13_p318-five-p256-nine-p307-two-p245-eight-p248-one-p284-four.wav,86.35756631453569,30,0.22574944342491732,1,RX81,2,0.0,0.0,3.0,0,0,3.6011730205278596,3.6090598106384277
0,,2024-07-09 08:44:13,sub_102,3,distance,cathedral,localisation_accuracy,1,3,babble,,,babble-reversed_n13_p256-three-p318-two-p229-nine-p248-four-p284-one-p268-eight.wav,90.60381344583448,30,0.37739860106942924,5,RX81,6,0.0,0.0,7.0,0,0,9.304985337243403,4.124671697616577
0,,2024-07-09 08:44:18,sub_102,3,distance,cathedral,localisation_accuracy,1,4,babble,,,babble-reversed_n13_p256-eight-p229-three-p307-nine-p245-five-p248-four-p268-two.wav,91.83257998982938,30,0.3493110837285598,6,RX81,7,0.0,0.0,8.0,0,0,7.35483870967742,3.9371862411499023
0,,2024-07-09 08:44:22,sub_102,3,distance,cathedral,localisation_accuracy,1,5,babble,,,babble-reversed_n13_p256-eight-p229-three-p307-nine-p245-five-p248-four-p268-two.wav,91.99324890778752,30,0.3544262566961265,7,RX81,8,0.0,0.0,9.0,0,0,9.744868035190617,2.8591108322143555
0,,2024-07-09 08:44:26,sub_102,3,distance,cathedral,localisation_accuracy,1,6,babble,,,babble-reversed_n13_p229-five-p318-two-p307-eight-p268-three-p248-four-p245-one.wav,87.29199128203837,30,-0.4005350164290342,2,RX81,3,0.0,0.0,4.0,0,0,5.184750733137831,3.0622246265411377
0,,2024-07-09 08:44:30,sub_102,3,distance,cathedral,localisation_accuracy,1,7,babble,,,babble-reversed_n13_p318-five-p229-four-p256-eight-p284-one-p245-three-p248-two.wav,88.84967814383714,30,-0.42349378193171916,3,RX81,4,0.0,0.0,5.0,0,0,7.530791788856305,2.671644926071167
0,,2024-07-09 08:44:37,sub_102,3,distance,cathedral,localisation_accuracy,1,8,babble,,,babble-reversed_n13_p229-three-p256-one-p307-two-p284-eight-p268-five-p248-nine.wav,84.55249008327499,30,0.22637060333852266,0,RX81,1,0.0,0.0,2.0,0,0,2.780058651026393,5.749559640884399
0,,2024-07-09 08:44:43,sub_102,3,distance,cathedral,localisation_accuracy,1,9,babble,,,babble-reversed_n13_p256-three-p318-two-p229-nine-p248-four-p284-one-p268-eight.wav,92.17855502039393,30,0.24341319970273245,9,RX81,10,0.0,0.0,11.0,0,0,11.064516129032258,4.999611139297485
0,,2024-07-09 08:44:48,sub_102,3,distance,cathedral,localisation_accuracy,1,10,babble,,,babble-reversed_n13_p318-four-p256-five-p229-three-p284-one-p245-eight-p248-nine.wav,91.93538544106123,30,-0.11264729596625189,8,RX81,9,0.0,0.0,10.0,0,0,11.768328445747802,3.4215941429138184
0,,2024-07-09 08:44:59,sub_102,3,distance,cathedral,localisation_accuracy,1,11,babble,,,babble-reversed_n13_p256-four-p229-eight-p307-five-p248-three-p245-one-p284-two.wav,84.40522931429567,30,0.006613561540913082,0,RX81,1,0.0,0.0,2.0,0,0,2.4428152492668627,9.811826467514038
0,,2024-07-09 08:45:06,sub_102,3,distance,cathedral,localisation_accuracy,1,12,babble,,,babble-reversed_n13_p229-nine-p318-one-p307-two-p248-eight-p245-five-p284-four.wav,93.10030461963208,30,0.14129792857020684,10,RX81,11,0.0,0.0,12.0,0,0,10.844574780058652,6.030766248703003
0,,2024-07-09 08:45:11,sub_102,3,distance,cathedral,localisation_accuracy,1,13,babble,,,babble-reversed_n13_p229-one-p318-eight-p256-three-p268-nine-p248-five-p284-four.wav,91.78887559461965,30,-0.30384175287248705,9,RX81,10,0.0,0.0,11.0,0,0,11.841642228739003,4.484571695327759
0,,2024-07-09 08:45:15,sub_102,3,distance,cathedral,localisation_accuracy,1,14,babble,,,babble-reversed_n13_p318-five-p229-three-p256-four-p268-eight-p248-one-p245-nine.wav,91.74971982452834,30,0.2300658292522345,6,RX81,7,0.0,0.0,8.0,0,0,10.4633431085044,2.3122944831848145
0,,2024-07-09 08:45:18,sub_102,3,distance,cathedral,localisation_accuracy,1,15,babble,,,babble-reversed_n13_p256-eight-p229-three-p307-nine-p245-five-p248-four-p268-two.wav,89.61706785402143,30,0.40785314228538116,4,RX81,5,0.0,0.0,6.0,0,0,7.765395894428153,2.4841387271881104
0,,2024-07-09 08:45:23,sub_102,3,distance,cathedral,localisation_accuracy,1,16,babble,,,babble-reversed_n13_p307-five-p229-three-p318-nine-p245-four-p268-eight-p284-two.wav,91.7947554482048,30,-0.30989287930667986,8,RX81,9,0.0,0.0,10.0,0,0,11.005865102639296,4.077779769897461
0,,2024-07-09 08:45:28,sub_102,3,distance,cathedral,localisation_accuracy,1,17,babble,,,babble-reversed_n13_p307-nine-p318-two-p256-one-p245-three-p268-four-p248-eight.wav,88.81915742042963,30,-0.46632207881397136,3,RX81,4,0.0,0.0,5.0,0,0,7.6334310850439895,3.7965481281280518
0,,2024-07-09 08:45:33,sub_102,3,distance,cathedral,localisation_accuracy,1,18,babble,,,babble-reversed_n13_p256-five-p229-one-p318-three-p248-nine-p284-eight-p268-two.wav,87.25188916566594,30,-0.4577667974825097,2,RX81,3,0.0,0.0,4.0,0,0,6.064516129032258,3.5153379440307617
0,,2024-07-09 08:45:38,sub_102,3,distance,cathedral,localisation_accuracy,1,19,babble,,,babble-reversed_n13_p256-eight-p318-two-p307-five-p245-four-p268-nine-p284-one.wav,86.45817497000368,30,0.3744308117283477,1,RX81,2,0.0,0.0,3.0,0,0,2.809384164222874,4.2652881145477295
0,,2024-07-09 08:45:44,sub_102,3,distance,cathedral,localisation_accuracy,1,20,babble,,,babble-reversed_n13_p229-three-p256-nine-p318-five-p248-one-p245-eight-p284-two.wav,91.90591280666784,30,0.23259151072998474,7,RX81,8,0.0,0.0,9.0,0,0,9.774193548387098,4.093404531478882
0,,2024-07-09 08:45:48,sub_102,3,distance,cathedral,localisation_accuracy,1,21,babble,,,babble-reversed_n13_p318-three-p229-one-p256-eight-p245-five-p248-four-p284-nine.wav,90.28152954720512,30,-0.08560838181954045,5,RX81,6,0.0,0.0,7.0,0,0,10.976539589442815,3.2028591632843018
0,,2024-07-09 08:45:51,sub_102,3,distance,cathedral,localisation_accuracy,1,22,babble,,,babble-reversed_n13_p318-nine-p307-eight-p229-two-p284-one-p248-three-p245-five.wav,92.27745253844763,30,0.38389937572231003,9,RX81,10,0.0,0.0,11.0,0,0,11.900293255131965,2.374791145324707
0,,2024-07-09 08:45:57,sub_102,3,distance,cathedral,localisation_accuracy,1,23,babble,,,babble-reversed_n13_p307-four-p318-three-p256-eight-p284-two-p245-nine-p248-five.wav,89.37383800858008,30,0.3218037161420002,3,RX81,4,0.0,0.0,5.0,0,0,7.574780058651028,4.718360900878906
0,,2024-07-09 08:46:02,sub_102,3,distance,cathedral,localisation_accuracy,1,24,babble,,,babble-reversed_n13_p229-nine-p256-four-p318-three-p268-eight-p248-two-p284-five.wav,84.21829788035225,30,-0.2700441584158294,0,RX81,1,0.0,0.0,2.0,0,0,2.545454545454546,3.45281982421875
0,,2024-07-09 08:46:06,sub_102,3,distance,cathedral,localisation_accuracy,1,25,babble,,,babble-reversed_n13_p256-four-p307-eight-p318-two-p248-three-p284-nine-p268-one.wav,87.51338487967712,30,-0.08257135078349531,2,RX81,3,0.0,0.0,4.0,0,0,4.803519061583578,2.7653884887695312
0,,2024-07-09 08:46:10,sub_102,3,distance,cathedral,localisation_accuracy,1,26,babble,,,babble-reversed_n13_p256-four-p229-eight-p307-five-p248-three-p245-one-p284-two.wav,90.27115357239813,30,-0.10039711579200694,5,RX81,6,0.0,0.0,7.0,0,0,7.912023460410557,3.124739646911621
0,,2024-07-09 08:46:14,sub_102,3,distance,cathedral,localisation_accuracy,1,27,babble,,,babble-reversed_n13_p229-nine-p318-one-p307-two-p248-eight-p245-five-p284-four.wav,91.35355681471793,30,-0.33361499138732853,6,RX81,7,0.0,0.0,8.0,0,0,9.950146627565983,2.5310301780700684
0,,2024-07-09 08:46:17,sub_102,3,distance,cathedral,localisation_accuracy,1,28,babble,,,babble-reversed_n13_p307-five-p229-two-p318-four-p248-three-p245-nine-p268-eight.wav,89.37723203008383,30,0.08497607164001597,4,RX81,5,0.0,0.0,6.0,0,0,7.941348973607038,2.4529101848602295
0,,2024-07-09 08:46:22,sub_102,3,distance,cathedral,localisation_accuracy,1,29,babble,,,babble-reversed_n13_p307-one-p318-five-p229-four-p268-eight-p284-two-p245-three.wav,93.0980329788355,30,0.1380894729053196,10,RX81,11,0.0,0.0,12.0,0,0,10.82991202346041,3.4059505462646484
0,,2024-07-09 08:46:26,sub_102,3,distance,cathedral,localisation_accuracy,1,30,babble,,,babble-reversed_n13_p307-nine-p318-two-p256-one-p245-three-p268-four-p248-eight.wav,85.97557205994042,30,-0.3321715277361741,1,RX81,2,0.0,0.0,3.0,0,0,6.152492668621701,3.046600341796875
0,,2024-07-09 08:46:30,sub_102,3,distance,cathedral,localisation_accuracy,1,31,babble,,,babble-reversed_n13_p307-five-p229-two-p318-four-p248-three-p245-nine-p268-eight.wav,92.06596880002051,30,0.07168015764445246,8,RX81,9,0.0,0.0,10.0,0,0,10.653958944281525,3.1091132164001465
0,,2024-07-09 08:46:35,sub_102,3,distance,cathedral,localisation_accuracy,1,32,babble,,,babble-reversed_n13_p229-one-p318-eight-p256-three-p268-two-p245-five-p248-nine.wav,91.70520398112957,30,-0.04554932185349114,7,RX81,8,0.0,0.0,9.0,0,0,11.0791788856305,3.671605348587036
0,,2024-07-09 08:46:40,sub_102,3,distance,cathedral,localisation_accuracy,1,33,babble,,,babble-reversed_n13_p229-two-p307-five-p318-four-p284-one-p248-nine-p268-eight.wav,89.3454030100323,30,0.042384985355993776,4,RX81,5,0.0,0.0,6.0,0,0,9.290322580645162,3.890288829803467
0,,2024-07-09 08:46:44,sub_102,3,distance,cathedral,localisation_accuracy,1,34,babble,,,babble-reversed_n13_p256-four-p307-eight-p318-two-p248-three-p284-nine-p268-one.wav,91.50051790071828,30,-0.12574819074926535,6,RX81,7,0.0,0.0,8.0,0,0,10.815249266862171,2.4216413497924805
0,,2024-07-09 08:46:47,sub_102,3,distance,cathedral,localisation_accuracy,1,35,babble,,,babble-reversed_n13_p256-four-p229-two-p318-five-p268-one-p248-eight-p245-three.wav,88.85358072717611,30,-0.41801299354969357,3,RX81,4,0.0,0.0,5.0,0,0,11.548387096774194,2.843486785888672
0,,2024-07-09 08:46:52,sub_102,3,distance,cathedral,localisation_accuracy,1,36,babble,,,babble-reversed_n13_p229-nine-p256-four-p318-three-p268-eight-p248-two-p284-five.wav,90.02895564244191,30,-0.44352903795954157,5,RX81,6,0.0,0.0,7.0,0,0,10.595307917888563,3.202838182449341
0,,2024-07-09 08:46:55,sub_102,3,distance,cathedral,localisation_accuracy,1,37,babble,,,babble-reversed_n13_p318-five-p229-three-p256-four-p268-eight-p248-one-p245-nine.wav,92.30014732551858,30,0.4050913717925282,8,RX81,9,0.0,0.0,10.0,0,0,11.826979472140764,2.5622594356536865
0,,2024-07-09 08:46:59,sub_102,3,distance,cathedral,localisation_accuracy,1,38,babble,,,babble-reversed_n13_p256-five-p307-nine-p318-three-p284-eight-p268-one-p248-two.wav,87.6907600268039,30,0.17463610675246732,2,RX81,3,0.0,0.0,4.0,0,0,8.454545454545455,2.4528887271881104
0,,2024-07-09 08:47:03,sub_102,3,distance,cathedral,localisation_accuracy,1,39,babble,,,babble-reversed_n13_p318-three-p229-one-p256-eight-p245-five-p248-four-p284-nine.wav,92.18425795473836,30,0.2514966702730662,9,RX81,10,0.0,0.0,11.0,0,0,10.932551319648095,3.0309953689575195
0,,2024-07-09 08:47:07,sub_102,3,distance,cathedral,localisation_accuracy,1,40,babble,,,babble-reversed_n13_p229-nine-p256-four-p318-three-p268-eight-p248-two-p284-five.wav,92.06052146002627,30,0.44860679587282093,7,RX81,8,0.0,0.0,9.0,0,0,10.140762463343108,2.8122613430023193
0,,2024-07-09 08:47:14,sub_102,3,distance,cathedral,localisation_accuracy,1,41,babble,,,babble-reversed_n13_p318-five-p256-nine-p307-eight-p248-two-p245-four-p284-three.wav,92.94621919583244,30,-0.07555937076149777,10,RX81,11,0.0,0.0,12.0,0,0,10.991202346041057,5.249593734741211
0,,2024-07-09 08:47:18,sub_102,3,distance,cathedral,localisation_accuracy,1,42,babble,,,babble-reversed_n13_p229-five-p318-three-p307-two-p245-four-p284-nine-p248-eight.wav,84.66056881987885,30,0.3886797425876276,0,RX81,1,0.0,0.0,2.0,0,0,2.6041055718475077,3.843501567840576
0,,2024-07-09 08:47:23,sub_102,3,distance,cathedral,localisation_accuracy,1,43,babble,,,babble-reversed_n13_p318-one-p307-two-p256-eight-p284-three-p248-five-p245-four.wav,86.46281808150391,30,0.381310117164128,1,RX81,2,0.0,0.0,3.0,0,0,3.190615835777127,2.905982494354248
0,,2024-07-09 08:47:26,sub_102,3,distance,cathedral,localisation_accuracy,1,44,babble,,,babble-reversed_n13_p318-nine-p307-eight-p229-two-p284-one-p248-three-p245-five.wav,87.88397629511731,30,0.45733136076560343,2,RX81,3,0.0,0.0,4.0,0,0,3.9237536656891496,2.7653701305389404
0,,2024-07-09 08:47:31,sub_102,3,distance,cathedral,localisation_accuracy,1,45,babble,,,babble-reversed_n13_p318-three-p229-one-p256-eight-p245-five-p248-four-p284-nine.wav,91.78887341129267,30,-0.3038447911657193,9,RX81,10,0.0,0.0,11.0,0,0,8.777126099706745,3.7965474128723145
0,,2024-07-09 08:47:35,sub_102,3,distance,cathedral,localisation_accuracy,1,46,babble,,,babble-reversed_n13_p256-four-p307-eight-p318-two-p248-three-p284-nine-p268-one.wav,91.91465897501575,30,-0.1418000604763111,8,RX81,9,0.0,0.0,10.0,0,0,10.038123167155426,2.562257766723633
0,,2024-07-09 08:47:38,sub_102,3,distance,cathedral,localisation_accuracy,1,47,babble,,,babble-reversed_n13_p256-three-p318-two-p229-nine-p248-four-p284-one-p268-eight.wav,92.74403863353555,30,-0.35774003386235764,10,RX81,11,0.0,0.0,12.0,0,0,10.961876832844576,2.2029058933258057
0,,2024-07-09 08:47:44,sub_102,3,distance,cathedral,localisation_accuracy,1,48,babble,,,babble-reversed_n13_p307-five-p229-two-p318-four-p248-three-p245-nine-p268-eight.wav,84.52357887100843,30,0.1830998416795958,0,RX81,1,0.0,0.0,2.0,0,0,2.3108504398826986,4.187166929244995
0,,2024-07-09 08:47:47,sub_102,3,distance,cathedral,localisation_accuracy,1,49,babble,,,babble-reversed_n13_p256-four-p307-eight-p318-two-p248-three-p284-nine-p268-one.wav,86.44963774413421,30,0.36178599143362733,1,RX81,2,0.0,0.0,3.0,0,0,2.8533724340175954,2.171656847000122
0,,2024-07-09 08:47:54,sub_102,3,distance,cathedral,localisation_accuracy,1,50,babble,,,babble-reversed_n13_p229-two-p307-five-p318-four-p284-one-p248-nine-p268-eight.wav,89.07569535080124,30,-0.10439552392324192,3,RX81,4,0.0,0.0,5.0,0,0,6.812316715542522,5.890153884887695
0,,2024-07-09 08:47:59,sub_102,3,distance,cathedral,localisation_accuracy,1,51,babble,,,babble-reversed_n13_p229-three-p256-one-p307-two-p284-eight-p268-five-p248-nine.wav,89.31240909398889,30,-0.0017012276492167633,4,RX81,5,0.0,0.0,6.0,0,0,7.384164222873901,3.577812910079956
0,,2024-07-09 08:48:03,sub_102,3,distance,cathedral,localisation_accuracy,1,52,babble,,,babble-reversed_n13_p229-three-p256-nine-p318-five-p248-one-p245-eight-p284-two.wav,91.74111312429719,30,0.21770669525300113,6,RX81,7,0.0,0.0,8.0,0,0,8.513196480938417,3.359098434448242
0,,2024-07-09 08:48:08,sub_102,3,distance,cathedral,localisation_accuracy,1,53,babble,,,babble-reversed_n13_p229-five-p318-two-p307-eight-p268-three-p248-four-p245-one.wav,91.62205031778802,30,-0.1600320249964805,7,RX81,8,0.0,0.0,9.0,0,0,9.363636363636365,4.04653000831604
0,,2024-07-09 08:48:13,sub_102,3,distance,cathedral,localisation_accuracy,1,54,babble,,,babble-reversed_n13_p307-five-p229-two-p318-four-p248-three-p245-nine-p268-eight.wav,90.00866824582548,30,-0.4720916718850937,5,RX81,6,0.0,0.0,7.0,0,0,7.868035190615837,3.2653815746307373
0,,2024-07-09 08:51:33,sub_102,3,distance,cathedral,localisation_accuracy,2,0,babble,,,babble-reversed_n13_p229-three-p307-one-p318-two-p245-eight-p268-five-p284-four.wav,87.52952822373216,30,-0.059253244970770114,2,RX81,3,0.0,0.0,4.0,0,0,5.712609970674487,4.609029054641724
0,,2024-07-09 08:51:36,sub_102,3,distance,cathedral,localisation_accuracy,2,1,babble,,,babble-reversed_n13_p256-five-p229-one-p318-three-p248-nine-p284-eight-p268-two.wav,89.43897091018198,30,0.41571783565377074,3,RX81,4,0.0,0.0,5.0,0,0,8.87976539589443,2.4529101848602295
0,,2024-07-09 08:51:40,sub_102,3,distance,cathedral,localisation_accuracy,2,2,babble,,,babble-reversed_n13_p256-nine-p307-four-p229-one-p284-three-p248-two-p245-five.wav,89.0358797484914,30,-0.36866338069902027,4,RX81,5,0.0,0.0,6.0,0,0,10.448680351906159,2.1404104232788086
0,,2024-07-09 08:51:43,sub_102,3,distance,cathedral,localisation_accuracy,2,3,babble,,,babble-reversed_n13_p318-three-p229-one-p256-eight-p245-five-p248-four-p284-nine.wav,91.57291933263359,30,-0.2274678996225581,7,RX81,8,0.0,0.0,9.0,0,0,11.680351906158359,1.8123056888580322
0,,2024-07-09 08:51:45,sub_102,3,distance,cathedral,localisation_accuracy,2,4,babble,,,babble-reversed_n13_p256-four-p307-eight-p318-two-p248-three-p284-nine-p268-one.wav,91.7860445589664,30,-0.30778112904844157,9,RX81,10,0.0,0.0,11.0,0,0,12.428152492668623,1.5154738426208496
0,,2024-07-09 08:51:48,sub_102,3,distance,cathedral,localisation_accuracy,2,5,babble,,,babble-reversed_n13_p229-two-p256-three-p318-eight-p284-five-p268-four-p245-one.wav,91.89848426020332,30,0.44449061730547834,6,RX81,7,0.0,0.0,8.0,0,0,12.750733137829913,1.734273910522461
0,,2024-07-09 08:51:52,sub_102,3,distance,cathedral,localisation_accuracy,2,6,babble,,,babble-reversed_n13_p318-nine-p307-eight-p229-two-p284-one-p248-three-p245-five.wav,86.19866075649577,30,-0.007603055777635981,1,RX81,2,0.0,0.0,3.0,0,0,4.9208211143695015,3.1247174739837646
0,,2024-07-09 08:51:57,sub_102,3,distance,cathedral,localisation_accuracy,2,7,babble,,,babble-reversed_n13_p318-three-p307-one-p256-five-p248-nine-p245-two-p284-eight.wav,91.6975923288318,30,-0.4454115400067078,8,RX81,9,0.0,0.0,10.0,0,0,9.642228739002933,3.7496771812438965
0,,2024-07-09 08:52:01,sub_102,3,distance,cathedral,localisation_accuracy,2,8,babble,,,babble-reversed_n13_p307-one-p318-five-p229-four-p268-eight-p284-two-p245-three.wav,92.97894585248494,30,-0.02963129026596767,10,RX81,11,0.0,0.0,12.0,0,0,10.609970674486805,2.53100848197937
0,,2024-07-09 08:52:04,sub_102,3,distance,cathedral,localisation_accuracy,2,9,babble,,,babble-reversed_n13_p318-nine-p307-eight-p229-two-p284-one-p248-three-p245-five.wav,90.06899831313574,30,-0.3870718356526368,5,RX81,6,0.0,0.0,7.0,0,0,6.6950146627565985,2.109191417694092
0,,2024-07-09 08:52:11,sub_102,3,distance,cathedral,localisation_accuracy,2,10,babble,,,babble-reversed_n13_p318-three-p229-one-p256-eight-p245-five-p248-four-p284-nine.wav,84.10470176994686,30,-0.436918396713603,0,RX81,1,0.0,0.0,2.0,0,0,2.1788856304985336,6.17139196395874
0,,2024-07-09 08:52:15,sub_102,3,distance,cathedral,localisation_accuracy,2,11,babble,,,babble-reversed_n13_p318-five-p229-three-p256-four-p268-eight-p248-one-p245-nine.wav,89.17880269718842,30,0.04231597648403196,3,RX81,4,0.0,0.0,5.0,0,0,3.6158357771261,2.1247873306274414
0,,2024-07-09 08:52:19,sub_102,3,distance,cathedral,localisation_accuracy,2,12,babble,,,babble-reversed_n13_p229-two-p307-five-p318-four-p284-one-p248-nine-p268-eight.wav,91.95861274910416,30,0.3060498268644213,7,RX81,8,0.0,0.0,9.0,0,0,8.425219941348974,3.280961036682129
0,,2024-07-09 08:52:23,sub_102,3,distance,cathedral,localisation_accuracy,2,13,babble,,,babble-reversed_n13_p229-nine-p318-one-p307-two-p248-eight-p245-five-p284-four.wav,87.27899677865688,30,-0.41909226912370434,2,RX81,3,0.0,0.0,4.0,0,0,9.598240469208212,2.718496084213257
0,,2024-07-09 08:52:26,sub_102,3,distance,cathedral,localisation_accuracy,2,14,babble,,,babble-reversed_n13_p256-five-p229-one-p318-three-p248-nine-p284-eight-p268-two.wav,89.09418076679856,30,-0.29167159982361057,4,RX81,5,0.0,0.0,6.0,0,0,6.841642228739003,2.327920913696289
0,,2024-07-09 08:52:31,sub_102,3,distance,cathedral,localisation_accuracy,2,15,babble,,,babble-reversed_n13_p318-five-p229-three-p256-four-p268-eight-p248-one-p245-nine.wav,85.97097382039718,30,-0.3388243635869834,1,RX81,2,0.0,0.0,3.0,0,0,3.2785923753665696,3.327850580215454
0,,2024-07-09 08:52:34,sub_102,3,distance,cathedral,localisation_accuracy,2,16,babble,,,babble-reversed_n13_p318-three-p307-one-p256-five-p248-nine-p245-two-p284-eight.wav,84.32077310819719,30,-0.11869865453083894,0,RX81,1,0.0,0.0,2.0,0,0,2.2375366568914963,2.077915906906128
0,,2024-07-09 08:52:38,sub_102,3,distance,cathedral,localisation_accuracy,2,17,babble,,,babble-reversed_n13_p229-one-p318-nine-p256-four-p284-eight-p268-five-p245-two.wav,92.04408422188055,30,0.053435850865396595,9,RX81,10,0.0,0.0,11.0,0,0,9.070381231671554,2.8591113090515137
0,,2024-07-09 08:52:42,sub_102,3,distance,cathedral,localisation_accuracy,2,18,babble,,,babble-reversed_n13_p307-two-p229-one-p256-five-p248-nine-p284-three-p268-eight.wav,90.05623302441187,30,-0.4050816478679783,5,RX81,6,0.0,0.0,7.0,0,0,9.598240469208212,2.6872479915618896
0,,2024-07-09 08:52:44,sub_102,3,distance,cathedral,localisation_accuracy,2,19,babble,,,babble-reversed_n13_p229-three-p256-nine-p318-five-p248-one-p245-eight-p284-two.wav,93.07012852124758,30,0.09870519108987685,10,RX81,11,0.0,0.0,12.0,0,0,9.86217008797654,1.5779495239257812
0,,2024-07-09 08:52:48,sub_102,3,distance,cathedral,localisation_accuracy,2,20,babble,,,babble-reversed_n13_p229-eight-p256-nine-p318-four-p245-three-p268-five-p284-two.wav,91.7042519948222,30,-0.43614272126769915,8,RX81,9,0.0,0.0,10.0,0,0,10.668621700879767,2.3747692108154297
0,,2024-07-09 08:52:51,sub_102,3,distance,cathedral,localisation_accuracy,2,21,babble,,,babble-reversed_n13_p229-nine-p307-five-p256-two-p248-three-p245-one-p268-eight.wav,91.2418762610802,30,-0.4906120611876613,6,RX81,7,0.0,0.0,8.0,0,0,11.475073313782993,1.5623269081115723
0,,2024-07-09 08:52:54,sub_102,3,distance,cathedral,localisation_accuracy,2,22,babble,,,babble-reversed_n13_p318-five-p229-four-p256-eight-p284-one-p245-three-p248-two.wav,89.61372158404359,30,0.4033245025966631,4,RX81,5,0.0,0.0,6.0,0,0,8.234604105571847,2.687291145324707
0,,2024-07-09 08:52:57,sub_102,3,distance,cathedral,localisation_accuracy,2,23,babble,,,babble-reversed_n13_p229-eight-p256-nine-p318-four-p245-three-p268-five-p284-two.wav,91.82496480238314,30,-0.26763175526799865,8,RX81,9,0.0,0.0,10.0,0,0,10.4633431085044,1.9841926097869873
0,,2024-07-09 08:53:02,sub_102,3,distance,cathedral,localisation_accuracy,2,24,babble,,,babble-reversed_n13_p229-five-p256-three-p318-nine-p248-two-p284-four-p268-one.wav,92.95095790264911,30,-0.06891350368055538,10,RX81,11,0.0,0.0,12.0,0,0,11.548387096774194,3.1872355937957764
0,,2024-07-09 08:53:05,sub_102,3,distance,cathedral,localisation_accuracy,2,25,babble,,,babble-reversed_n13_p256-eight-p229-three-p307-nine-p245-five-p248-four-p268-two.wav,91.97806784506803,30,0.33321332105915813,7,RX81,8,0.0,0.0,9.0,0,0,11.093841642228739,1.9216973781585693
0,,2024-07-09 08:53:08,sub_102,3,distance,cathedral,localisation_accuracy,2,26,babble,,,babble-reversed_n13_p256-four-p229-two-p318-five-p268-one-p248-eight-p245-three.wav,91.27539201949361,30,-0.44358410050265584,6,RX81,7,0.0,0.0,8.0,0,0,9.8475073313783,2.265401601791382
0,,2024-07-09 08:53:12,sub_102,3,distance,cathedral,localisation_accuracy,2,27,babble,,,babble-reversed_n13_p307-two-p256-four-p318-three-p284-eight-p248-five-p245-nine.wav,88.88629526668612,30,-0.37202873118031665,3,RX81,4,0.0,0.0,5.0,0,0,5.580645161290323,2.702892541885376
0,,2024-07-09 08:53:15,sub_102,3,distance,cathedral,localisation_accuracy,2,28,babble,,,babble-reversed_n13_p256-three-p318-two-p229-nine-p248-four-p284-one-p268-eight.wav,90.56305982281256,30,0.3184566628044533,5,RX81,6,0.0,0.0,7.0,0,0,7.765395894428153,1.6404445171356201
0,,2024-07-09 08:53:18,sub_102,3,distance,cathedral,localisation_accuracy,2,29,babble,,,babble-reversed_n13_p307-nine-p229-one-p256-eight-p248-four-p284-two-p268-three.wav,86.11436626851903,30,-0.13065714763192005,1,RX81,2,0.0,0.0,3.0,0,0,4.041055718475073,2.1560559272766113
0,,2024-07-09 08:53:24,sub_102,3,distance,cathedral,localisation_accuracy,2,30,babble,,,babble-reversed_n13_p229-five-p318-three-p307-two-p245-four-p284-nine-p248-eight.wav,84.2845407580453,30,-0.17229800085089675,0,RX81,1,0.0,0.0,2.0,0,0,2.7653958944281527,4.421526670455933
0,,2024-07-09 08:53:27,sub_102,3,distance,cathedral,localisation_accuracy,2,31,babble,,,babble-reversed_n13_p256-three-p318-one-p307-two-p284-nine-p268-four-p245-eight.wav,87.80044969055115,30,0.33479981250297297,2,RX81,3,0.0,0.0,4.0,0,0,3.7917888563049855,2.6091301441192627
0,,2024-07-09 08:53:31,sub_102,3,distance,cathedral,localisation_accuracy,2,32,babble,,,babble-reversed_n13_p256-eight-p318-two-p307-five-p245-four-p268-nine-p284-one.wav,92.25327566892223,30,0.34949543140228145,9,RX81,10,0.0,0.0,11.0,0,0,8.454545454545455,2.53102970123291
0,,2024-07-09 08:53:36,sub_102,3,distance,cathedral,localisation_accuracy,2,33,babble,,,babble-reversed_n13_p318-five-p256-nine-p307-eight-p248-two-p245-four-p284-three.wav,89.21184563871584,30,0.0894849656090616,3,RX81,4,0.0,0.0,5.0,0,0,4.686217008797654,3.6559507846832275
0,,2024-07-09 08:53:39,sub_102,3,distance,cathedral,localisation_accuracy,2,34,babble,,,babble-reversed_n13_p256-three-p318-one-p307-two-p284-nine-p268-four-p245-eight.wav,91.60213412124298,30,0.01883238175645585,6,RX81,7,0.0,0.0,8.0,0,0,8.967741935483872,2.452909231185913
0,,2024-07-09 08:53:43,sub_102,3,distance,cathedral,localisation_accuracy,2,35,babble,,,babble-reversed_n13_p256-eight-p318-two-p307-five-p245-four-p268-nine-p284-one.wav,92.89293187866846,30,-0.15019141079574405,10,RX81,11,0.0,0.0,12.0,0,0,9.642228739002933,2.1872823238372803
0,,2024-07-09 08:53:47,sub_102,3,distance,cathedral,localisation_accuracy,2,36,babble,,,babble-reversed_n13_p256-eight-p229-three-p307-nine-p245-five-p248-four-p268-two.wav,87.3155474434962,30,-0.3668651352193454,2,RX81,3,0.0,0.0,4.0,0,0,6.167155425219942,2.999749183654785
0,,2024-07-09 08:53:50,sub_102,3,distance,cathedral,localisation_accuracy,2,37,babble,,,babble-reversed_n13_p256-five-p229-one-p318-three-p248-nine-p284-eight-p268-two.wav,91.88723243935357,30,-0.16665355639206914,9,RX81,10,0.0,0.0,11.0,0,0,10.50733137829912,2.577880382537842
0,,2024-07-09 08:53:54,sub_102,3,distance,cathedral,localisation_accuracy,2,38,babble,,,babble-reversed_n13_p256-three-p318-two-p229-nine-p248-four-p284-one-p268-eight.wav,89.26669305336509,30,-0.06267974120902531,4,RX81,5,0.0,0.0,6.0,0,0,6.005865102639296,2.1404316425323486
0,,2024-07-09 08:53:57,sub_102,3,distance,cathedral,localisation_accuracy,2,39,babble,,,babble-reversed_n13_p318-three-p229-one-p256-eight-p245-five-p248-four-p284-nine.wav,84.39875365977228,30,-0.0030132896715615587,0,RX81,1,0.0,0.0,2.0,0,0,3.806451612903226,2.2186152935028076
0,,2024-07-09 08:54:00,sub_102,3,distance,cathedral,localisation_accuracy,2,40,babble,,,babble-reversed_n13_p318-nine-p307-eight-p229-two-p284-one-p248-three-p245-five.wav,90.60140377851269,30,0.373910315610796,5,RX81,6,0.0,0.0,7.0,0,0,9.085043988269796,2.2810261249542236
0,,2024-07-09 08:54:03,sub_102,3,distance,cathedral,localisation_accuracy,2,41,babble,,,babble-reversed_n13_p229-three-p256-nine-p318-five-p248-one-p245-eight-p284-two.wav,91.79108440712353,30,0.07314856015764204,7,RX81,8,0.0,0.0,9.0,0,0,9.407624633431086,1.6873371601104736
0,,2024-07-09 08:54:06,sub_102,3,distance,cathedral,localisation_accuracy,2,42,babble,,,babble-reversed_n13_p229-three-p256-one-p307-two-p284-eight-p268-five-p248-nine.wav,91.89791049350127,30,-0.16533682501528446,8,RX81,9,0.0,0.0,10.0,0,0,9.686217008797655,1.687314748764038
0,,2024-07-09 08:54:10,sub_102,3,distance,cathedral,localisation_accuracy,2,43,babble,,,babble-reversed_n13_p318-three-p229-one-p256-eight-p245-five-p248-four-p284-nine.wav,85.98641318749706,30,-0.3164804349244221,1,RX81,2,0.0,0.0,3.0,0,0,3.835777126099707,2.9059860706329346
0,,2024-07-09 08:54:15,sub_102,3,distance,cathedral,localisation_accuracy,2,44,babble,,,babble-reversed_n13_p318-three-p229-one-p256-eight-p245-five-p248-four-p284-nine.wav,91.88937404752005,30,0.43131580900486766,6,RX81,7,0.0,0.0,8.0,0,0,7.560117302052786,3.249730348587036
0,,2024-07-09 08:54:18,sub_102,3,distance,cathedral,localisation_accuracy,2,45,babble,,,babble-reversed_n13_p229-five-p318-two-p307-eight-p268-three-p248-four-p245-one.wav,91.80249111724265,30,-0.299076854566496,8,RX81,9,0.0,0.0,10.0,0,0,8.90909090909091,2.5935046672821045
0,,2024-07-09 08:54:24,sub_102,3,distance,cathedral,localisation_accuracy,2,46,babble,,,babble-reversed_n13_p229-two-p307-five-p318-four-p284-one-p248-nine-p268-eight.wav,86.31027856323587,30,0.15611835685181052,1,RX81,2,0.0,0.0,3.0,0,0,3.3812316715542527,4.812102794647217
0,,2024-07-09 08:54:28,sub_102,3,distance,cathedral,localisation_accuracy,2,47,babble,,,babble-reversed_n13_p318-four-p256-five-p229-three-p284-one-p245-eight-p248-nine.wav,90.5948235895794,30,0.3643867350125841,5,RX81,6,0.0,0.0,7.0,0,0,8.175953079178885,2.9216089248657227
0,,2024-07-09 08:54:32,sub_102,3,distance,cathedral,localisation_accuracy,2,48,babble,,,babble-reversed_n13_p318-five-p256-nine-p307-eight-p248-two-p245-four-p284-three.wav,87.65771813580534,30,0.12655582409936528,2,RX81,3,0.0,0.0,4.0,0,0,5.15542521994135,2.3747894763946533
0,,2024-07-09 08:54:35,sub_102,3,distance,cathedral,localisation_accuracy,2,49,babble,,,babble-reversed_n13_p229-one-p318-nine-p256-four-p284-eight-p268-five-p245-two.wav,89.4882748810061,30,0.23403820527816765,4,RX81,5,0.0,0.0,6.0,0,0,9.451612903225808,2.156033754348755
0,,2024-07-09 08:54:39,sub_102,3,distance,cathedral,localisation_accuracy,2,50,babble,,,babble-reversed_n13_p318-three-p307-one-p256-five-p248-nine-p245-two-p284-eight.wav,84.54451371898422,30,0.2144263655661931,0,RX81,1,0.0,0.0,2.0,0,0,3.351906158357772,3.2028582096099854
0,,2024-07-09 08:54:44,sub_102,3,distance,cathedral,localisation_accuracy,2,51,babble,,,babble-reversed_n13_p229-one-p318-eight-p256-three-p268-two-p245-five-p248-nine.wav,89.1635847574511,30,0.02061715619127824,3,RX81,4,0.0,0.0,5.0,0,0,6.563049853372435,3.3278284072875977
0,,2024-07-09 08:54:48,sub_102,3,distance,cathedral,localisation_accuracy,2,52,babble,,,babble-reversed_n13_p229-five-p318-three-p307-two-p245-four-p284-nine-p248-eight.wav,91.66145666958892,30,-0.48062818296415233,9,RX81,10,0.0,0.0,11.0,0,0,8.894428152492669,3.4372189044952393
0,,2024-07-09 08:54:53,sub_102,3,distance,cathedral,localisation_accuracy,2,53,babble,,,babble-reversed_n13_p229-five-p256-three-p318-nine-p248-two-p284-four-p268-one.wav,93.28369366147847,30,0.4014458504054529,10,RX81,11,0.0,0.0,12.0,0,0,9.87683284457478,3.5622148513793945
0,,2024-07-09 08:54:56,sub_102,3,distance,cathedral,localisation_accuracy,2,54,babble,,,babble-reversed_n13_p229-three-p256-nine-p318-five-p248-one-p245-eight-p284-two.wav,91.52068650521319,30,-0.29899415215855163,7,RX81,8,0.0,0.0,9.0,0,0,10.639296187683286,1.952944278717041
0,,2024-07-09 08:56:05,sub_102,3,distance,cathedral,localisation_accuracy,3,0,pinknoise,,,pinknoise_0.wav,92.3145324748904,30,0.4256922961594567,8,RX81,9,0.0,0.0,10.0,0,0,5.80058651026393,5.062133550643921
0,,2024-07-09 08:56:09,sub_102,3,distance,cathedral,localisation_accuracy,3,1,pinknoise,,,pinknoise_5.wav,91.67618642867623,30,-0.08554935702103128,7,RX81,8,0.0,0.0,9.0,0,0,9.114369501466276,3.2497096061706543
0,,2024-07-09 08:56:13,sub_102,3,distance,cathedral,localisation_accuracy,3,2,pinknoise,,,pinknoise_1.wav,91.96224659741539,30,-0.06159790715460556,9,RX81,10,0.0,0.0,11.0,0,0,9.979472140762464,2.2497990131378174
0,,2024-07-09 08:56:19,sub_102,3,distance,cathedral,localisation_accuracy,3,3,pinknoise,,,pinknoise_9.wav,84.08570847252378,30,-0.4647282693780229,0,RX81,1,0.0,0.0,2.0,0,0,2.2375366568914963,4.827726602554321
0,,2024-07-09 08:56:22,sub_102,3,distance,cathedral,localisation_accuracy,3,4,pinknoise,,,pinknoise_6.wav,87.30432295561488,30,-0.38291357492149625,2,RX81,3,0.0,0.0,4.0,0,0,3.8797653958944283,2.437265396118164
0,,2024-07-09 08:56:27,sub_102,3,distance,cathedral,localisation_accuracy,3,5,pinknoise,,,pinknoise_5.wav,91.88599250579989,30,0.4264270159041038,6,RX81,7,0.0,0.0,8.0,0,0,8.483870967741936,3.4371964931488037
0,,2024-07-09 08:56:39,sub_102,3,distance,cathedral,localisation_accuracy,3,6,pinknoise,,,pinknoise_5.wav,89.0366097778429,30,-0.15982294256914553,3,RX81,4,0.0,0.0,5.0,0,0,5.741935483870968,10.952309608459473
0,,2024-07-09 08:56:44,sub_102,3,distance,cathedral,localisation_accuracy,3,7,pinknoise,,,pinknoise_9.wav,89.63299188968153,30,0.42941301494928663,4,RX81,5,0.0,0.0,6.0,0,0,8.87976539589443,3.3747000694274902
0,,2024-07-09 08:56:49,sub_102,3,distance,cathedral,localisation_accuracy,3,8,pinknoise,,,pinknoise_4.wav,86.25762868174652,30,0.07878025611029238,1,RX81,2,0.0,0.0,3.0,0,0,3.5571847507331382,4.0934014320373535
0,,2024-07-09 08:56:56,sub_102,3,distance,cathedral,localisation_accuracy,3,9,pinknoise,,,pinknoise_2.wav,92.9793088938118,30,-0.029121408601528342,10,RX81,11,0.0,0.0,12.0,0,0,10.47800586510264,6.108911037445068
0,,2024-07-09 08:57:01,sub_102,3,distance,cathedral,localisation_accuracy,3,10,pinknoise,,,pinknoise_8.wav,90.38062192542557,30,0.055995639986310075,5,RX81,6,0.0,0.0,7.0,0,0,8.366568914956012,3.843440532684326
0,,2024-07-09 08:57:04,sub_102,3,distance,cathedral,localisation_accuracy,3,11,pinknoise,,,pinknoise_2.wav,92.96379554360392,30,-0.050901754245681774,10,RX81,11,0.0,0.0,12.0,0,0,10.844574780058652,1.890427827835083
0,,2024-07-09 08:57:07,sub_102,3,distance,cathedral,localisation_accuracy,3,12,pinknoise,,,pinknoise_5.wav,92.26041752902302,30,0.34826689569880953,8,RX81,9,0.0,0.0,10.0,0,0,11.533724340175954,1.343611478805542
0,,2024-07-09 08:57:10,sub_102,3,distance,cathedral,localisation_accuracy,3,13,pinknoise,,,pinknoise_4.wav,91.734658020052,30,0.20844054731554895,6,RX81,7,0.0,0.0,8.0,0,0,9.187683284457478,2.2654316425323486
0,,2024-07-09 08:57:15,sub_102,3,distance,cathedral,localisation_accuracy,3,14,pinknoise,,,pinknoise_5.wav,89.41374751743096,30,0.37931415576140826,3,RX81,4,0.0,0.0,5.0,0,0,6.739002932551321,3.124739408493042
0,,2024-07-09 08:57:19,sub_102,3,distance,cathedral,localisation_accuracy,3,15,pinknoise,,,pinknoise_2.wav,90.02254831850793,30,-0.4525528956957252,5,RX81,6,0.0,0.0,7.0,0,0,9.627565982404693,3.077867269515991
0,,2024-07-09 08:57:24,sub_102,3,distance,cathedral,localisation_accuracy,3,16,pinknoise,,,pinknoise_7.wav,87.87636339247337,30,0.4461429435569917,2,RX81,3,0.0,0.0,4.0,0,0,3.322580645161291,4.327781438827515
0,,2024-07-09 08:57:28,sub_102,3,distance,cathedral,localisation_accuracy,3,17,pinknoise,,,pinknoise_4.wav,91.77656779563314,30,-0.32096420981729723,9,RX81,10,0.0,0.0,11.0,0,0,8.95307917888563,2.952937364578247
0,,2024-07-09 08:57:34,sub_102,3,distance,cathedral,localisation_accuracy,3,18,pinknoise,,,pinknoise_5.wav,84.58630625400532,30,0.27706122507336617,0,RX81,1,0.0,0.0,2.0,0,0,2.5894428152492672,4.687135457992554
0,,2024-07-09 08:57:38,sub_102,3,distance,cathedral,localisation_accuracy,3,19,pinknoise,,,pinknoise_3.wav,89.26266851120806,30,-0.06804195198500829,4,RX81,5,0.0,0.0,6.0,0,0,9.158357771260997,2.921628952026367
0,,2024-07-09 08:57:45,sub_102,3,distance,cathedral,localisation_accuracy,3,20,pinknoise,,,pinknoise_4.wav,86.47269948903318,30,0.3959557492817617,1,RX81,2,0.0,0.0,3.0,0,0,4.129032258064517,4.9839866161346436
0,,2024-07-09 08:57:50,sub_102,3,distance,cathedral,localisation_accuracy,3,21,pinknoise,,,pinknoise_9.wav,91.69480450838597,30,-0.0598909038800719,7,RX81,8,0.0,0.0,9.0,0,0,10.624633431085044,3.9527862071990967
0,,2024-07-09 08:57:55,sub_102,3,distance,cathedral,localisation_accuracy,3,22,pinknoise,,,pinknoise_4.wav,91.32349718536096,30,-0.3759538576242828,6,RX81,7,0.0,0.0,8.0,0,0,10.302052785923754,3.968431234359741
0,,2024-07-09 08:57:57,sub_102,3,distance,cathedral,localisation_accuracy,3,23,pinknoise,,,pinknoise_0.wav,91.85277498369751,30,-0.21478681333425798,9,RX81,10,0.0,0.0,11.0,0,0,11.181818181818183,1.3748369216918945
0,,2024-07-09 08:58:02,sub_102,3,distance,cathedral,localisation_accuracy,3,24,pinknoise,,,pinknoise_4.wav,89.00911196232616,30,-0.4039458020397011,4,RX81,5,0.0,0.0,6.0,0,0,6.343108504398828,3.4684650897979736
0,,2024-07-09 08:58:06,sub_102,3,distance,cathedral,localisation_accuracy,3,25,pinknoise,,,pinknoise_8.wav,92.95258148329985,30,-0.06663615033552805,10,RX81,11,0.0,0.0,12.0,0,0,10.111436950146627,2.8434863090515137
0,,2024-07-09 08:58:10,sub_102,3,distance,cathedral,localisation_accuracy,3,26,pinknoise,,,pinknoise_6.wav,84.44004439980758,30,0.05842341815560914,0,RX81,1,0.0,0.0,2.0,0,0,2.897360703812317,3.343453884124756
0,,2024-07-09 08:58:14,sub_102,3,distance,cathedral,localisation_accuracy,3,27,pinknoise,,,pinknoise_0.wav,92.05609182037466,30,0.057698463296804725,8,RX81,9,0.0,0.0,10.0,0,0,9.979472140762464,2.5154054164886475
0,,2024-07-09 08:58:17,sub_102,3,distance,cathedral,localisation_accuracy,3,28,pinknoise,,,pinknoise_6.wav,90.20792993066948,30,-0.1903510369585073,5,RX81,6,0.0,0.0,7.0,0,0,10.653958944281525,1.3279869556427002
0,,2024-07-09 08:58:20,sub_102,3,distance,cathedral,localisation_accuracy,3,29,pinknoise,,,pinknoise_5.wav,88.84298330613768,30,-0.43289364750378756,3,RX81,4,0.0,0.0,5.0,0,0,8.762463343108505,1.7810592651367188
0,,2024-07-09 08:58:24,sub_102,3,distance,cathedral,localisation_accuracy,3,30,pinknoise,,,pinknoise_4.wav,86.05241416542682,30,-0.22077356429782236,1,RX81,2,0.0,0.0,3.0,0,0,4.832844574780059,3.2653331756591797
0,,2024-07-09 08:58:28,sub_102,3,distance,cathedral,localisation_accuracy,3,31,pinknoise,,,pinknoise_0.wav,91.99300097000682,30,0.35407968696798353,7,RX81,8,0.0,0.0,9.0,0,0,9.53958944281525,2.5153846740722656
0,,2024-07-09 08:58:33,sub_102,3,distance,cathedral,localisation_accuracy,3,32,pinknoise,,,pinknoise_5.wav,87.42258563441071,30,-0.21338756735715925,2,RX81,3,0.0,0.0,4.0,0,0,7.765395894428153,3.7496771812438965
0,,2024-07-09 08:58:35,sub_102,3,distance,cathedral,localisation_accuracy,3,33,pinknoise,,,pinknoise_3.wav,91.74028944549005,30,0.21652416581930678,6,RX81,7,0.0,0.0,8.0,0,0,9.964809384164223,1.5935747623443604
0,,2024-07-09 08:58:39,sub_102,3,distance,cathedral,localisation_accuracy,3,34,pinknoise,,,pinknoise_4.wav,86.45876603991724,30,0.3753064634727491,1,RX81,2,0.0,0.0,3.0,0,0,6.10850439882698,2.156034469604492
0,,2024-07-09 08:58:42,sub_102,3,distance,cathedral,localisation_accuracy,3,35,pinknoise,,,pinknoise_0.wav,89.17938552446296,30,-0.17879102537941827,4,RX81,5,0.0,0.0,6.0,0,0,9.2316715542522,1.921675682067871
0,,2024-07-09 08:58:44,sub_102,3,distance,cathedral,localisation_accuracy,3,36,pinknoise,,,pinknoise_6.wav,90.59851773439405,30,0.36973294418318037,5,RX81,6,0.0,0.0,7.0,0,0,10.375366568914957,1.4842469692230225
0,,2024-07-09 08:58:48,sub_102,3,distance,cathedral,localisation_accuracy,3,37,pinknoise,,,pinknoise_7.wav,91.5717219543862,30,-0.22910948520818353,7,RX81,8,0.0,0.0,9.0,0,0,11.211143695014664,2.234175443649292
0,,2024-07-09 08:58:51,sub_102,3,distance,cathedral,localisation_accuracy,3,38,pinknoise,,,pinknoise_4.wav,91.70399582940013,30,-0.4217248849816946,9,RX81,10,0.0,0.0,11.0,0,0,11.870967741935484,1.6560897827148438
0,,2024-07-09 08:58:54,sub_102,3,distance,cathedral,localisation_accuracy,3,39,pinknoise,,,pinknoise_1.wav,84.28959697003367,30,-0.16482400669951325,0,RX81,1,0.0,0.0,2.0,0,0,2.6627565982404695,2.3904170989990234
0,,2024-07-09 08:58:58,sub_102,3,distance,cathedral,localisation_accuracy,3,40,pinknoise,,,pinknoise_9.wav,87.83290159231896,30,0.38234731772318487,2,RX81,3,0.0,0.0,4.0,0,0,5.80058651026393,2.7809934616088867
0,,2024-07-09 08:59:02,sub_102,3,distance,cathedral,localisation_accuracy,3,41,pinknoise,,,pinknoise_1.wav,92.95742380168915,30,-0.05984293015838438,10,RX81,11,0.0,0.0,12.0,0,0,11.812316715542522,2.2029054164886475
0,,2024-07-09 08:59:04,sub_102,3,distance,cathedral,localisation_accuracy,3,42,pinknoise,,,pinknoise_4.wav,92.03589903212618,30,0.029134102733398892,8,RX81,9,0.0,0.0,10.0,0,0,12.35483870967742,1.468581199645996
0,,2024-07-09 08:59:08,sub_102,3,distance,cathedral,localisation_accuracy,3,43,pinknoise,,,pinknoise_7.wav,89.10950831127772,30,-0.056362167539455776,3,RX81,4,0.0,0.0,5.0,0,0,8.249266862170089,2.4841361045837402
0,,2024-07-09 08:59:11,sub_102,3,distance,cathedral,localisation_accuracy,3,44,pinknoise,,,pinknoise_4.wav,87.66390161312484,30,0.1355477634702016,2,RX81,3,0.0,0.0,4.0,0,0,7.604105571847509,2.343522071838379
0,,2024-07-09 08:59:15,sub_102,3,distance,cathedral,localisation_accuracy,3,45,pinknoise,,,pinknoise_1.wav,92.06029632376199,30,0.07627653396370448,9,RX81,10,0.0,0.0,11.0,0,0,11.73900293255132,2.2185511589050293
0,,2024-07-09 08:59:19,sub_102,3,distance,cathedral,localisation_accuracy,3,46,pinknoise,,,pinknoise_3.wav,85.86733142487125,30,-0.488381367152544,1,RX81,2,0.0,0.0,3.0,0,0,2.941348973607038,3.359079599380493
0,,2024-07-09 08:59:23,sub_102,3,distance,cathedral,localisation_accuracy,3,47,pinknoise,,,pinknoise_8.wav,89.04767402097553,30,-0.3531040908424271,4,RX81,5,0.0,0.0,6.0,0,0,9.407624633431086,2.109161376953125
0,,2024-07-09 08:59:26,sub_102,3,distance,cathedral,localisation_accuracy,3,48,pinknoise,,,pinknoise_3.wav,89.4229771689993,30,0.3926297996813769,3,RX81,4,0.0,0.0,5.0,0,0,7.03225806451613,1.9216971397399902
0,,2024-07-09 08:59:29,sub_102,3,distance,cathedral,localisation_accuracy,3,49,pinknoise,,,pinknoise_9.wav,91.38806036218091,30,-0.2849422884037234,6,RX81,7,0.0,0.0,8.0,0,0,9.480938416422289,1.8123297691345215
0,,2024-07-09 08:59:33,sub_102,3,distance,cathedral,localisation_accuracy,3,50,pinknoise,,,pinknoise_3.wav,84.40828687722116,30,0.011160075901091027,0,RX81,1,0.0,0.0,2.0,0,0,2.9120234604105573,2.921628952026367
0,,2024-07-09 08:59:37,sub_102,3,distance,cathedral,localisation_accuracy,3,51,pinknoise,,,pinknoise_2.wav,91.74610619141279,30,0.01092429119669902,7,RX81,8,0.0,0.0,9.0,0,0,10.565982404692082,3.2028372287750244
0,,2024-07-09 08:59:40,sub_102,3,distance,cathedral,localisation_accuracy,3,52,pinknoise,,,pinknoise_0.wav,92.70478543503371,30,-0.41221594924937344,10,RX81,11,0.0,0.0,12.0,0,0,11.196480938416423,1.4998507499694824
0,,2024-07-09 08:59:43,sub_102,3,distance,cathedral,localisation_accuracy,3,53,pinknoise,,,pinknoise_3.wav,90.0342517450473,30,-0.4360681062763473,5,RX81,6,0.0,0.0,7.0,0,0,8.894428152492669,2.062312364578247
0,,2024-07-09 08:59:46,sub_102,3,distance,cathedral,localisation_accuracy,3,54,pinknoise,,,pinknoise_8.wav,92.0356343622271,30,0.028759885668788177,8,RX81,9,0.0,0.0,10.0,0,0,10.15542521994135,1.7185866832733154
0,,2024-07-09 09:00:57,sub_102,3,distance,cathedral,localisation_accuracy,4,0,pinknoise,,,pinknoise_9.wav,90.18834331138726,30,-0.2181637240943991,5,RX81,6,0.0,0.0,7.0,0,0,6.460410557184751,3.687211036682129
0,,2024-07-09 09:01:01,sub_102,3,distance,cathedral,localisation_accuracy,4,1,pinknoise,,,pinknoise_3.wav,91.73005756499455,30,0.2018384381633268,6,RX81,7,0.0,0.0,8.0,0,0,10.111436950146627,2.3903932571411133
0,,2024-07-09 09:01:08,sub_102,3,distance,cathedral,localisation_accuracy,4,2,pinknoise,,,pinknoise_6.wav,89.2505342467326,30,-0.08420356428643172,4,RX81,5,0.0,0.0,6.0,0,0,6.958944281524927,5.640192747116089
0,,2024-07-09 09:01:11,sub_102,3,distance,cathedral,localisation_accuracy,4,3,pinknoise,,,pinknoise_6.wav,93.15828346862969,30,0.2233027160219675,10,RX81,11,0.0,0.0,12.0,0,0,10.82991202346041,2.2341747283935547
0,,2024-07-09 09:01:14,sub_102,3,distance,cathedral,localisation_accuracy,4,4,pinknoise,,,pinknoise_5.wav,91.82727707699918,30,-0.2643945406795244,8,RX81,9,0.0,0.0,10.0,0,0,12.090909090909092,1.4529778957366943
0,,2024-07-09 09:01:20,sub_102,3,distance,cathedral,localisation_accuracy,4,5,pinknoise,,,pinknoise_4.wav,84.09519854933455,30,-0.45083622720024685,0,RX81,1,0.0,0.0,2.0,0,0,2.6627565982404695,5.3433167934417725
0,,2024-07-09 09:01:24,sub_102,3,distance,cathedral,localisation_accuracy,4,6,pinknoise,,,pinknoise_8.wav,87.76360765740927,30,0.280910209469181,2,RX81,3,0.0,0.0,4.0,0,0,4.129032258064517,2.6091489791870117
0,,2024-07-09 09:01:28,sub_102,3,distance,cathedral,localisation_accuracy,4,7,pinknoise,,,pinknoise_8.wav,85.94827598977633,30,-0.37164224176064553,1,RX81,2,0.0,0.0,3.0,0,0,3.234604105571848,2.812241315841675
0,,2024-07-09 09:01:32,sub_102,3,distance,cathedral,localisation_accuracy,4,8,pinknoise,,,pinknoise_8.wav,92.32120365936973,30,0.44625686524826846,9,RX81,10,0.0,0.0,11.0,0,0,10.316715542521996,3.280977964401245
0,,2024-07-09 09:01:38,sub_102,3,distance,cathedral,localisation_accuracy,4,9,pinknoise,,,pinknoise_7.wav,89.20650809116518,30,0.08186057350269682,3,RX81,4,0.0,0.0,5.0,0,0,5.15542521994135,4.171571969985962
0,,2024-07-09 09:01:42,sub_102,3,distance,cathedral,localisation_accuracy,4,10,pinknoise,,,pinknoise_1.wav,92.08416952425786,30,0.4817830907030938,7,RX81,8,0.0,0.0,9.0,0,0,8.381231671554254,2.984123945236206
0,,2024-07-09 09:01:45,sub_102,3,distance,cathedral,localisation_accuracy,4,11,pinknoise,,,pinknoise_4.wav,89.21371787752182,30,-0.13318585748354206,4,RX81,5,0.0,0.0,6.0,0,0,7.296187683284458,2.249826192855835
0,,2024-07-09 09:01:48,sub_102,3,distance,cathedral,localisation_accuracy,4,12,pinknoise,,,pinknoise_8.wav,90.01393871358383,30,-0.46467403321077283,5,RX81,6,0.0,0.0,7.0,0,0,9.51026392961877,1.9216766357421875
0,,2024-07-09 09:01:53,sub_102,3,distance,cathedral,localisation_accuracy,4,13,pinknoise,,,pinknoise_9.wav,91.64823451691251,30,-0.12402992178959416,7,RX81,8,0.0,0.0,9.0,0,0,9.24633431085044,3.3747663497924805
0,,2024-07-09 09:01:57,sub_102,3,distance,cathedral,localisation_accuracy,4,14,pinknoise,,,pinknoise_7.wav,92.76732704719663,30,-0.32537278634782885,10,RX81,11,0.0,0.0,12.0,0,0,11.958944281524927,2.8903608322143555
0,,2024-07-09 09:02:02,sub_102,3,distance,cathedral,localisation_accuracy,4,15,pinknoise,,,pinknoise_3.wav,84.17812131054586,30,-0.3291714756280809,0,RX81,1,0.0,0.0,2.0,0,0,2.2375366568914963,3.7653207778930664
0,,2024-07-09 09:02:05,sub_102,3,distance,cathedral,localisation_accuracy,4,16,pinknoise,,,pinknoise_1.wav,87.72572137785929,30,0.22559300723393372,2,RX81,3,0.0,0.0,4.0,0,0,3.131964809384164,2.4060468673706055
0,,2024-07-09 09:02:09,sub_102,3,distance,cathedral,localisation_accuracy,4,17,pinknoise,,,pinknoise_1.wav,92.11737203181217,30,0.15682679398569255,9,RX81,10,0.0,0.0,11.0,0,0,9.173020527859238,2.6717116832733154
0,,2024-07-09 09:02:13,sub_102,3,distance,cathedral,localisation_accuracy,4,18,pinknoise,,,pinknoise_7.wav,92.32022121649013,30,0.4338429748553275,8,RX81,9,0.0,0.0,10.0,0,0,10.683284457478006,2.0935587882995605
0,,2024-07-09 09:02:17,sub_102,3,distance,cathedral,localisation_accuracy,4,19,pinknoise,,,pinknoise_8.wav,91.80440641868037,30,0.3087134084942228,6,RX81,7,0.0,0.0,8.0,0,0,10.067448680351907,3.0934693813323975
0,,2024-07-09 09:02:20,sub_102,3,distance,cathedral,localisation_accuracy,4,20,pinknoise,,,pinknoise_4.wav,88.88430703728034,30,-0.3748254683208091,3,RX81,4,0.0,0.0,5.0,0,0,6.137829912023461,2.3904149532318115
0,,2024-07-09 09:02:26,sub_102,3,distance,cathedral,localisation_accuracy,4,21,pinknoise,,,pinknoise_9.wav,85.95545962441525,30,-0.3612596433918115,1,RX81,2,0.0,0.0,3.0,0,0,3.3372434017595314,4.312135934829712
0,,2024-07-09 09:02:29,sub_102,3,distance,cathedral,localisation_accuracy,4,22,pinknoise,,,pinknoise_5.wav,91.97862470939596,30,-0.0517375365845959,8,RX81,9,0.0,0.0,10.0,0,0,9.392961876832846,2.3903958797454834
0,,2024-07-09 09:02:33,sub_102,3,distance,cathedral,localisation_accuracy,4,23,pinknoise,,,pinknoise_7.wav,90.32473518327248,30,-0.023949298937234076,5,RX81,6,0.0,0.0,7.0,0,0,8.381231671554254,2.7341415882110596
0,,2024-07-09 09:02:36,sub_102,3,distance,cathedral,localisation_accuracy,4,24,pinknoise,,,pinknoise_4.wav,91.4792081801852,30,-0.15597943488895172,6,RX81,7,0.0,0.0,8.0,0,0,9.407624633431086,1.8591814041137695
0,,2024-07-09 09:02:40,sub_102,3,distance,cathedral,localisation_accuracy,4,25,pinknoise,,,pinknoise_9.wav,91.93251686053485,30,-0.10327792058737428,9,RX81,10,0.0,0.0,11.0,0,0,10.75659824046921,2.2341747283935547
0,,2024-07-09 09:02:43,sub_102,3,distance,cathedral,localisation_accuracy,4,26,pinknoise,,,pinknoise_9.wav,92.04660179081532,30,0.42909552654175165,7,RX81,8,0.0,0.0,9.0,0,0,9.8475073313783,2.0779354572296143
0,,2024-07-09 09:02:46,sub_102,3,distance,cathedral,localisation_accuracy,4,27,pinknoise,,,pinknoise_0.wav,89.57594485597866,30,0.3522465215177726,4,RX81,5,0.0,0.0,6.0,0,0,7.970674486803519,1.4998507499694824
0,,2024-07-09 09:02:50,sub_102,3,distance,cathedral,localisation_accuracy,4,28,pinknoise,,,pinknoise_0.wav,86.21174002411013,30,0.01153559354187883,1,RX81,2,0.0,0.0,3.0,0,0,2.736070381231672,3.20285964012146
0,,2024-07-09 09:02:53,sub_102,3,distance,cathedral,localisation_accuracy,4,29,pinknoise,,,pinknoise_9.wav,89.22825578815852,30,0.11293806425956088,3,RX81,4,0.0,0.0,5.0,0,0,4.026392961876833,1.874802827835083
0,,2024-07-09 09:02:56,sub_102,3,distance,cathedral,localisation_accuracy,4,30,pinknoise,,,pinknoise_8.wav,87.32319052450933,30,-0.35593230833456235,2,RX81,3,0.0,0.0,4.0,0,0,4.9208211143695015,1.5467000007629395
0,,2024-07-09 09:02:59,sub_102,3,distance,cathedral,localisation_accuracy,4,31,pinknoise,,,pinknoise_7.wav,84.34282471920417,30,-0.08603006356300291,0,RX81,1,0.0,0.0,2.0,0,0,2.428152492668622,1.9216959476470947
0,,2024-07-09 09:03:03,sub_102,3,distance,cathedral,localisation_accuracy,4,32,pinknoise,,,pinknoise_2.wav,93.09666183062815,30,0.13615303437969517,10,RX81,11,0.0,0.0,12.0,0,0,9.86217008797654,2.9060044288635254
0,,2024-07-09 09:03:06,sub_102,3,distance,cathedral,localisation_accuracy,4,33,pinknoise,,,pinknoise_2.wav,91.77517804987355,30,-0.32289698641064457,9,RX81,10,0.0,0.0,11.0,0,0,10.844574780058652,2.3435215950012207
0,,2024-07-09 09:03:09,sub_102,3,distance,cathedral,localisation_accuracy,4,34,pinknoise,,,pinknoise_4.wav,93.10125000508036,30,0.14263328755226323,10,RX81,11,0.0,0.0,12.0,0,0,12.266862170087977,1.4842255115509033
0,,2024-07-09 09:03:14,sub_102,3,distance,cathedral,localisation_accuracy,4,35,pinknoise,,,pinknoise_7.wav,91.91128354911555,30,0.24006961946831562,7,RX81,8,0.0,0.0,9.0,0,0,9.407624633431086,3.655951499938965
0,,2024-07-09 09:03:16,sub_102,3,distance,cathedral,localisation_accuracy,4,36,pinknoise,,,pinknoise_8.wav,92.24674160390725,30,0.32873116218691645,8,RX81,9,0.0,0.0,10.0,0,0,10.609970674486805,1.3904829025268555
0,,2024-07-09 09:03:20,sub_102,3,distance,cathedral,localisation_accuracy,4,37,pinknoise,,,pinknoise_8.wav,85.90947294906368,30,-0.42766191880248394,1,RX81,2,0.0,0.0,3.0,0,0,2.5747800586510268,2.8591113090515137
0,,2024-07-09 09:03:24,sub_102,3,distance,cathedral,localisation_accuracy,4,38,pinknoise,,,pinknoise_9.wav,90.2168775679551,30,-0.1776368931965705,5,RX81,6,0.0,0.0,7.0,0,0,6.152492668621701,2.3747715950012207
0,,2024-07-09 09:03:27,sub_102,3,distance,cathedral,localisation_accuracy,4,39,pinknoise,,,pinknoise_0.wav,87.81784384190964,30,0.3602759151655681,2,RX81,3,0.0,0.0,4.0,0,0,3.8504398826979473,1.8591794967651367
0,,2024-07-09 09:03:32,sub_102,3,distance,cathedral,localisation_accuracy,4,40,pinknoise,,,pinknoise_3.wav,91.3460108198492,30,-0.34424917973394065,6,RX81,7,0.0,0.0,8.0,0,0,8.27859237536657,3.6246843338012695
0,,2024-07-09 09:03:35,sub_102,3,distance,cathedral,localisation_accuracy,4,41,pinknoise,,,pinknoise_5.wav,89.3355028630721,30,0.029149686876322467,4,RX81,5,0.0,0.0,6.0,0,0,8.865102639296188,1.7811458110809326
0,,2024-07-09 09:03:39,sub_102,3,distance,cathedral,localisation_accuracy,4,42,pinknoise,,,pinknoise_3.wav,84.56390947541556,30,0.24347883591452957,0,RX81,1,0.0,0.0,2.0,0,0,1.9736070381231672,2.952876329421997
0,,2024-07-09 09:03:43,sub_102,3,distance,cathedral,localisation_accuracy,4,43,pinknoise,,,pinknoise_6.wav,89.38773949899681,30,0.34182368831778054,3,RX81,4,0.0,0.0,5.0,0,0,3.0439882697947214,2.843489408493042
0,,2024-07-09 09:03:46,sub_102,3,distance,cathedral,localisation_accuracy,4,44,pinknoise,,,pinknoise_0.wav,86.25973416944659,30,0.08186922393039775,1,RX81,2,0.0,0.0,3.0,0,0,2.5014662756598245,1.531076431274414
0,,2024-07-09 09:03:49,sub_102,3,distance,cathedral,localisation_accuracy,4,45,pinknoise,,,pinknoise_1.wav,89.25383246663552,30,0.14952826040491618,3,RX81,4,0.0,0.0,5.0,0,0,4.143695014662757,2.0622928142547607
0,,2024-07-09 09:03:53,sub_102,3,distance,cathedral,localisation_accuracy,4,46,pinknoise,,,pinknoise_9.wav,91.61129459071378,30,0.0319003209135158,6,RX81,7,0.0,0.0,8.0,0,0,7.780058651026394,2.6716222763061523
0,,2024-07-09 09:03:57,sub_102,3,distance,cathedral,localisation_accuracy,4,47,pinknoise,,,pinknoise_7.wav,84.18498750848988,30,-0.31907492206853094,0,RX81,1,0.0,0.0,2.0,0,0,2.5747800586510268,3.468466281890869
0,,2024-07-09 09:04:01,sub_102,3,distance,cathedral,localisation_accuracy,4,48,pinknoise,,,pinknoise_5.wav,92.1827884943737,30,0.24941361668021422,9,RX81,10,0.0,0.0,11.0,0,0,9.114369501466276,2.4841578006744385
0,,2024-07-09 09:04:04,sub_102,3,distance,cathedral,localisation_accuracy,4,49,pinknoise,,,pinknoise_3.wav,89.31932894148585,30,0.007539653964748316,4,RX81,5,0.0,0.0,6.0,0,0,7.07624633431085,2.2810251712799072
0,,2024-07-09 09:04:07,sub_102,3,distance,cathedral,localisation_accuracy,4,50,pinknoise,,,pinknoise_2.wav,91.97238514683795,30,0.32527653713389704,7,RX81,8,0.0,0.0,9.0,0,0,9.363636363636365,1.609217882156372
0,,2024-07-09 09:04:10,sub_102,3,distance,cathedral,localisation_accuracy,4,51,pinknoise,,,pinknoise_6.wav,91.95480759606792,30,-0.08530327425364137,8,RX81,9,0.0,0.0,10.0,0,0,10.859237536656892,2.1091837882995605
0,,2024-07-09 09:04:14,sub_102,3,distance,cathedral,localisation_accuracy,4,52,pinknoise,,,pinknoise_2.wav,87.75850063507806,30,0.2734476213752228,2,RX81,3,0.0,0.0,4.0,0,0,4.21700879765396,2.4997830390930176
0,,2024-07-09 09:04:18,sub_102,3,distance,cathedral,localisation_accuracy,4,53,pinknoise,,,pinknoise_8.wav,93.1186298695419,30,0.16719292726624913,10,RX81,11,0.0,0.0,12.0,0,0,9.920821114369502,2.1716761589050293
0,,2024-07-09 09:04:21,sub_102,3,distance,cathedral,localisation_accuracy,4,54,pinknoise,,,pinknoise_6.wav,90.0638480061759,30,-0.3943394262692481,5,RX81,6,0.0,0.0,7.0,0,0,4.9501466275659824,2.187298059463501
