event_id,timestamp,subject_id,session_index,plane,setup,task,block,trial_index,headpose_offset_azi,headpose_offset_ele,target_number,target_filename,target_talker,target_sex,target_speaker_id,step_number:,distance_masker,distance_target,target_speaker_proc,target_speaker_chan,target_speaker_azi,target_speaker_ele,target_speaker_dist,target_stim_level,masker_filename,masker_speaker_id,masker_speaker_proc,masker_speaker_chan,masker_speaker_azi,masker_speaker_ele,masker_speaker_dist,masker_stim_level,normalisation_method,normalisation_level_masker,normalisation_level_target,played_number,resp_number,is_correct,reaction_time
,2024-08-02 15:15:50,sub_121,3,distance,cathedral,spatial_unmasking,1,0,0,0,_two_,talker-p248_sex-f_text-_two_.wav,p248,f,5,1,7.0,7.0,RX81,6,0.0,0.0,7.0,92.34149293193902,babble-reversed_n13_p229-five-p256-one-p318-three-p248-nine-p268-four-p284-eight.wav,5,RX81,6,0.0,0.0,7.0,90.341492931939,mgb_normalisation,90.34149293193902,90.34149293193902,2,4.0,False,3.874756336212158
,2024-08-02 15:15:53,sub_121,3,distance,cathedral,spatial_unmasking,1,1,0,0,_one_,talker-p248_sex-f_text-_one_.wav,p248,f,5,2,7.0,7.0,RX81,6,0.0,0.0,7.0,94.34149293193904,babble-reversed_n13_p229-one-p318-eight-p256-three-p268-nine-p248-five-p284-four.wav,5,RX81,6,0.0,0.0,7.0,90.341492931939,mgb_normalisation,90.34149293193902,90.34149293193902,1,1.0,True,1.624866247177124
,2024-08-02 15:15:57,sub_121,3,distance,cathedral,spatial_unmasking,1,2,0,0,_five_,talker-p248_sex-f_text-_five_.wav,p248,f,5,3,7.0,7.0,RX81,6,0.0,0.0,7.0,94.341492931939,babble-reversed_n13_p229-five-p256-three-p318-nine-p248-two-p284-four-p268-one.wav,5,RX81,6,0.0,0.0,7.0,90.34149293193904,mgb_normalisation,90.34149293193902,90.34149293193902,5,5.0,True,1.6248886585235596
,2024-08-02 15:16:01,sub_121,3,distance,cathedral,spatial_unmasking,1,3,0,0,_five_,talker-p248_sex-f_text-_five_.wav,p248,f,5,4,7.0,7.0,RX81,6,0.0,0.0,7.0,92.34149293193902,babble-reversed_n13_p307-nine-p318-two-p256-one-p245-three-p268-four-p248-eight.wav,5,RX81,6,0.0,0.0,7.0,90.341492931939,mgb_normalisation,90.34149293193902,90.34149293193902,5,5.0,True,1.249894380569458
,2024-08-02 15:16:06,sub_121,3,distance,cathedral,spatial_unmasking,1,4,0,0,_two_,talker-p248_sex-f_text-_two_.wav,p248,f,5,5,7.0,7.0,RX81,6,0.0,0.0,7.0,92.34149293193902,babble-reversed_n13_p256-four-p229-eight-p307-five-p248-three-p245-one-p284-two.wav,5,RX81,6,0.0,0.0,7.0,90.341492931939,mgb_normalisation,90.34149293193902,90.34149293193902,2,2.0,True,2.8747990131378174
,2024-08-02 15:16:11,sub_121,3,distance,cathedral,spatial_unmasking,1,5,0,0,_nine_,talker-p248_sex-f_text-_nine_.wav,p248,f,5,6,7.0,7.0,RX81,6,0.0,0.0,7.0,90.341492931939,babble-reversed_n13_p256-five-p307-nine-p318-three-p284-eight-p268-one-p248-two.wav,5,RX81,6,0.0,0.0,7.0,90.34149293193904,mgb_normalisation,90.34149293193902,90.34149293193902,9,9.0,True,2.6247992515563965
,2024-08-02 15:16:14,sub_121,3,distance,cathedral,spatial_unmasking,1,6,0,0,_three_,talker-p248_sex-f_text-_three_.wav,p248,f,5,7,7.0,7.0,RX81,6,0.0,0.0,7.0,90.34149293193904,babble-reversed_n13_p229-nine-p307-five-p256-two-p248-three-p245-one-p268-eight.wav,5,RX81,6,0.0,0.0,7.0,90.34149293193904,mgb_normalisation,90.34149293193902,90.34149293193902,3,3.0,True,1.3124094009399414
,2024-08-02 15:16:18,sub_121,3,distance,cathedral,spatial_unmasking,1,7,0,0,_two_,talker-p248_sex-f_text-_two_.wav,p248,f,5,8,7.0,7.0,RX81,6,0.0,0.0,7.0,88.34149293193903,babble-reversed_n13_p318-five-p256-nine-p307-eight-p248-two-p245-four-p284-three.wav,5,RX81,6,0.0,0.0,7.0,90.34149293193904,mgb_normalisation,90.34149293193902,90.34149293193902,2,2.0,True,1.4374215602874756
,2024-08-02 15:16:23,sub_121,3,distance,cathedral,spatial_unmasking,1,8,0,0,_nine_,talker-p248_sex-f_text-_nine_.wav,p248,f,5,9,7.0,7.0,RX81,6,0.0,0.0,7.0,88.34149293193902,babble-reversed_n13_p318-three-p229-one-p256-eight-p245-five-p248-four-p284-nine.wav,5,RX81,6,0.0,0.0,7.0,90.34149293193904,mgb_normalisation,90.34149293193902,90.34149293193902,9,5.0,False,2.5623433589935303
,2024-08-02 15:16:27,sub_121,3,distance,cathedral,spatial_unmasking,1,9,0,0,_five_,talker-p248_sex-f_text-_five_.wav,p248,f,5,10,7.0,7.0,RX81,6,0.0,0.0,7.0,89.341492931939,babble-reversed_n13_p256-eight-p318-two-p307-five-p245-four-p268-nine-p284-one.wav,5,RX81,6,0.0,0.0,7.0,90.34149293193904,mgb_normalisation,90.34149293193902,90.34149293193902,5,5.0,True,1.312408208847046
,2024-08-02 15:16:30,sub_121,3,distance,cathedral,spatial_unmasking,1,10,0,0,_five_,talker-p248_sex-f_text-_five_.wav,p248,f,5,11,7.0,7.0,RX81,6,0.0,0.0,7.0,89.341492931939,babble-reversed_n13_p318-five-p229-four-p256-eight-p284-one-p245-three-p248-two.wav,5,RX81,6,0.0,0.0,7.0,90.34149293193904,mgb_normalisation,90.34149293193902,90.34149293193902,5,5.0,True,1.374927282333374
,2024-08-02 15:16:34,sub_121,3,distance,cathedral,spatial_unmasking,1,11,0,0,_four_,talker-p248_sex-f_text-_four_.wav,p248,f,5,12,7.0,7.0,RX81,6,0.0,0.0,7.0,88.34149293193902,babble-reversed_n13_p229-five-p256-three-p318-nine-p248-two-p284-four-p268-one.wav,5,RX81,6,0.0,0.0,7.0,90.34149293193904,mgb_normalisation,90.34149293193902,90.34149293193902,4,4.0,True,1.374927043914795
,2024-08-02 15:16:38,sub_121,3,distance,cathedral,spatial_unmasking,1,12,0,0,_nine_,talker-p248_sex-f_text-_nine_.wav,p248,f,5,13,7.0,7.0,RX81,6,0.0,0.0,7.0,88.34149293193902,babble-reversed_n13_p256-two-p307-five-p318-nine-p248-eight-p245-four-p284-one.wav,5,RX81,6,0.0,0.0,7.0,90.34149293193904,mgb_normalisation,90.34149293193902,90.34149293193902,9,9.0,True,1.7498798370361328
,2024-08-02 15:16:41,sub_121,3,distance,cathedral,spatial_unmasking,1,13,0,0,_three_,talker-p248_sex-f_text-_three_.wav,p248,f,5,14,7.0,7.0,RX81,6,0.0,0.0,7.0,87.34149293193902,babble-reversed_n13_p318-one-p307-two-p256-eight-p284-three-p248-five-p245-four.wav,5,RX81,6,0.0,0.0,7.0,90.34149293193904,mgb_normalisation,90.34149293193902,90.34149293193902,3,3.0,True,1.4374003410339355
,2024-08-02 15:16:45,sub_121,3,distance,cathedral,spatial_unmasking,1,14,0,0,_three_,talker-p248_sex-f_text-_three_.wav,p248,f,5,15,7.0,7.0,RX81,6,0.0,0.0,7.0,87.34149293193902,babble-reversed_n13_p229-two-p307-five-p318-four-p284-one-p248-nine-p268-eight.wav,5,RX81,6,0.0,0.0,7.0,90.34149293193904,mgb_normalisation,90.34149293193902,90.34149293193902,3,3.0,True,1.3748855590820312
,2024-08-02 15:16:49,sub_121,3,distance,cathedral,spatial_unmasking,1,15,0,0,_five_,talker-p248_sex-f_text-_five_.wav,p248,f,5,16,7.0,7.0,RX81,6,0.0,0.0,7.0,86.341492931939,babble-reversed_n13_p229-two-p307-five-p318-four-p284-one-p248-nine-p268-eight.wav,5,RX81,6,0.0,0.0,7.0,90.34149293193904,mgb_normalisation,90.34149293193902,90.34149293193902,5,5.0,True,1.437401294708252
,2024-08-02 15:16:53,sub_121,3,distance,cathedral,spatial_unmasking,1,16,0,0,_nine_,talker-p248_sex-f_text-_nine_.wav,p248,f,5,17,7.0,7.0,RX81,6,0.0,0.0,7.0,86.34149293193902,babble-reversed_n13_p318-nine-p307-eight-p229-two-p284-one-p248-three-p245-five.wav,5,RX81,6,0.0,0.0,7.0,90.34149293193904,mgb_normalisation,90.34149293193902,90.34149293193902,9,5.0,False,2.1873278617858887
,2024-08-02 15:16:59,sub_121,3,distance,cathedral,spatial_unmasking,1,17,0,0,_nine_,talker-p248_sex-f_text-_nine_.wav,p248,f,5,18,7.0,7.0,RX81,6,0.0,0.0,7.0,87.34149293193902,babble-reversed_n13_p318-nine-p307-eight-p229-two-p284-one-p248-three-p245-five.wav,5,RX81,6,0.0,0.0,7.0,90.34149293193904,mgb_normalisation,90.34149293193902,90.34149293193902,9,5.0,False,3.4997594356536865
,2024-08-02 15:17:03,sub_121,3,distance,cathedral,spatial_unmasking,1,18,0,0,_one_,talker-p248_sex-f_text-_one_.wav,p248,f,5,19,7.0,7.0,RX81,6,0.0,0.0,7.0,88.34149293193903,babble-reversed_n13_p229-one-p318-eight-p256-three-p268-nine-p248-five-p284-four.wav,5,RX81,6,0.0,0.0,7.0,90.341492931939,mgb_normalisation,90.34149293193902,90.34149293193902,1,1.0,True,1.374925136566162
,2024-08-02 15:17:06,sub_121,3,distance,cathedral,spatial_unmasking,1,19,0,0,_five_,talker-p248_sex-f_text-_five_.wav,p248,f,5,20,7.0,7.0,RX81,6,0.0,0.0,7.0,88.34149293193902,babble-reversed_n13_p318-five-p229-four-p256-eight-p284-one-p245-three-p248-two.wav,5,RX81,6,0.0,0.0,7.0,90.34149293193904,mgb_normalisation,90.34149293193902,90.34149293193902,5,5.0,True,1.4998772144317627
,2024-08-02 15:17:10,sub_121,3,distance,cathedral,spatial_unmasking,1,20,0,0,_two_,talker-p248_sex-f_text-_two_.wav,p248,f,5,21,7.0,7.0,RX81,6,0.0,0.0,7.0,87.34149293193902,babble-reversed_n13_p318-five-p229-four-p256-eight-p284-one-p245-three-p248-two.wav,5,RX81,6,0.0,0.0,7.0,90.34149293193904,mgb_normalisation,90.34149293193902,90.34149293193902,2,2.0,True,1.7498795986175537
,2024-08-02 15:17:15,sub_121,3,distance,cathedral,spatial_unmasking,1,21,0,0,_four_,talker-p248_sex-f_text-_four_.wav,p248,f,5,22,7.0,7.0,RX81,6,0.0,0.0,7.0,87.34149293193902,babble-reversed_n13_p229-five-p256-three-p318-nine-p248-two-p284-four-p268-one.wav,5,RX81,6,0.0,0.0,7.0,90.34149293193904,mgb_normalisation,90.34149293193902,90.34149293193902,4,4.0,True,1.8748900890350344
,2024-08-02 15:17:21,sub_121,3,distance,cathedral,spatial_unmasking,1,22,0,0,_four_,talker-p248_sex-f_text-_four_.wav,p248,f,5,23,7.0,7.0,RX81,6,0.0,0.0,7.0,86.341492931939,babble-reversed_n13_p307-five-p229-two-p318-four-p248-three-p245-nine-p268-eight.wav,5,RX81,6,0.0,0.0,7.0,90.341492931939,mgb_normalisation,90.34149293193902,90.34149293193902,4,3.0,False,3.749742031097412
,2024-08-02 15:17:24,sub_121,3,distance,cathedral,spatial_unmasking,1,23,0,0,_six_,talker-p248_sex-f_text-_six_.wav,p248,f,5,24,7.0,7.0,RX81,6,0.0,0.0,7.0,87.34149293193902,babble-reversed_n13_p229-two-p318-eight-p256-three-p268-one-p248-nine-p284-five.wav,5,RX81,6,0.0,0.0,7.0,90.341492931939,mgb_normalisation,90.34149293193902,90.34149293193902,6,6.0,True,1.3749048709869385
,2024-08-02 15:17:27,sub_121,3,distance,cathedral,spatial_unmasking,1,24,0,0,_four_,talker-p248_sex-f_text-_four_.wav,p248,f,5,25,7.0,7.0,RX81,6,0.0,0.0,7.0,87.34149293193902,babble-reversed_n13_p229-nine-p307-five-p256-two-p248-three-p245-one-p268-eight.wav,5,RX81,6,0.0,0.0,7.0,90.34149293193904,mgb_normalisation,90.34149293193902,90.34149293193902,4,4.0,True,1.0624258518218994
,2024-08-02 15:17:31,sub_121,3,distance,cathedral,spatial_unmasking,1,25,0,0,_nine_,talker-p248_sex-f_text-_nine_.wav,p248,f,5,26,7.0,7.0,RX81,6,0.0,0.0,7.0,86.34149293193902,babble-reversed_n13_p318-four-p256-five-p229-three-p284-one-p245-eight-p248-nine.wav,5,RX81,6,0.0,0.0,7.0,90.34149293193904,mgb_normalisation,90.34149293193902,90.34149293193902,9,9.0,True,0.9374375343322754
,2024-08-02 15:17:34,sub_121,3,distance,cathedral,spatial_unmasking,1,26,0,0,_five_,talker-p248_sex-f_text-_five_.wav,p248,f,5,27,7.0,7.0,RX81,6,0.0,0.0,7.0,86.341492931939,babble-reversed_n13_p307-one-p318-five-p229-four-p268-eight-p284-two-p245-three.wav,5,RX81,6,0.0,0.0,7.0,90.341492931939,mgb_normalisation,90.34149293193902,90.34149293193902,5,5.0,True,0.9374339580535888
,2024-08-02 15:17:37,sub_121,3,distance,cathedral,spatial_unmasking,1,27,0,0,_four_,talker-p248_sex-f_text-_four_.wav,p248,f,5,28,7.0,7.0,RX81,6,0.0,0.0,7.0,85.341492931939,babble-reversed_n13_p229-nine-p256-four-p318-three-p268-eight-p248-two-p284-five.wav,5,RX81,6,0.0,0.0,7.0,90.34149293193904,mgb_normalisation,90.34149293193902,90.34149293193902,4,4.0,True,1.3123881816864014
,2024-08-02 15:17:41,sub_121,3,distance,cathedral,spatial_unmasking,1,28,0,0,_three_,talker-p248_sex-f_text-_three_.wav,p248,f,5,29,7.0,7.0,RX81,6,0.0,0.0,7.0,85.34149293193903,babble-reversed_n13_p256-three-p318-two-p229-nine-p248-four-p284-one-p268-eight.wav,5,RX81,6,0.0,0.0,7.0,90.341492931939,mgb_normalisation,90.34149293193902,90.34149293193902,3,3.0,True,1.4998960494995115
,2024-08-02 15:17:44,sub_121,3,distance,cathedral,spatial_unmasking,1,29,0,0,_six_,talker-p248_sex-f_text-_six_.wav,p248,f,5,30,7.0,7.0,RX81,6,0.0,0.0,7.0,84.341492931939,babble-reversed_n13_p229-five-p318-two-p307-eight-p268-three-p248-four-p245-one.wav,5,RX81,6,0.0,0.0,7.0,90.34149293193904,mgb_normalisation,90.34149293193902,90.34149293193902,6,6.0,True,0.9999308586120604
,2024-08-02 15:17:48,sub_121,3,distance,cathedral,spatial_unmasking,1,30,0,0,_nine_,talker-p248_sex-f_text-_nine_.wav,p248,f,5,31,7.0,7.0,RX81,6,0.0,0.0,7.0,84.341492931939,babble-reversed_n13_p318-five-p229-three-p256-four-p268-eight-p248-one-p245-nine.wav,5,RX81,6,0.0,0.0,7.0,90.34149293193904,mgb_normalisation,90.34149293193902,90.34149293193902,9,9.0,True,0.9999308586120604
,2024-08-02 15:17:51,sub_121,3,distance,cathedral,spatial_unmasking,1,31,0,0,_three_,talker-p248_sex-f_text-_three_.wav,p248,f,5,32,7.0,7.0,RX81,6,0.0,0.0,7.0,83.34149293193902,babble-reversed_n13_p307-five-p229-two-p318-four-p248-three-p245-nine-p268-eight.wav,5,RX81,6,0.0,0.0,7.0,90.341492931939,mgb_normalisation,90.34149293193902,90.34149293193902,3,3.0,True,1.1874406337738037
,2024-08-02 15:17:55,sub_121,3,distance,cathedral,spatial_unmasking,1,32,0,0,_five_,talker-p248_sex-f_text-_five_.wav,p248,f,5,33,7.0,7.0,RX81,6,0.0,0.0,7.0,83.34149293193902,babble-reversed_n13_p256-eight-p318-two-p307-five-p245-four-p268-nine-p284-one.wav,5,RX81,6,0.0,0.0,7.0,90.34149293193904,mgb_normalisation,90.34149293193902,90.34149293193902,5,5.0,True,1.312429666519165
,2024-08-02 15:18:01,sub_121,3,distance,cathedral,spatial_unmasking,1,33,0,0,_eight_,talker-p248_sex-f_text-_eight_.wav,p248,f,5,34,7.0,7.0,RX81,6,0.0,0.0,7.0,82.34149293193902,babble-reversed_n13_p318-one-p307-two-p256-eight-p284-three-p248-five-p245-four.wav,5,RX81,6,0.0,0.0,7.0,90.34149293193904,mgb_normalisation,90.34149293193902,90.34149293193902,8,4.0,False,4.374719142913818
,2024-08-02 15:18:07,sub_121,3,distance,cathedral,spatial_unmasking,1,34,0,0,_four_,talker-p248_sex-f_text-_four_.wav,p248,f,5,35,7.0,7.0,RX81,6,0.0,0.0,7.0,83.34149293193902,babble-reversed_n13_p229-nine-p307-five-p256-two-p248-three-p245-one-p268-eight.wav,5,RX81,6,0.0,0.0,7.0,90.34149293193904,mgb_normalisation,90.34149293193902,90.34149293193902,4,3.0,False,3.1872808933258057
,2024-08-02 15:18:10,sub_121,3,distance,cathedral,spatial_unmasking,1,35,0,0,_five_,talker-p248_sex-f_text-_five_.wav,p248,f,5,36,7.0,7.0,RX81,6,0.0,0.0,7.0,84.341492931939,babble-reversed_n13_p229-two-p318-eight-p256-three-p268-one-p248-nine-p284-five.wav,5,RX81,6,0.0,0.0,7.0,90.341492931939,mgb_normalisation,90.34149293193902,90.34149293193902,5,5.0,True,1.312429428100586
,2024-08-02 15:18:15,sub_121,3,distance,cathedral,spatial_unmasking,1,36,0,0,_four_,talker-p248_sex-f_text-_four_.wav,p248,f,5,37,7.0,7.0,RX81,6,0.0,0.0,7.0,84.341492931939,babble-reversed_n13_p318-three-p307-one-p256-five-p248-nine-p245-two-p284-eight.wav,5,RX81,6,0.0,0.0,7.0,90.34149293193904,mgb_normalisation,90.34149293193902,90.34149293193902,4,3.0,False,2.624799966812134
,2024-08-02 15:18:19,sub_121,3,distance,cathedral,spatial_unmasking,1,37,0,0,_six_,talker-p248_sex-f_text-_six_.wav,p248,f,5,38,7.0,7.0,RX81,6,0.0,0.0,7.0,85.34149293193903,babble-reversed_n13_p256-four-p229-two-p318-five-p268-one-p248-eight-p245-three.wav,5,RX81,6,0.0,0.0,7.0,90.341492931939,mgb_normalisation,90.34149293193902,90.34149293193902,6,6.0,True,1.3124096393585205
,2024-08-02 15:18:23,sub_121,3,distance,cathedral,spatial_unmasking,1,38,0,0,_five_,talker-p248_sex-f_text-_five_.wav,p248,f,5,39,7.0,7.0,RX81,6,0.0,0.0,7.0,85.341492931939,babble-reversed_n13_p256-four-p229-eight-p307-five-p248-three-p245-one-p284-two.wav,5,RX81,6,0.0,0.0,7.0,90.341492931939,mgb_normalisation,90.34149293193902,90.34149293193902,5,5.0,True,1.6249077320098877
,2024-08-02 15:18:27,sub_121,3,distance,cathedral,spatial_unmasking,1,39,0,0,_five_,talker-p248_sex-f_text-_five_.wav,p248,f,5,40,7.0,7.0,RX81,6,0.0,0.0,7.0,84.341492931939,babble-reversed_n13_p256-four-p229-eight-p307-five-p248-three-p245-one-p284-two.wav,5,RX81,6,0.0,0.0,7.0,90.341492931939,mgb_normalisation,90.34149293193902,90.34149293193902,5,5.0,True,2.3748154640197754
,2024-08-02 15:18:31,sub_121,3,distance,cathedral,spatial_unmasking,1,40,0,0,_three_,talker-p248_sex-f_text-_three_.wav,p248,f,5,41,7.0,7.0,RX81,6,0.0,0.0,7.0,84.341492931939,babble-reversed_n13_p229-three-p256-nine-p318-five-p248-one-p245-eight-p284-two.wav,5,RX81,6,0.0,0.0,7.0,90.34149293193904,mgb_normalisation,90.34149293193902,90.34149293193902,3,8.0,False,1.9373645782470703
,2024-08-02 15:18:35,sub_121,3,distance,cathedral,spatial_unmasking,1,41,0,0,_eight_,talker-p248_sex-f_text-_eight_.wav,p248,f,5,42,7.0,7.0,RX81,6,0.0,0.0,7.0,85.34149293193903,babble-reversed_n13_p229-three-p256-nine-p318-five-p248-one-p245-eight-p284-two.wav,5,RX81,6,0.0,0.0,7.0,90.34149293193904,mgb_normalisation,90.34149293193902,90.34149293193902,8,8.0,True,1.74989914894104
,2024-08-02 15:18:40,sub_121,3,distance,cathedral,spatial_unmasking,1,42,0,0,_nine_,talker-p248_sex-f_text-_nine_.wav,p248,f,5,43,7.0,7.0,RX81,6,0.0,0.0,7.0,85.341492931939,babble-reversed_n13_p229-nine-p307-five-p256-two-p248-three-p245-one-p268-eight.wav,5,RX81,6,0.0,0.0,7.0,90.34149293193904,mgb_normalisation,90.34149293193902,90.34149293193902,9,8.0,False,2.374836206436157
,2024-08-02 15:18:43,sub_121,3,distance,cathedral,spatial_unmasking,1,43,0,0,_one_,talker-p248_sex-f_text-_one_.wav,p248,f,5,44,7.0,7.0,RX81,6,0.0,0.0,7.0,86.34149293193902,babble-reversed_n13_p256-eight-p318-two-p307-five-p245-four-p268-nine-p284-one.wav,5,RX81,6,0.0,0.0,7.0,90.34149293193904,mgb_normalisation,90.34149293193902,90.34149293193902,1,1.0,True,1.0624051094055176
,2024-08-02 15:18:47,sub_121,3,distance,cathedral,spatial_unmasking,1,44,0,0,_one_,talker-p248_sex-f_text-_one_.wav,p248,f,5,45,7.0,7.0,RX81,6,0.0,0.0,7.0,86.34149293193902,babble-reversed_n13_p256-two-p307-five-p318-nine-p248-eight-p245-four-p284-one.wav,5,RX81,6,0.0,0.0,7.0,90.34149293193904,mgb_normalisation,90.34149293193902,90.34149293193902,1,1.0,True,1.1249237060546875
,2024-08-02 15:20:54,sub_121,3,distance,cathedral,spatial_unmasking,2,45,0,0,_one_,talker-p248_sex-f_text-_one_.wav,p248,f,5,1,2.0,7.0,RX81,6,0.0,0.0,7.0,92.34149293193902,babble-reversed_n13_p307-nine-p229-one-p256-eight-p248-four-p284-two-p268-three.wav,0,RX81,1,0.0,0.0,2.0,84.40078082039426,mgb_normalisation,84.40078082039426,90.34149293193902,1,1.0,True,1.249894142150879
,2024-08-02 15:20:58,sub_121,3,distance,cathedral,spatial_unmasking,2,46,0,0,_four_,talker-p248_sex-f_text-_four_.wav,p248,f,5,2,2.0,7.0,RX81,6,0.0,0.0,7.0,88.34149293193902,babble-reversed_n13_p229-one-p318-nine-p256-four-p284-eight-p268-five-p245-two.wav,0,RX81,1,0.0,0.0,2.0,84.40078082039426,mgb_normalisation,84.40078082039426,90.34149293193902,4,4.0,True,1.4374003410339355
,2024-08-02 15:21:02,sub_121,3,distance,cathedral,spatial_unmasking,2,47,0,0,_one_,talker-p248_sex-f_text-_one_.wav,p248,f,5,3,2.0,7.0,RX81,6,0.0,0.0,7.0,84.34149293193903,babble-reversed_n13_p229-nine-p256-four-p318-three-p268-eight-p248-two-p284-five.wav,0,RX81,1,0.0,0.0,2.0,84.40078082039426,mgb_normalisation,84.40078082039426,90.34149293193902,1,1.0,True,1.749901294708252
,2024-08-02 15:21:07,sub_121,3,distance,cathedral,spatial_unmasking,2,48,0,0,_four_,talker-p248_sex-f_text-_four_.wav,p248,f,5,4,2.0,7.0,RX81,6,0.0,0.0,7.0,80.341492931939,babble-reversed_n13_p307-nine-p229-one-p256-eight-p248-four-p284-two-p268-three.wav,0,RX81,1,0.0,0.0,2.0,84.40078082039426,mgb_normalisation,84.40078082039426,90.34149293193902,4,3.0,False,1.9998626708984373
,2024-08-02 15:21:10,sub_121,3,distance,cathedral,spatial_unmasking,2,49,0,0,_six_,talker-p248_sex-f_text-_six_.wav,p248,f,5,5,2.0,7.0,RX81,6,0.0,0.0,7.0,82.34149293193902,babble-reversed_n13_p318-nine-p256-five-p307-eight-p268-three-p248-one-p245-four.wav,0,RX81,1,0.0,0.0,2.0,84.40078082039426,mgb_normalisation,84.40078082039426,90.34149293193902,6,6.0,True,1.249913215637207
,2024-08-02 15:21:14,sub_121,3,distance,cathedral,spatial_unmasking,2,50,0,0,_six_,talker-p248_sex-f_text-_six_.wav,p248,f,5,6,2.0,7.0,RX81,6,0.0,0.0,7.0,82.34149293193902,babble-reversed_n13_p229-eight-p256-nine-p318-four-p245-three-p268-five-p284-two.wav,0,RX81,1,0.0,0.0,2.0,84.40078082039426,mgb_normalisation,84.40078082039426,90.34149293193902,6,6.0,True,1.3124096393585205
,2024-08-02 15:21:18,sub_121,3,distance,cathedral,spatial_unmasking,2,51,0,0,_eight_,talker-p248_sex-f_text-_eight_.wav,p248,f,5,7,2.0,7.0,RX81,6,0.0,0.0,7.0,80.34149293193903,babble-reversed_n13_p229-two-p307-five-p318-four-p284-one-p248-nine-p268-eight.wav,0,RX81,1,0.0,0.0,2.0,84.40078082039426,mgb_normalisation,84.40078082039426,90.34149293193902,8,3.0,False,2.0623586177825928
,2024-08-02 15:21:22,sub_121,3,distance,cathedral,spatial_unmasking,2,52,0,0,_nine_,talker-p248_sex-f_text-_nine_.wav,p248,f,5,8,2.0,7.0,RX81,6,0.0,0.0,7.0,81.34149293193902,babble-reversed_n13_p256-three-p318-two-p229-nine-p248-four-p284-one-p268-eight.wav,0,RX81,1,0.0,0.0,2.0,84.40078082039426,mgb_normalisation,84.40078082039426,90.34149293193902,9,9.0,True,1.0624258518218994
,2024-08-02 15:21:25,sub_121,3,distance,cathedral,spatial_unmasking,2,53,0,0,_five_,talker-p248_sex-f_text-_five_.wav,p248,f,5,9,2.0,7.0,RX81,6,0.0,0.0,7.0,81.341492931939,babble-reversed_n13_p229-two-p256-three-p318-eight-p284-five-p268-four-p245-one.wav,0,RX81,1,0.0,0.0,2.0,84.40078082039426,mgb_normalisation,84.40078082039426,90.34149293193902,5,5.0,True,1.249891757965088
,2024-08-02 15:21:29,sub_121,3,distance,cathedral,spatial_unmasking,2,54,0,0,_six_,talker-p248_sex-f_text-_six_.wav,p248,f,5,10,2.0,7.0,RX81,6,0.0,0.0,7.0,80.34149293193903,babble-reversed_n13_p307-one-p318-five-p229-four-p268-eight-p284-two-p245-three.wav,0,RX81,1,0.0,0.0,2.0,84.40078082039426,mgb_normalisation,84.40078082039426,90.34149293193902,6,6.0,True,1.1874394416809082
,2024-08-02 15:21:33,sub_121,3,distance,cathedral,spatial_unmasking,2,55,0,0,_nine_,talker-p248_sex-f_text-_nine_.wav,p248,f,5,11,2.0,7.0,RX81,6,0.0,0.0,7.0,80.341492931939,babble-reversed_n13_p229-five-p256-one-p318-three-p248-nine-p268-four-p284-eight.wav,0,RX81,1,0.0,0.0,2.0,84.40078082039426,mgb_normalisation,84.40078082039426,90.34149293193902,9,9.0,True,1.249911546707153
,2024-08-02 15:21:38,sub_121,3,distance,cathedral,spatial_unmasking,2,56,0,0,_eight_,talker-p248_sex-f_text-_eight_.wav,p248,f,5,12,2.0,7.0,RX81,6,0.0,0.0,7.0,79.34149293193902,babble-reversed_n13_p256-five-p229-one-p318-three-p248-nine-p284-eight-p268-two.wav,0,RX81,1,0.0,0.0,2.0,84.40078082039427,mgb_normalisation,84.40078082039426,90.34149293193902,8,9.0,False,2.93729829788208
,2024-08-02 15:21:41,sub_121,3,distance,cathedral,spatial_unmasking,2,57,0,0,_six_,talker-p248_sex-f_text-_six_.wav,p248,f,5,13,2.0,7.0,RX81,6,0.0,0.0,7.0,80.34149293193903,babble-reversed_n13_p229-two-p318-eight-p256-three-p268-one-p248-nine-p284-five.wav,0,RX81,1,0.0,0.0,2.0,84.40078082039426,mgb_normalisation,84.40078082039426,90.34149293193902,6,6.0,True,1.2499136924743652
,2024-08-02 15:21:45,sub_121,3,distance,cathedral,spatial_unmasking,2,58,0,0,_one_,talker-p248_sex-f_text-_one_.wav,p248,f,5,14,2.0,7.0,RX81,6,0.0,0.0,7.0,80.34149293193903,babble-reversed_n13_p256-five-p229-one-p318-three-p248-nine-p284-eight-p268-two.wav,0,RX81,1,0.0,0.0,2.0,84.40078082039427,mgb_normalisation,84.40078082039426,90.34149293193902,1,9.0,False,1.249911546707153
,2024-08-02 15:21:52,sub_121,3,distance,cathedral,spatial_unmasking,2,59,0,0,_eight_,talker-p248_sex-f_text-_eight_.wav,p248,f,5,15,2.0,7.0,RX81,6,0.0,0.0,7.0,81.34149293193902,babble-reversed_n13_p229-one-p318-eight-p256-three-p268-nine-p248-five-p284-four.wav,0,RX81,1,0.0,0.0,2.0,84.40078082039426,mgb_normalisation,84.40078082039426,90.34149293193902,8,6.0,False,4.624661922454834
,2024-08-02 15:21:56,sub_121,3,distance,cathedral,spatial_unmasking,2,60,0,0,_five_,talker-p248_sex-f_text-_five_.wav,p248,f,5,16,2.0,7.0,RX81,6,0.0,0.0,7.0,82.341492931939,babble-reversed_n13_p318-five-p256-nine-p307-two-p245-eight-p248-one-p284-four.wav,0,RX81,1,0.0,0.0,2.0,84.40078082039427,mgb_normalisation,84.40078082039426,90.34149293193902,5,5.0,True,1.1873984336853027
,2024-08-02 15:22:00,sub_121,3,distance,cathedral,spatial_unmasking,2,61,0,0,_nine_,talker-p248_sex-f_text-_nine_.wav,p248,f,5,17,2.0,7.0,RX81,6,0.0,0.0,7.0,82.34149293193902,babble-reversed_n13_p229-two-p256-three-p318-eight-p284-five-p268-four-p245-one.wav,0,RX81,1,0.0,0.0,2.0,84.40078082039426,mgb_normalisation,84.40078082039426,90.34149293193902,9,5.0,False,2.249845504760742
,2024-08-02 15:22:04,sub_121,3,distance,cathedral,spatial_unmasking,2,62,0,0,_two_,talker-p248_sex-f_text-_two_.wav,p248,f,5,18,2.0,7.0,RX81,6,0.0,0.0,7.0,83.34149293193903,babble-reversed_n13_p318-nine-p307-eight-p229-two-p284-one-p248-three-p245-five.wav,0,RX81,1,0.0,0.0,2.0,84.40078082039426,mgb_normalisation,84.40078082039426,90.34149293193902,2,2.0,True,1.1874377727508545
,2024-08-02 15:22:07,sub_121,3,distance,cathedral,spatial_unmasking,2,63,0,0,_nine_,talker-p248_sex-f_text-_nine_.wav,p248,f,5,19,2.0,7.0,RX81,6,0.0,0.0,7.0,83.34149293193902,babble-reversed_n13_p256-eight-p318-two-p307-five-p245-four-p268-nine-p284-one.wav,0,RX81,1,0.0,0.0,2.0,84.40078082039426,mgb_normalisation,84.40078082039426,90.34149293193902,9,9.0,True,1.3124079704284668
,2024-08-02 15:22:11,sub_121,3,distance,cathedral,spatial_unmasking,2,64,0,0,_five_,talker-p248_sex-f_text-_five_.wav,p248,f,5,20,2.0,7.0,RX81,6,0.0,0.0,7.0,82.341492931939,babble-reversed_n13_p318-one-p307-two-p256-eight-p284-three-p248-five-p245-four.wav,0,RX81,1,0.0,0.0,2.0,84.40078082039427,mgb_normalisation,84.40078082039426,90.34149293193902,5,5.0,True,1.1249027252197266
,2024-08-02 15:22:14,sub_121,3,distance,cathedral,spatial_unmasking,2,65,0,0,_five_,talker-p248_sex-f_text-_five_.wav,p248,f,5,21,2.0,7.0,RX81,6,0.0,0.0,7.0,82.341492931939,babble-reversed_n13_p229-two-p256-three-p318-eight-p284-five-p268-four-p245-one.wav,0,RX81,1,0.0,0.0,2.0,84.40078082039426,mgb_normalisation,84.40078082039426,90.34149293193902,5,5.0,True,1.0624055862426758
,2024-08-02 15:22:18,sub_121,3,distance,cathedral,spatial_unmasking,2,66,0,0,_five_,talker-p248_sex-f_text-_five_.wav,p248,f,5,22,2.0,7.0,RX81,6,0.0,0.0,7.0,81.341492931939,babble-reversed_n13_p307-nine-p318-two-p256-one-p245-three-p268-four-p248-eight.wav,0,RX81,1,0.0,0.0,2.0,84.40078082039426,mgb_normalisation,84.40078082039426,90.34149293193902,5,5.0,True,1.1873986721038818
,2024-08-02 15:22:22,sub_121,3,distance,cathedral,spatial_unmasking,2,67,0,0,_eight_,talker-p248_sex-f_text-_eight_.wav,p248,f,5,23,2.0,7.0,RX81,6,0.0,0.0,7.0,81.34149293193902,babble-reversed_n13_p307-one-p318-five-p229-four-p268-eight-p284-two-p245-three.wav,0,RX81,1,0.0,0.0,2.0,84.40078082039426,mgb_normalisation,84.40078082039426,90.34149293193902,8,3.0,False,1.374925136566162
,2024-08-02 15:22:25,sub_121,3,distance,cathedral,spatial_unmasking,2,68,0,0,_six_,talker-p248_sex-f_text-_six_.wav,p248,f,5,24,2.0,7.0,RX81,6,0.0,0.0,7.0,82.34149293193902,babble-reversed_n13_p318-three-p229-one-p256-eight-p245-five-p248-four-p284-nine.wav,0,RX81,1,0.0,0.0,2.0,84.40078082039427,mgb_normalisation,84.40078082039426,90.34149293193902,6,6.0,True,1.1874403953552246
,2024-08-02 15:22:29,sub_121,3,distance,cathedral,spatial_unmasking,2,69,0,0,_one_,talker-p248_sex-f_text-_one_.wav,p248,f,5,25,2.0,7.0,RX81,6,0.0,0.0,7.0,82.34149293193902,babble-reversed_n13_p256-eight-p318-two-p307-five-p245-four-p268-nine-p284-one.wav,0,RX81,1,0.0,0.0,2.0,84.40078082039426,mgb_normalisation,84.40078082039426,90.34149293193902,1,1.0,True,1.3749051094055176
,2024-08-02 15:22:32,sub_121,3,distance,cathedral,spatial_unmasking,2,70,0,0,_two_,talker-p248_sex-f_text-_two_.wav,p248,f,5,26,2.0,7.0,RX81,6,0.0,0.0,7.0,81.34149293193902,babble-reversed_n13_p229-two-p256-three-p318-eight-p284-five-p268-four-p245-one.wav,0,RX81,1,0.0,0.0,2.0,84.40078082039426,mgb_normalisation,84.40078082039426,90.34149293193902,2,2.0,True,1.2967848777770996
,2024-08-02 15:22:36,sub_121,3,distance,cathedral,spatial_unmasking,2,71,0,0,_one_,talker-p248_sex-f_text-_one_.wav,p248,f,5,27,2.0,7.0,RX81,6,0.0,0.0,7.0,81.34149293193902,babble-reversed_n13_p229-three-p256-nine-p318-five-p248-one-p245-eight-p284-two.wav,0,RX81,1,0.0,0.0,2.0,84.40078082039426,mgb_normalisation,84.40078082039426,90.34149293193902,1,9.0,False,1.312431573867798
,2024-08-02 15:22:40,sub_121,3,distance,cathedral,spatial_unmasking,2,72,0,0,_two_,talker-p248_sex-f_text-_two_.wav,p248,f,5,28,2.0,7.0,RX81,6,0.0,0.0,7.0,82.34149293193902,babble-reversed_n13_p229-two-p307-five-p318-four-p284-one-p248-nine-p268-eight.wav,0,RX81,1,0.0,0.0,2.0,84.40078082039426,mgb_normalisation,84.40078082039426,90.34149293193902,2,9.0,False,1.8123574256896973
,2024-08-02 15:22:44,sub_121,3,distance,cathedral,spatial_unmasking,2,73,0,0,_six_,talker-p248_sex-f_text-_six_.wav,p248,f,5,29,2.0,7.0,RX81,6,0.0,0.0,7.0,83.34149293193902,babble-reversed_n13_p229-five-p318-three-p307-two-p245-four-p284-nine-p248-eight.wav,0,RX81,1,0.0,0.0,2.0,84.40078082039426,mgb_normalisation,84.40078082039426,90.34149293193902,6,6.0,True,1.1248996257781982
,2024-08-02 15:22:47,sub_121,3,distance,cathedral,spatial_unmasking,2,74,0,0,_nine_,talker-p248_sex-f_text-_nine_.wav,p248,f,5,30,2.0,7.0,RX81,6,0.0,0.0,7.0,83.34149293193902,babble-reversed_n13_p307-nine-p318-two-p256-one-p245-three-p268-four-p248-eight.wav,0,RX81,1,0.0,0.0,2.0,84.40078082039426,mgb_normalisation,84.40078082039426,90.34149293193902,9,9.0,True,1.1249206066131592
,2024-08-02 15:22:51,sub_121,3,distance,cathedral,spatial_unmasking,2,75,0,0,_four_,talker-p248_sex-f_text-_four_.wav,p248,f,5,31,2.0,7.0,RX81,6,0.0,0.0,7.0,82.34149293193902,babble-reversed_n13_p318-nine-p256-five-p307-eight-p268-three-p248-one-p245-four.wav,0,RX81,1,0.0,0.0,2.0,84.40078082039426,mgb_normalisation,84.40078082039426,90.34149293193902,4,4.0,True,1.2498915195465088
,2024-08-02 15:22:56,sub_121,3,distance,cathedral,spatial_unmasking,2,76,0,0,_eight_,talker-p248_sex-f_text-_eight_.wav,p248,f,5,32,2.0,7.0,RX81,6,0.0,0.0,7.0,82.34149293193902,babble-reversed_n13_p318-nine-p307-eight-p229-two-p284-one-p248-three-p245-five.wav,0,RX81,1,0.0,0.0,2.0,84.40078082039426,mgb_normalisation,84.40078082039426,90.34149293193902,8,2.0,False,2.937278509140014
,2024-08-02 15:23:02,sub_121,3,distance,cathedral,spatial_unmasking,2,77,0,0,_eight_,talker-p248_sex-f_text-_eight_.wav,p248,f,5,33,2.0,7.0,RX81,6,0.0,0.0,7.0,83.34149293193902,babble-reversed_n13_p256-eight-p229-three-p307-nine-p245-five-p248-four-p268-two.wav,0,RX81,1,0.0,0.0,2.0,84.40078082039426,mgb_normalisation,84.40078082039426,90.34149293193902,8,2.0,False,2.9372782707214355
,2024-08-02 15:23:05,sub_121,3,distance,cathedral,spatial_unmasking,2,78,0,0,_nine_,talker-p248_sex-f_text-_nine_.wav,p248,f,5,34,2.0,7.0,RX81,6,0.0,0.0,7.0,84.341492931939,babble-reversed_n13_p318-five-p256-nine-p307-eight-p248-two-p245-four-p284-three.wav,0,RX81,1,0.0,0.0,2.0,84.40078082039426,mgb_normalisation,84.40078082039426,90.34149293193902,9,9.0,True,1.1874382495880127
,2024-08-02 15:23:09,sub_121,3,distance,cathedral,spatial_unmasking,2,79,0,0,_nine_,talker-p248_sex-f_text-_nine_.wav,p248,f,5,35,2.0,7.0,RX81,6,0.0,0.0,7.0,84.341492931939,babble-reversed_n13_p229-two-p307-five-p318-four-p284-one-p248-nine-p268-eight.wav,0,RX81,1,0.0,0.0,2.0,84.40078082039426,mgb_normalisation,84.40078082039426,90.34149293193902,9,9.0,True,1.4373812675476074
,2024-08-02 15:24:15,sub_121,3,distance,cathedral,spatial_unmasking,3,80,0,0,_six_,talker-p248_sex-f_text-_six_.wav,p248,f,5,1,12.0,7.0,RX81,6,0.0,0.0,7.0,92.34149293193902,babble-reversed_n13_p307-nine-p229-one-p256-eight-p248-four-p284-two-p268-three.wav,10,RX81,11,0.0,0.0,12.0,93.00003341222718,mgb_normalisation,93.00003341222715,90.34149293193902,6,6.0,True,3.6247501373291016
,2024-08-02 15:24:19,sub_121,3,distance,cathedral,spatial_unmasking,3,81,0,0,_nine_,talker-p248_sex-f_text-_nine_.wav,p248,f,5,2,12.0,7.0,RX81,6,0.0,0.0,7.0,88.34149293193902,babble-reversed_n13_p229-nine-p256-four-p318-three-p268-eight-p248-two-p284-five.wav,10,RX81,11,0.0,0.0,12.0,93.00003341222718,mgb_normalisation,93.00003341222715,90.34149293193902,9,9.0,True,1.2499141693115234
,2024-08-02 15:24:23,sub_121,3,distance,cathedral,spatial_unmasking,3,82,0,0,_nine_,talker-p248_sex-f_text-_nine_.wav,p248,f,5,3,12.0,7.0,RX81,6,0.0,0.0,7.0,84.341492931939,babble-reversed_n13_p307-two-p229-one-p256-five-p248-nine-p284-three-p268-eight.wav,10,RX81,11,0.0,0.0,12.0,93.00003341222718,mgb_normalisation,93.00003341222715,90.34149293193902,9,9.0,True,1.437401533126831
,2024-08-02 15:24:27,sub_121,3,distance,cathedral,spatial_unmasking,3,83,0,0,_two_,talker-p248_sex-f_text-_two_.wav,p248,f,5,4,12.0,7.0,RX81,6,0.0,0.0,7.0,80.34149293193903,babble-reversed_n13_p256-three-p318-two-p229-nine-p248-four-p284-one-p268-eight.wav,10,RX81,11,0.0,0.0,12.0,93.00003341222715,mgb_normalisation,93.00003341222715,90.34149293193902,2,3.0,False,1.7499003410339355
,2024-08-02 15:24:30,sub_121,3,distance,cathedral,spatial_unmasking,3,84,0,0,_four_,talker-p248_sex-f_text-_four_.wav,p248,f,5,5,12.0,7.0,RX81,6,0.0,0.0,7.0,82.34149293193902,babble-reversed_n13_p229-eight-p256-nine-p318-four-p245-three-p268-five-p284-two.wav,10,RX81,11,0.0,0.0,12.0,93.00003341222715,mgb_normalisation,93.00003341222715,90.34149293193902,4,4.0,True,1.1874186992645264
,2024-08-02 15:24:34,sub_121,3,distance,cathedral,spatial_unmasking,3,85,0,0,_one_,talker-p248_sex-f_text-_one_.wav,p248,f,5,6,12.0,7.0,RX81,6,0.0,0.0,7.0,82.34149293193902,babble-reversed_n13_p318-four-p256-five-p229-three-p284-one-p245-eight-p248-nine.wav,10,RX81,11,0.0,0.0,12.0,93.00003341222718,mgb_normalisation,93.00003341222715,90.34149293193902,1,9.0,False,1.1249427795410156
,2024-08-02 15:24:37,sub_121,3,distance,cathedral,spatial_unmasking,3,86,0,0,_six_,talker-p248_sex-f_text-_six_.wav,p248,f,5,7,12.0,7.0,RX81,6,0.0,0.0,7.0,84.341492931939,babble-reversed_n13_p256-two-p307-five-p318-nine-p248-eight-p245-four-p284-one.wav,10,RX81,11,0.0,0.0,12.0,93.00003341222718,mgb_normalisation,93.00003341222715,90.34149293193902,6,6.0,True,1.1249427795410156
,2024-08-02 15:24:41,sub_121,3,distance,cathedral,spatial_unmasking,3,87,0,0,_eight_,talker-p248_sex-f_text-_eight_.wav,p248,f,5,8,12.0,7.0,RX81,6,0.0,0.0,7.0,84.34149293193903,babble-reversed_n13_p229-two-p256-three-p318-eight-p284-five-p268-four-p245-one.wav,10,RX81,11,0.0,0.0,12.0,93.00003341222718,mgb_normalisation,93.00003341222715,90.34149293193902,8,8.0,True,1.2499141693115234
,2024-08-02 15:24:44,sub_121,3,distance,cathedral,spatial_unmasking,3,88,0,0,_nine_,talker-p248_sex-f_text-_nine_.wav,p248,f,5,9,12.0,7.0,RX81,6,0.0,0.0,7.0,82.34149293193902,babble-reversed_n13_p256-eight-p229-three-p307-nine-p245-five-p248-four-p268-two.wav,10,RX81,11,0.0,0.0,12.0,93.00003341222715,mgb_normalisation,93.00003341222715,90.34149293193902,9,9.0,True,1.18743896484375
,2024-08-02 15:24:48,sub_121,3,distance,cathedral,spatial_unmasking,3,89,0,0,_five_,talker-p248_sex-f_text-_five_.wav,p248,f,5,10,12.0,7.0,RX81,6,0.0,0.0,7.0,82.341492931939,babble-reversed_n13_p229-five-p318-three-p307-two-p245-four-p284-nine-p248-eight.wav,10,RX81,11,0.0,0.0,12.0,93.00003341222715,mgb_normalisation,93.00003341222715,90.34149293193902,5,5.0,True,1.499875545501709
,2024-08-02 15:24:52,sub_121,3,distance,cathedral,spatial_unmasking,3,90,0,0,_eight_,talker-p248_sex-f_text-_eight_.wav,p248,f,5,11,12.0,7.0,RX81,6,0.0,0.0,7.0,80.34149293193903,babble-reversed_n13_p307-five-p229-three-p318-nine-p245-four-p268-eight-p284-two.wav,10,RX81,11,0.0,0.0,12.0,93.00003341222715,mgb_normalisation,93.00003341222715,90.34149293193902,8,8.0,True,1.312387228012085
,2024-08-02 15:24:55,sub_121,3,distance,cathedral,spatial_unmasking,3,91,0,0,_eight_,talker-p248_sex-f_text-_eight_.wav,p248,f,5,12,12.0,7.0,RX81,6,0.0,0.0,7.0,80.34149293193903,babble-reversed_n13_p229-one-p318-eight-p256-three-p268-nine-p248-five-p284-four.wav,10,RX81,11,0.0,0.0,12.0,93.00003341222715,mgb_normalisation,93.00003341222715,90.34149293193902,8,8.0,True,1.1249032020568848
,2024-08-02 15:25:00,sub_121,3,distance,cathedral,spatial_unmasking,3,92,0,0,_four_,talker-p248_sex-f_text-_four_.wav,p248,f,5,13,12.0,7.0,RX81,6,0.0,0.0,7.0,78.34149293193902,babble-reversed_n13_p307-nine-p318-two-p256-one-p245-three-p268-four-p248-eight.wav,10,RX81,11,0.0,0.0,12.0,93.00003341222715,mgb_normalisation,93.00003341222715,90.34149293193902,4,9.0,False,2.812328100204468
,2024-08-02 15:25:04,sub_121,3,distance,cathedral,spatial_unmasking,3,93,0,0,_three_,talker-p248_sex-f_text-_three_.wav,p248,f,5,14,12.0,7.0,RX81,6,0.0,0.0,7.0,79.341492931939,babble-reversed_n13_p229-five-p318-three-p307-two-p245-four-p284-nine-p248-eight.wav,10,RX81,11,0.0,0.0,12.0,93.00003341222715,mgb_normalisation,93.00003341222715,90.34149293193902,3,3.0,True,1.4373788833618164
,2024-08-02 15:25:08,sub_121,3,distance,cathedral,spatial_unmasking,3,94,0,0,_five_,talker-p248_sex-f_text-_five_.wav,p248,f,5,15,12.0,7.0,RX81,6,0.0,0.0,7.0,79.341492931939,babble-reversed_n13_p256-four-p229-eight-p307-five-p248-three-p245-one-p284-two.wav,10,RX81,11,0.0,0.0,12.0,93.00003341222715,mgb_normalisation,93.00003341222715,90.34149293193902,5,5.0,True,1.2499332427978516
,2024-08-02 15:25:11,sub_121,3,distance,cathedral,spatial_unmasking,3,95,0,0,_two_,talker-p248_sex-f_text-_two_.wav,p248,f,5,16,12.0,7.0,RX81,6,0.0,0.0,7.0,78.34149293193902,babble-reversed_n13_p256-four-p229-eight-p307-five-p248-three-p245-one-p284-two.wav,10,RX81,11,0.0,0.0,12.0,93.00003341222715,mgb_normalisation,93.00003341222715,90.34149293193902,2,3.0,False,1.3124101161956787
,2024-08-02 15:25:16,sub_121,3,distance,cathedral,spatial_unmasking,3,96,0,0,_eight_,talker-p248_sex-f_text-_eight_.wav,p248,f,5,17,12.0,7.0,RX81,6,0.0,0.0,7.0,79.34149293193902,babble-reversed_n13_p256-eight-p318-two-p307-five-p245-four-p268-nine-p284-one.wav,10,RX81,11,0.0,0.0,12.0,93.00003341222718,mgb_normalisation,93.00003341222715,90.34149293193902,8,1.0,False,1.6874041557312012
,2024-08-02 15:25:19,sub_121,3,distance,cathedral,spatial_unmasking,3,97,0,0,_four_,talker-p248_sex-f_text-_four_.wav,p248,f,5,18,12.0,7.0,RX81,6,0.0,0.0,7.0,80.341492931939,babble-reversed_n13_p256-nine-p307-four-p229-one-p284-three-p248-two-p245-five.wav,10,RX81,11,0.0,0.0,12.0,93.00003341222718,mgb_normalisation,93.00003341222715,90.34149293193902,4,8.0,False,1.3748860359191897
,2024-08-02 15:25:23,sub_121,3,distance,cathedral,spatial_unmasking,3,98,0,0,_six_,talker-p248_sex-f_text-_six_.wav,p248,f,5,19,12.0,7.0,RX81,6,0.0,0.0,7.0,81.34149293193902,babble-reversed_n13_p318-nine-p256-five-p307-eight-p268-three-p248-one-p245-four.wav,10,RX81,11,0.0,0.0,12.0,93.00003341222718,mgb_normalisation,93.00003341222715,90.34149293193902,6,6.0,True,1.1249446868896484
,2024-08-02 15:25:26,sub_121,3,distance,cathedral,spatial_unmasking,3,99,0,0,_eight_,talker-p248_sex-f_text-_eight_.wav,p248,f,5,20,12.0,7.0,RX81,6,0.0,0.0,7.0,81.34149293193902,babble-reversed_n13_p318-five-p229-four-p256-eight-p284-one-p245-three-p248-two.wav,10,RX81,11,0.0,0.0,12.0,93.00003341222718,mgb_normalisation,93.00003341222715,90.34149293193902,8,8.0,True,1.249913454055786
,2024-08-02 15:25:30,sub_121,3,distance,cathedral,spatial_unmasking,3,100,0,0,_three_,talker-p248_sex-f_text-_three_.wav,p248,f,5,21,12.0,7.0,RX81,6,0.0,0.0,7.0,80.341492931939,babble-reversed_n13_p307-five-p229-three-p318-nine-p245-four-p268-eight-p284-two.wav,10,RX81,11,0.0,0.0,12.0,93.00003341222715,mgb_normalisation,93.00003341222715,90.34149293193902,3,3.0,True,1.3749277591705322
,2024-08-02 15:25:36,sub_121,3,distance,cathedral,spatial_unmasking,3,101,0,0,_one_,talker-p248_sex-f_text-_one_.wav,p248,f,5,22,12.0,7.0,RX81,6,0.0,0.0,7.0,80.34149293193903,babble-reversed_n13_p229-five-p256-three-p318-nine-p248-two-p284-four-p268-one.wav,10,RX81,11,0.0,0.0,12.0,93.00003341222718,mgb_normalisation,93.00003341222715,90.34149293193902,1,3.0,False,3.4997589588165283
,2024-08-02 15:25:39,sub_121,3,distance,cathedral,spatial_unmasking,3,102,0,0,_nine_,talker-p248_sex-f_text-_nine_.wav,p248,f,5,23,12.0,7.0,RX81,6,0.0,0.0,7.0,81.34149293193902,babble-reversed_n13_p318-four-p256-five-p229-three-p284-one-p245-eight-p248-nine.wav,10,RX81,11,0.0,0.0,12.0,93.00003341222718,mgb_normalisation,93.00003341222715,90.34149293193902,9,9.0,True,0.9999313354492188
,2024-08-02 15:25:43,sub_121,3,distance,cathedral,spatial_unmasking,3,103,0,0,_one_,talker-p248_sex-f_text-_one_.wav,p248,f,5,24,12.0,7.0,RX81,6,0.0,0.0,7.0,81.34149293193902,babble-reversed_n13_p229-three-p307-one-p318-two-p245-eight-p268-five-p284-four.wav,10,RX81,11,0.0,0.0,12.0,93.00003341222718,mgb_normalisation,93.00003341222715,90.34149293193902,1,1.0,True,0.9374334812164308
,2024-08-02 15:25:46,sub_121,3,distance,cathedral,spatial_unmasking,3,104,0,0,_two_,talker-p248_sex-f_text-_two_.wav,p248,f,5,25,12.0,7.0,RX81,6,0.0,0.0,7.0,80.34149293193903,babble-reversed_n13_p229-nine-p307-five-p256-two-p248-three-p245-one-p268-eight.wav,10,RX81,11,0.0,0.0,12.0,93.00003341222715,mgb_normalisation,93.00003341222715,90.34149293193902,2,2.0,True,0.8749589920043945
,2024-08-02 15:25:49,sub_121,3,distance,cathedral,spatial_unmasking,3,105,0,0,_three_,talker-p248_sex-f_text-_three_.wav,p248,f,5,26,12.0,7.0,RX81,6,0.0,0.0,7.0,80.341492931939,babble-reversed_n13_p229-one-p318-eight-p256-three-p268-nine-p248-five-p284-four.wav,10,RX81,11,0.0,0.0,12.0,93.00003341222715,mgb_normalisation,93.00003341222715,90.34149293193902,3,3.0,True,1.062449932098389
,2024-08-02 15:25:53,sub_121,3,distance,cathedral,spatial_unmasking,3,106,0,0,_one_,talker-p248_sex-f_text-_one_.wav,p248,f,5,27,12.0,7.0,RX81,6,0.0,0.0,7.0,79.34149293193902,babble-reversed_n13_p307-one-p318-five-p229-four-p268-eight-p284-two-p245-three.wav,10,RX81,11,0.0,0.0,12.0,93.00003341222715,mgb_normalisation,93.00003341222715,90.34149293193902,1,1.0,True,1.1249005794525146
,2024-08-02 15:25:56,sub_121,3,distance,cathedral,spatial_unmasking,3,107,0,0,_three_,talker-p248_sex-f_text-_three_.wav,p248,f,5,28,12.0,7.0,RX81,6,0.0,0.0,7.0,79.341492931939,babble-reversed_n13_p318-three-p229-one-p256-eight-p245-five-p248-four-p284-nine.wav,10,RX81,11,0.0,0.0,12.0,93.00003341222718,mgb_normalisation,93.00003341222715,90.34149293193902,3,9.0,False,1.374884843826294
,2024-08-02 15:26:00,sub_121,3,distance,cathedral,spatial_unmasking,3,108,0,0,_eight_,talker-p248_sex-f_text-_eight_.wav,p248,f,5,29,12.0,7.0,RX81,6,0.0,0.0,7.0,80.34149293193903,babble-reversed_n13_p318-nine-p256-five-p307-eight-p268-three-p248-one-p245-four.wav,10,RX81,11,0.0,0.0,12.0,93.00003341222718,mgb_normalisation,93.00003341222715,90.34149293193902,8,4.0,False,1.374885320663452
,2024-08-02 15:26:03,sub_121,3,distance,cathedral,spatial_unmasking,3,109,0,0,_three_,talker-p248_sex-f_text-_three_.wav,p248,f,5,30,12.0,7.0,RX81,6,0.0,0.0,7.0,81.34149293193902,babble-reversed_n13_p256-three-p318-one-p307-two-p284-nine-p268-four-p245-eight.wav,10,RX81,11,0.0,0.0,12.0,93.00003341222718,mgb_normalisation,93.00003341222715,90.34149293193902,3,9.0,False,0.9374551773071288
,2024-08-02 15:26:07,sub_121,3,distance,cathedral,spatial_unmasking,3,110,0,0,_one_,talker-p248_sex-f_text-_one_.wav,p248,f,5,31,12.0,7.0,RX81,6,0.0,0.0,7.0,82.34149293193902,babble-reversed_n13_p229-one-p318-nine-p256-four-p284-eight-p268-five-p245-two.wav,10,RX81,11,0.0,0.0,12.0,93.00003341222715,mgb_normalisation,93.00003341222715,90.34149293193902,1,1.0,True,1.0624070167541504
,2024-08-02 15:26:10,sub_121,3,distance,cathedral,spatial_unmasking,3,111,0,0,_one_,talker-p248_sex-f_text-_one_.wav,p248,f,5,32,12.0,7.0,RX81,6,0.0,0.0,7.0,82.34149293193902,babble-reversed_n13_p318-nine-p307-eight-p229-two-p284-one-p248-three-p245-five.wav,10,RX81,11,0.0,0.0,12.0,93.00003341222718,mgb_normalisation,93.00003341222715,90.34149293193902,1,1.0,True,1.0936753749847412
,2024-08-02 15:26:14,sub_121,3,distance,cathedral,spatial_unmasking,3,112,0,0,_nine_,talker-p248_sex-f_text-_nine_.wav,p248,f,5,33,12.0,7.0,RX81,6,0.0,0.0,7.0,81.34149293193902,babble-reversed_n13_p256-four-p307-eight-p318-two-p248-three-p284-nine-p268-one.wav,10,RX81,11,0.0,0.0,12.0,93.00003341222718,mgb_normalisation,93.00003341222715,90.34149293193902,9,9.0,True,1.374927282333374
,2024-08-02 15:26:18,sub_121,3,distance,cathedral,spatial_unmasking,3,113,0,0,_four_,talker-p248_sex-f_text-_four_.wav,p248,f,5,34,12.0,7.0,RX81,6,0.0,0.0,7.0,81.341492931939,babble-reversed_n13_p307-five-p229-three-p318-nine-p245-four-p268-eight-p284-two.wav,10,RX81,11,0.0,0.0,12.0,93.00003341222715,mgb_normalisation,93.00003341222715,90.34149293193902,4,1.0,False,1.49989652633667
,2024-08-02 15:26:21,sub_121,3,distance,cathedral,spatial_unmasking,3,114,0,0,_nine_,talker-p248_sex-f_text-_nine_.wav,p248,f,5,35,12.0,7.0,RX81,6,0.0,0.0,7.0,82.34149293193902,babble-reversed_n13_p307-two-p229-one-p256-five-p248-nine-p284-three-p268-eight.wav,10,RX81,11,0.0,0.0,12.0,93.00003341222718,mgb_normalisation,93.00003341222715,90.34149293193902,9,9.0,True,1.062448024749756
,2024-08-02 15:26:26,sub_121,3,distance,cathedral,spatial_unmasking,3,115,0,0,_one_,talker-p248_sex-f_text-_one_.wav,p248,f,5,36,12.0,7.0,RX81,6,0.0,0.0,7.0,82.34149293193902,babble-reversed_n13_p229-five-p256-three-p318-nine-p248-two-p284-four-p268-one.wav,10,RX81,11,0.0,0.0,12.0,93.00003341222718,mgb_normalisation,93.00003341222715,90.34149293193902,1,1.0,True,2.4998276233673096
,2024-08-02 15:28:08,sub_121,3,distance,cathedral,spatial_unmasking,4,116,0,0,_two_,talker-p248_sex-f_text-_two_.wav,p248,f,5,1,4.0,7.0,RX81,6,0.0,0.0,7.0,92.34149293193902,babble-reversed_n13_p256-three-p318-two-p229-nine-p248-four-p284-one-p268-eight.wav,2,RX81,3,0.0,0.0,4.0,87.57049330475355,mgb_normalisation,87.57049330475357,90.34149293193902,2,2.0,True,2.5623233318328857
,2024-08-02 15:28:12,sub_121,3,distance,cathedral,spatial_unmasking,4,117,0,0,_eight_,talker-p248_sex-f_text-_eight_.wav,p248,f,5,2,4.0,7.0,RX81,6,0.0,0.0,7.0,88.34149293193902,babble-reversed_n13_p256-four-p307-eight-p318-two-p248-three-p284-nine-p268-one.wav,2,RX81,3,0.0,0.0,4.0,87.57049330475357,mgb_normalisation,87.57049330475357,90.34149293193902,8,8.0,True,1.49987530708313
,2024-08-02 15:28:16,sub_121,3,distance,cathedral,spatial_unmasking,4,118,0,0,_four_,talker-p248_sex-f_text-_four_.wav,p248,f,5,3,4.0,7.0,RX81,6,0.0,0.0,7.0,84.341492931939,babble-reversed_n13_p256-nine-p307-four-p229-one-p284-three-p248-two-p245-five.wav,2,RX81,3,0.0,0.0,4.0,87.57049330475357,mgb_normalisation,87.57049330475357,90.34149293193902,4,9.0,False,1.4373812675476074
,2024-08-02 15:28:20,sub_121,3,distance,cathedral,spatial_unmasking,4,119,0,0,_one_,talker-p248_sex-f_text-_one_.wav,p248,f,5,4,4.0,7.0,RX81,6,0.0,0.0,7.0,86.34149293193902,babble-reversed_n13_p256-four-p229-eight-p307-five-p248-three-p245-one-p284-two.wav,2,RX81,3,0.0,0.0,4.0,87.57049330475355,mgb_normalisation,87.57049330475357,90.34149293193902,1,8.0,False,2.4373421669006348
,2024-08-02 15:28:24,sub_121,3,distance,cathedral,spatial_unmasking,4,120,0,0,_nine_,talker-p248_sex-f_text-_nine_.wav,p248,f,5,5,4.0,7.0,RX81,6,0.0,0.0,7.0,88.34149293193902,babble-reversed_n13_p229-two-p318-eight-p256-three-p268-one-p248-nine-p284-five.wav,2,RX81,3,0.0,0.0,4.0,87.57049330475355,mgb_normalisation,87.57049330475357,90.34149293193902,9,9.0,True,1.1249029636383057
,2024-08-02 15:28:27,sub_121,3,distance,cathedral,spatial_unmasking,4,121,0,0,_eight_,talker-p248_sex-f_text-_eight_.wav,p248,f,5,6,4.0,7.0,RX81,6,0.0,0.0,7.0,88.34149293193902,babble-reversed_n13_p307-nine-p318-two-p256-one-p245-three-p268-four-p248-eight.wav,2,RX81,3,0.0,0.0,4.0,87.57049330475355,mgb_normalisation,87.57049330475357,90.34149293193902,8,8.0,True,0.9999096393585204
,2024-08-02 15:28:31,sub_121,3,distance,cathedral,spatial_unmasking,4,122,0,0,_one_,talker-p248_sex-f_text-_one_.wav,p248,f,5,7,4.0,7.0,RX81,6,0.0,0.0,7.0,86.34149293193902,babble-reversed_n13_p229-eight-p256-nine-p318-four-p245-three-p268-five-p284-two.wav,2,RX81,3,0.0,0.0,4.0,87.57049330475355,mgb_normalisation,87.57049330475357,90.34149293193902,1,1.0,True,1.1249048709869385
,2024-08-02 15:28:34,sub_121,3,distance,cathedral,spatial_unmasking,4,123,0,0,_one_,talker-p248_sex-f_text-_one_.wav,p248,f,5,8,4.0,7.0,RX81,6,0.0,0.0,7.0,86.34149293193902,babble-reversed_n13_p307-two-p256-four-p318-three-p284-eight-p248-five-p245-nine.wav,2,RX81,3,0.0,0.0,4.0,87.57049330475357,mgb_normalisation,87.57049330475357,90.34149293193902,1,1.0,True,0.9999289512634276
,2024-08-02 15:28:37,sub_121,3,distance,cathedral,spatial_unmasking,4,124,0,0,_one_,talker-p248_sex-f_text-_one_.wav,p248,f,5,9,4.0,7.0,RX81,6,0.0,0.0,7.0,84.34149293193903,babble-reversed_n13_p256-four-p229-eight-p307-five-p248-three-p245-one-p284-two.wav,2,RX81,3,0.0,0.0,4.0,87.57049330475355,mgb_normalisation,87.57049330475357,90.34149293193902,1,1.0,True,1.124922513961792
,2024-08-02 15:28:41,sub_121,3,distance,cathedral,spatial_unmasking,4,125,0,0,_eight_,talker-p248_sex-f_text-_eight_.wav,p248,f,5,10,4.0,7.0,RX81,6,0.0,0.0,7.0,84.34149293193903,babble-reversed_n13_p256-five-p229-one-p318-three-p248-nine-p284-eight-p268-two.wav,2,RX81,3,0.0,0.0,4.0,87.57049330475357,mgb_normalisation,87.57049330475357,90.34149293193902,8,8.0,True,1.499898910522461
,2024-08-02 15:28:46,sub_121,3,distance,cathedral,spatial_unmasking,4,126,0,0,_three_,talker-p248_sex-f_text-_three_.wav,p248,f,5,11,4.0,7.0,RX81,6,0.0,0.0,7.0,82.34149293193902,babble-reversed_n13_p256-three-p318-two-p229-nine-p248-four-p284-one-p268-eight.wav,2,RX81,3,0.0,0.0,4.0,87.57049330475355,mgb_normalisation,87.57049330475357,90.34149293193902,3,3.0,True,1.8748505115509035
,2024-08-02 15:28:51,sub_121,3,distance,cathedral,spatial_unmasking,4,127,0,0,_one_,talker-p248_sex-f_text-_one_.wav,p248,f,5,12,4.0,7.0,RX81,6,0.0,0.0,7.0,82.34149293193902,babble-reversed_n13_p229-three-p256-nine-p318-five-p248-one-p245-eight-p284-two.wav,2,RX81,3,0.0,0.0,4.0,87.57049330475357,mgb_normalisation,87.57049330475357,90.34149293193902,1,8.0,False,2.8123087882995605
,2024-08-02 15:28:55,sub_121,3,distance,cathedral,spatial_unmasking,4,128,0,0,_three_,talker-p248_sex-f_text-_three_.wav,p248,f,5,13,4.0,7.0,RX81,6,0.0,0.0,7.0,83.34149293193902,babble-reversed_n13_p256-nine-p307-four-p229-one-p284-three-p248-two-p245-five.wav,2,RX81,3,0.0,0.0,4.0,87.57049330475357,mgb_normalisation,87.57049330475357,90.34149293193902,3,3.0,True,1.624887228012085
,2024-08-02 15:28:59,sub_121,3,distance,cathedral,spatial_unmasking,4,129,0,0,_three_,talker-p248_sex-f_text-_three_.wav,p248,f,5,14,4.0,7.0,RX81,6,0.0,0.0,7.0,83.34149293193902,babble-reversed_n13_p229-five-p318-two-p307-eight-p268-three-p248-four-p245-one.wav,2,RX81,3,0.0,0.0,4.0,87.57049330475357,mgb_normalisation,87.57049330475357,90.34149293193902,3,3.0,True,1.937345266342163
,2024-08-02 15:29:03,sub_121,3,distance,cathedral,spatial_unmasking,4,130,0,0,_nine_,talker-p248_sex-f_text-_nine_.wav,p248,f,5,15,4.0,7.0,RX81,6,0.0,0.0,7.0,82.34149293193902,babble-reversed_n13_p229-one-p318-eight-p256-three-p268-two-p245-five-p248-nine.wav,2,RX81,3,0.0,0.0,4.0,87.57049330475355,mgb_normalisation,87.57049330475357,90.34149293193902,9,9.0,True,1.6249072551727295
,2024-08-02 15:29:07,sub_121,3,distance,cathedral,spatial_unmasking,4,131,0,0,_six_,talker-p248_sex-f_text-_six_.wav,p248,f,5,16,4.0,7.0,RX81,6,0.0,0.0,7.0,82.34149293193902,babble-reversed_n13_p229-two-p318-eight-p256-three-p268-one-p248-nine-p284-five.wav,2,RX81,3,0.0,0.0,4.0,87.57049330475355,mgb_normalisation,87.57049330475357,90.34149293193902,6,6.0,True,1.7498774528503418
,2024-08-02 15:29:11,sub_121,3,distance,cathedral,spatial_unmasking,4,132,0,0,_one_,talker-p248_sex-f_text-_one_.wav,p248,f,5,17,4.0,7.0,RX81,6,0.0,0.0,7.0,81.34149293193902,babble-reversed_n13_p256-eight-p318-five-p307-four-p245-three-p268-one-p284-nine.wav,2,RX81,3,0.0,0.0,4.0,87.57049330475355,mgb_normalisation,87.57049330475357,90.34149293193902,1,1.0,True,1.5623927116394043
,2024-08-02 15:29:15,sub_121,3,distance,cathedral,spatial_unmasking,4,133,0,0,_eight_,talker-p248_sex-f_text-_eight_.wav,p248,f,5,18,4.0,7.0,RX81,6,0.0,0.0,7.0,81.34149293193902,babble-reversed_n13_p229-eight-p256-nine-p318-four-p245-three-p268-five-p284-two.wav,2,RX81,3,0.0,0.0,4.0,87.57049330475355,mgb_normalisation,87.57049330475357,90.34149293193902,8,3.0,False,1.562394618988037
,2024-08-02 15:29:19,sub_121,3,distance,cathedral,spatial_unmasking,4,134,0,0,_eight_,talker-p248_sex-f_text-_eight_.wav,p248,f,5,19,4.0,7.0,RX81,6,0.0,0.0,7.0,82.34149293193902,babble-reversed_n13_p307-nine-p229-one-p256-eight-p248-four-p284-two-p268-three.wav,2,RX81,3,0.0,0.0,4.0,87.57049330475357,mgb_normalisation,87.57049330475357,90.34149293193902,8,8.0,True,1.4374213218688965
,2024-08-02 15:29:23,sub_121,3,distance,cathedral,spatial_unmasking,4,135,0,0,_eight_,talker-p248_sex-f_text-_eight_.wav,p248,f,5,20,4.0,7.0,RX81,6,0.0,0.0,7.0,82.34149293193902,babble-reversed_n13_p318-three-p307-one-p256-five-p248-nine-p245-two-p284-eight.wav,2,RX81,3,0.0,0.0,4.0,87.57049330475357,mgb_normalisation,87.57049330475357,90.34149293193902,8,8.0,True,1.6248884201049805
,2024-08-02 15:29:27,sub_121,3,distance,cathedral,spatial_unmasking,4,136,0,0,_eight_,talker-p248_sex-f_text-_eight_.wav,p248,f,5,21,4.0,7.0,RX81,6,0.0,0.0,7.0,81.34149293193902,babble-reversed_n13_p318-three-p229-one-p256-eight-p245-five-p248-four-p284-nine.wav,2,RX81,3,0.0,0.0,4.0,87.57049330475357,mgb_normalisation,87.57049330475357,90.34149293193902,8,9.0,False,1.9998624324798584
,2024-08-02 15:29:31,sub_121,3,distance,cathedral,spatial_unmasking,4,137,0,0,_one_,talker-p248_sex-f_text-_one_.wav,p248,f,5,22,4.0,7.0,RX81,6,0.0,0.0,7.0,82.34149293193902,babble-reversed_n13_p318-three-p229-one-p256-eight-p245-five-p248-four-p284-nine.wav,2,RX81,3,0.0,0.0,4.0,87.57049330475357,mgb_normalisation,87.57049330475357,90.34149293193902,1,1.0,True,1.1874372959136963
,2024-08-02 15:29:34,sub_121,3,distance,cathedral,spatial_unmasking,4,138,0,0,_three_,talker-p248_sex-f_text-_three_.wav,p248,f,5,23,4.0,7.0,RX81,6,0.0,0.0,7.0,82.34149293193902,babble-reversed_n13_p229-one-p318-eight-p256-three-p268-two-p245-five-p248-nine.wav,2,RX81,3,0.0,0.0,4.0,87.57049330475355,mgb_normalisation,87.57049330475357,90.34149293193902,3,3.0,True,1.2499139308929443
,2024-08-02 15:29:38,sub_121,3,distance,cathedral,spatial_unmasking,4,139,0,0,_six_,talker-p248_sex-f_text-_six_.wav,p248,f,5,24,4.0,7.0,RX81,6,0.0,0.0,7.0,81.34149293193902,babble-reversed_n13_p229-two-p256-three-p318-eight-p284-five-p268-four-p245-one.wav,2,RX81,3,0.0,0.0,4.0,87.57049330475357,mgb_normalisation,87.57049330475357,90.34149293193902,6,6.0,True,1.1874396800994873
,2024-08-02 15:29:41,sub_121,3,distance,cathedral,spatial_unmasking,4,140,0,0,_nine_,talker-p248_sex-f_text-_nine_.wav,p248,f,5,25,4.0,7.0,RX81,6,0.0,0.0,7.0,81.34149293193902,babble-reversed_n13_p318-three-p307-one-p256-five-p248-nine-p245-two-p284-eight.wav,2,RX81,3,0.0,0.0,4.0,87.57049330475357,mgb_normalisation,87.57049330475357,90.34149293193902,9,9.0,True,1.4373791217803955
,2024-08-02 15:29:46,sub_121,3,distance,cathedral,spatial_unmasking,4,141,0,0,_eight_,talker-p248_sex-f_text-_eight_.wav,p248,f,5,26,4.0,7.0,RX81,6,0.0,0.0,7.0,80.34149293193903,babble-reversed_n13_p256-eight-p318-five-p307-four-p245-three-p268-one-p284-nine.wav,2,RX81,3,0.0,0.0,4.0,87.57049330475355,mgb_normalisation,87.57049330475357,90.34149293193902,8,9.0,False,2.2498438358306885
,2024-08-02 15:29:50,sub_121,3,distance,cathedral,spatial_unmasking,4,142,0,0,_five_,talker-p248_sex-f_text-_five_.wav,p248,f,5,27,4.0,7.0,RX81,6,0.0,0.0,7.0,81.341492931939,babble-reversed_n13_p229-five-p318-three-p307-two-p245-four-p284-nine-p248-eight.wav,2,RX81,3,0.0,0.0,4.0,87.57049330475357,mgb_normalisation,87.57049330475357,90.34149293193902,5,5.0,True,1.4373815059661863
,2024-08-02 15:29:55,sub_121,3,distance,cathedral,spatial_unmasking,4,143,0,0,_two_,talker-p248_sex-f_text-_two_.wav,p248,f,5,28,4.0,7.0,RX81,6,0.0,0.0,7.0,81.34149293193902,babble-reversed_n13_p229-nine-p318-one-p307-two-p248-eight-p245-five-p284-four.wav,2,RX81,3,0.0,0.0,4.0,87.57049330475357,mgb_normalisation,87.57049330475357,90.34149293193902,2,2.0,True,2.499828338623047
,2024-08-02 15:29:58,sub_121,3,distance,cathedral,spatial_unmasking,4,144,0,0,_five_,talker-p248_sex-f_text-_five_.wav,p248,f,5,29,4.0,7.0,RX81,6,0.0,0.0,7.0,80.341492931939,babble-reversed_n13_p229-one-p318-nine-p256-four-p284-eight-p268-five-p245-two.wav,2,RX81,3,0.0,0.0,4.0,87.57049330475357,mgb_normalisation,87.57049330475357,90.34149293193902,5,5.0,True,1.374903678894043
,2024-08-02 15:30:02,sub_121,3,distance,cathedral,spatial_unmasking,4,145,0,0,_six_,talker-p248_sex-f_text-_six_.wav,p248,f,5,30,4.0,7.0,RX81,6,0.0,0.0,7.0,80.34149293193903,babble-reversed_n13_p256-three-p318-one-p307-two-p284-nine-p268-four-p245-eight.wav,2,RX81,3,0.0,0.0,4.0,87.57049330475357,mgb_normalisation,87.57049330475357,90.34149293193902,6,6.0,True,1.2499332427978516
,2024-08-02 15:30:06,sub_121,3,distance,cathedral,spatial_unmasking,4,146,0,0,_four_,talker-p248_sex-f_text-_four_.wav,p248,f,5,31,4.0,7.0,RX81,6,0.0,0.0,7.0,79.341492931939,babble-reversed_n13_p256-eight-p318-two-p307-five-p245-four-p268-nine-p284-one.wav,2,RX81,3,0.0,0.0,4.0,87.57049330475357,mgb_normalisation,87.57049330475357,90.34149293193902,4,4.0,True,1.9373445510864256
,2024-08-02 15:30:11,sub_121,3,distance,cathedral,spatial_unmasking,4,147,0,0,_four_,talker-p248_sex-f_text-_four_.wav,p248,f,5,32,4.0,7.0,RX81,6,0.0,0.0,7.0,79.341492931939,babble-reversed_n13_p307-five-p229-two-p318-four-p248-three-p245-nine-p268-eight.wav,2,RX81,3,0.0,0.0,4.0,87.57049330475355,mgb_normalisation,87.57049330475357,90.34149293193902,4,3.0,False,1.937366247177124
,2024-08-02 15:30:14,sub_121,3,distance,cathedral,spatial_unmasking,4,148,0,0,_five_,talker-p248_sex-f_text-_five_.wav,p248,f,5,33,4.0,7.0,RX81,6,0.0,0.0,7.0,80.341492931939,babble-reversed_n13_p229-two-p318-eight-p256-three-p268-one-p248-nine-p284-five.wav,2,RX81,3,0.0,0.0,4.0,87.57049330475355,mgb_normalisation,87.57049330475357,90.34149293193902,5,5.0,True,1.1874380111694336
,2024-08-02 15:30:18,sub_121,3,distance,cathedral,spatial_unmasking,4,149,0,0,_one_,talker-p248_sex-f_text-_one_.wav,p248,f,5,34,4.0,7.0,RX81,6,0.0,0.0,7.0,80.34149293193903,babble-reversed_n13_p318-nine-p256-five-p307-eight-p268-three-p248-one-p245-four.wav,2,RX81,3,0.0,0.0,4.0,87.57049330475357,mgb_normalisation,87.57049330475357,90.34149293193902,1,4.0,False,1.4998977184295654
,2024-08-02 15:30:22,sub_121,3,distance,cathedral,spatial_unmasking,4,150,0,0,_nine_,talker-p248_sex-f_text-_nine_.wav,p248,f,5,35,4.0,7.0,RX81,6,0.0,0.0,7.0,81.34149293193902,babble-reversed_n13_p307-five-p229-two-p318-four-p248-three-p245-nine-p268-eight.wav,2,RX81,3,0.0,0.0,4.0,87.57049330475355,mgb_normalisation,87.57049330475357,90.34149293193902,9,9.0,True,1.249911546707153
,2024-08-02 15:30:26,sub_121,3,distance,cathedral,spatial_unmasking,4,151,0,0,_one_,talker-p248_sex-f_text-_one_.wav,p248,f,5,36,4.0,7.0,RX81,6,0.0,0.0,7.0,81.34149293193902,babble-reversed_n13_p307-nine-p318-two-p256-one-p245-three-p268-four-p248-eight.wav,2,RX81,3,0.0,0.0,4.0,87.57049330475355,mgb_normalisation,87.57049330475357,90.34149293193902,1,9.0,False,1.812375545501709
,2024-08-02 15:30:29,sub_121,3,distance,cathedral,spatial_unmasking,4,152,0,0,_eight_,talker-p248_sex-f_text-_eight_.wav,p248,f,5,37,4.0,7.0,RX81,6,0.0,0.0,7.0,82.34149293193902,babble-reversed_n13_p229-five-p318-three-p307-two-p245-four-p284-nine-p248-eight.wav,2,RX81,3,0.0,0.0,4.0,87.57049330475357,mgb_normalisation,87.57049330475357,90.34149293193902,8,8.0,True,1.187398910522461
,2024-08-02 15:30:33,sub_121,3,distance,cathedral,spatial_unmasking,4,153,0,0,_four_,talker-p248_sex-f_text-_four_.wav,p248,f,5,38,4.0,7.0,RX81,6,0.0,0.0,7.0,82.34149293193902,babble-reversed_n13_p256-eight-p318-five-p307-four-p245-three-p268-one-p284-nine.wav,2,RX81,3,0.0,0.0,4.0,87.57049330475355,mgb_normalisation,87.57049330475357,90.34149293193902,4,1.0,False,1.43738055229187
,2024-08-02 15:30:37,sub_121,3,distance,cathedral,spatial_unmasking,4,154,0,0,_two_,talker-p248_sex-f_text-_two_.wav,p248,f,5,39,4.0,7.0,RX81,6,0.0,0.0,7.0,83.34149293193903,babble-reversed_n13_p307-five-p229-three-p318-nine-p245-four-p268-eight-p284-two.wav,2,RX81,3,0.0,0.0,4.0,87.57049330475355,mgb_normalisation,87.57049330475357,90.34149293193902,2,2.0,True,1.6248652935028076
,2024-08-02 15:30:41,sub_121,3,distance,cathedral,spatial_unmasking,4,155,0,0,_three_,talker-p248_sex-f_text-_three_.wav,p248,f,5,40,4.0,7.0,RX81,6,0.0,0.0,7.0,83.34149293193902,babble-reversed_n13_p229-one-p318-eight-p256-three-p268-two-p245-five-p248-nine.wav,2,RX81,3,0.0,0.0,4.0,87.57049330475355,mgb_normalisation,87.57049330475357,90.34149293193902,3,3.0,True,1.4373810291290283
,2024-08-02 15:35:14,sub_121,3,distance,cathedral,spatial_unmasking,5,156,0,0,_three_,talker-p248_sex-f_text-_three_.wav,p248,f,5,1,6.0,7.0,RX81,6,0.0,0.0,7.0,92.34149293193902,babble-reversed_n13_p229-three-p256-one-p307-two-p284-eight-p268-five-p248-nine.wav,4,RX81,5,0.0,0.0,6.0,89.31368318402099,mgb_normalisation,89.31368318402099,90.34149293193902,3,3.0,True,1.1249022483825684
,2024-08-02 15:35:18,sub_121,3,distance,cathedral,spatial_unmasking,5,157,0,0,_one_,talker-p248_sex-f_text-_one_.wav,p248,f,5,2,6.0,7.0,RX81,6,0.0,0.0,7.0,88.34149293193903,babble-reversed_n13_p256-three-p318-two-p229-nine-p248-four-p284-one-p268-eight.wav,4,RX81,5,0.0,0.0,6.0,89.31368318402099,mgb_normalisation,89.31368318402099,90.34149293193902,1,1.0,True,1.1249206066131592
,2024-08-02 15:35:21,sub_121,3,distance,cathedral,spatial_unmasking,5,158,0,0,_five_,talker-p248_sex-f_text-_five_.wav,p248,f,5,3,6.0,7.0,RX81,6,0.0,0.0,7.0,84.341492931939,babble-reversed_n13_p307-one-p318-five-p229-four-p268-eight-p284-two-p245-three.wav,4,RX81,5,0.0,0.0,6.0,89.31368318402099,mgb_normalisation,89.31368318402099,90.34149293193902,5,5.0,True,1.1249215602874756
,2024-08-02 15:35:25,sub_121,3,distance,cathedral,spatial_unmasking,5,159,0,0,_nine_,talker-p248_sex-f_text-_nine_.wav,p248,f,5,4,6.0,7.0,RX81,6,0.0,0.0,7.0,80.341492931939,babble-reversed_n13_p229-one-p318-nine-p256-four-p284-eight-p268-five-p245-two.wav,4,RX81,5,0.0,0.0,6.0,89.31368318402099,mgb_normalisation,89.31368318402099,90.34149293193902,9,8.0,False,1.437380075454712
,2024-08-02 15:35:28,sub_121,3,distance,cathedral,spatial_unmasking,5,160,0,0,_two_,talker-p248_sex-f_text-_two_.wav,p248,f,5,5,6.0,7.0,RX81,6,0.0,0.0,7.0,82.34149293193902,babble-reversed_n13_p229-five-p318-two-p307-eight-p268-three-p248-four-p245-one.wav,4,RX81,5,0.0,0.0,6.0,89.313683184021,mgb_normalisation,89.31368318402099,90.34149293193902,2,2.0,True,0.9999496936798096
,2024-08-02 15:35:32,sub_121,3,distance,cathedral,spatial_unmasking,5,161,0,0,_one_,talker-p248_sex-f_text-_one_.wav,p248,f,5,6,6.0,7.0,RX81,6,0.0,0.0,7.0,82.34149293193902,babble-reversed_n13_p256-eight-p318-two-p307-five-p245-four-p268-nine-p284-one.wav,4,RX81,5,0.0,0.0,6.0,89.31368318402099,mgb_normalisation,89.31368318402099,90.34149293193902,1,1.0,True,1.062427282333374
,2024-08-02 15:35:36,sub_121,3,distance,cathedral,spatial_unmasking,5,162,0,0,_four_,talker-p248_sex-f_text-_four_.wav,p248,f,5,7,6.0,7.0,RX81,6,0.0,0.0,7.0,80.341492931939,babble-reversed_n13_p229-five-p256-one-p318-three-p248-nine-p268-four-p284-eight.wav,4,RX81,5,0.0,0.0,6.0,89.31368318402099,mgb_normalisation,89.31368318402099,90.34149293193902,4,4.0,True,1.937366962432861
,2024-08-02 15:35:40,sub_121,3,distance,cathedral,spatial_unmasking,5,163,0,0,_two_,talker-p248_sex-f_text-_two_.wav,p248,f,5,8,6.0,7.0,RX81,6,0.0,0.0,7.0,80.34149293193903,babble-reversed_n13_p318-three-p307-one-p256-five-p248-nine-p245-two-p284-eight.wav,4,RX81,5,0.0,0.0,6.0,89.31368318402099,mgb_normalisation,89.31368318402099,90.34149293193902,2,2.0,True,1.499896764755249
,2024-08-02 15:35:44,sub_121,3,distance,cathedral,spatial_unmasking,5,164,0,0,_five_,talker-p248_sex-f_text-_five_.wav,p248,f,5,9,6.0,7.0,RX81,6,0.0,0.0,7.0,78.341492931939,babble-reversed_n13_p229-two-p307-five-p318-four-p284-one-p248-nine-p268-eight.wav,4,RX81,5,0.0,0.0,6.0,89.31368318402099,mgb_normalisation,89.31368318402099,90.34149293193902,5,5.0,True,1.6873815059661863
,2024-08-02 15:35:48,sub_121,3,distance,cathedral,spatial_unmasking,5,165,0,0,_two_,talker-p248_sex-f_text-_two_.wav,p248,f,5,10,6.0,7.0,RX81,6,0.0,0.0,7.0,78.34149293193902,babble-reversed_n13_p229-three-p256-nine-p318-five-p248-one-p245-eight-p284-two.wav,4,RX81,5,0.0,0.0,6.0,89.31368318402099,mgb_normalisation,89.31368318402099,90.34149293193902,2,9.0,False,1.5623924732208252
,2024-08-02 15:35:52,sub_121,3,distance,cathedral,spatial_unmasking,5,166,0,0,_eight_,talker-p248_sex-f_text-_eight_.wav,p248,f,5,11,6.0,7.0,RX81,6,0.0,0.0,7.0,79.34149293193902,babble-reversed_n13_p256-four-p307-eight-p318-two-p248-three-p284-nine-p268-one.wav,4,RX81,5,0.0,0.0,6.0,89.313683184021,mgb_normalisation,89.31368318402099,90.34149293193902,8,8.0,True,1.8123581409454343
,2024-08-02 15:35:57,sub_121,3,distance,cathedral,spatial_unmasking,5,167,0,0,_three_,talker-p248_sex-f_text-_three_.wav,p248,f,5,12,6.0,7.0,RX81,6,0.0,0.0,7.0,79.341492931939,babble-reversed_n13_p307-two-p229-one-p256-five-p248-nine-p284-three-p268-eight.wav,4,RX81,5,0.0,0.0,6.0,89.313683184021,mgb_normalisation,89.31368318402099,90.34149293193902,3,3.0,True,2.249865293502808
,2024-08-02 15:36:00,sub_121,3,distance,cathedral,spatial_unmasking,5,168,0,0,_five_,talker-p248_sex-f_text-_five_.wav,p248,f,5,13,6.0,7.0,RX81,6,0.0,0.0,7.0,78.341492931939,babble-reversed_n13_p307-nine-p318-two-p256-one-p245-three-p268-four-p248-eight.wav,4,RX81,5,0.0,0.0,6.0,89.31368318402099,mgb_normalisation,89.31368318402099,90.34149293193902,5,5.0,True,1.0624468326568604
,2024-08-02 15:36:04,sub_121,3,distance,cathedral,spatial_unmasking,5,169,0,0,_nine_,talker-p248_sex-f_text-_nine_.wav,p248,f,5,14,6.0,7.0,RX81,6,0.0,0.0,7.0,78.34149293193902,babble-reversed_n13_p256-four-p229-two-p318-five-p268-one-p248-eight-p245-three.wav,4,RX81,5,0.0,0.0,6.0,89.31368318402099,mgb_normalisation,89.31368318402099,90.34149293193902,9,9.0,True,1.2499136924743652
,2024-08-02 15:36:07,sub_121,3,distance,cathedral,spatial_unmasking,5,170,0,0,_six_,talker-p248_sex-f_text-_six_.wav,p248,f,5,15,6.0,7.0,RX81,6,0.0,0.0,7.0,77.34149293193902,babble-reversed_n13_p229-two-p256-three-p318-eight-p284-five-p268-four-p245-one.wav,4,RX81,5,0.0,0.0,6.0,89.31368318402099,mgb_normalisation,89.31368318402099,90.34149293193902,6,6.0,True,1.0624487400054932
,2024-08-02 15:36:11,sub_121,3,distance,cathedral,spatial_unmasking,5,171,0,0,_six_,talker-p248_sex-f_text-_six_.wav,p248,f,5,16,6.0,7.0,RX81,6,0.0,0.0,7.0,77.34149293193902,babble-reversed_n13_p256-eight-p229-three-p307-nine-p245-five-p248-four-p268-two.wav,4,RX81,5,0.0,0.0,6.0,89.31368318402099,mgb_normalisation,89.31368318402099,90.34149293193902,6,6.0,True,1.312387228012085
,2024-08-02 15:36:16,sub_121,3,distance,cathedral,spatial_unmasking,5,172,0,0,_three_,talker-p248_sex-f_text-_three_.wav,p248,f,5,17,6.0,7.0,RX81,6,0.0,0.0,7.0,76.34149293193902,babble-reversed_n13_p229-five-p256-one-p318-three-p248-nine-p268-four-p284-eight.wav,4,RX81,5,0.0,0.0,6.0,89.31368318402099,mgb_normalisation,89.31368318402099,90.34149293193902,3,9.0,False,2.7498109340667725
,2024-08-02 15:36:20,sub_121,3,distance,cathedral,spatial_unmasking,5,173,0,0,_six_,talker-p248_sex-f_text-_six_.wav,p248,f,5,18,6.0,7.0,RX81,6,0.0,0.0,7.0,77.34149293193902,babble-reversed_n13_p229-nine-p307-five-p256-two-p248-three-p245-one-p268-eight.wav,4,RX81,5,0.0,0.0,6.0,89.31368318402099,mgb_normalisation,89.31368318402099,90.34149293193902,6,6.0,True,1.812355756759644
,2024-08-02 15:36:25,sub_121,3,distance,cathedral,spatial_unmasking,5,174,0,0,_eight_,talker-p248_sex-f_text-_eight_.wav,p248,f,5,19,6.0,7.0,RX81,6,0.0,0.0,7.0,77.34149293193903,babble-reversed_n13_p318-five-p229-four-p256-eight-p284-one-p245-three-p248-two.wav,4,RX81,5,0.0,0.0,6.0,89.31368318402099,mgb_normalisation,89.31368318402099,90.34149293193902,8,4.0,False,2.499828100204468
,2024-08-02 15:36:30,sub_121,3,distance,cathedral,spatial_unmasking,5,175,0,0,_two_,talker-p248_sex-f_text-_two_.wav,p248,f,5,20,6.0,7.0,RX81,6,0.0,0.0,7.0,78.34149293193902,babble-reversed_n13_p307-one-p318-five-p229-four-p268-eight-p284-two-p245-three.wav,4,RX81,5,0.0,0.0,6.0,89.31368318402099,mgb_normalisation,89.31368318402099,90.34149293193902,2,3.0,False,2.4998061656951904
,2024-08-02 15:36:33,sub_121,3,distance,cathedral,spatial_unmasking,5,176,0,0,_nine_,talker-p248_sex-f_text-_nine_.wav,p248,f,5,21,6.0,7.0,RX81,6,0.0,0.0,7.0,79.341492931939,babble-reversed_n13_p229-one-p318-nine-p256-four-p284-eight-p268-five-p245-two.wav,4,RX81,5,0.0,0.0,6.0,89.31368318402099,mgb_normalisation,89.31368318402099,90.34149293193902,9,1.0,False,1.499897003173828
,2024-08-02 15:36:37,sub_121,3,distance,cathedral,spatial_unmasking,5,177,0,0,_three_,talker-p248_sex-f_text-_three_.wav,p248,f,5,22,6.0,7.0,RX81,6,0.0,0.0,7.0,80.341492931939,babble-reversed_n13_p307-nine-p318-two-p256-one-p245-three-p268-four-p248-eight.wav,4,RX81,5,0.0,0.0,6.0,89.31368318402099,mgb_normalisation,89.31368318402099,90.34149293193902,3,3.0,True,1.6874032020568848
,2024-08-02 15:36:41,sub_121,3,distance,cathedral,spatial_unmasking,5,178,0,0,_two_,talker-p248_sex-f_text-_two_.wav,p248,f,5,23,6.0,7.0,RX81,6,0.0,0.0,7.0,80.34149293193903,babble-reversed_n13_p229-two-p318-eight-p256-three-p268-one-p248-nine-p284-five.wav,4,RX81,5,0.0,0.0,6.0,89.31368318402099,mgb_normalisation,89.31368318402099,90.34149293193902,2,2.0,True,1.5623927116394043
,2024-08-02 15:36:45,sub_121,3,distance,cathedral,spatial_unmasking,5,179,0,0,_two_,talker-p248_sex-f_text-_two_.wav,p248,f,5,24,6.0,7.0,RX81,6,0.0,0.0,7.0,79.34149293193902,babble-reversed_n13_p307-two-p256-four-p318-three-p284-eight-p248-five-p245-nine.wav,4,RX81,5,0.0,0.0,6.0,89.313683184021,mgb_normalisation,89.31368318402099,90.34149293193902,2,2.0,True,1.4374008178710938
,2024-08-02 15:36:50,sub_121,3,distance,cathedral,spatial_unmasking,5,180,0,0,_one_,talker-p248_sex-f_text-_one_.wav,p248,f,5,25,6.0,7.0,RX81,6,0.0,0.0,7.0,79.34149293193902,babble-reversed_n13_p307-five-p229-two-p318-four-p248-three-p245-nine-p268-eight.wav,4,RX81,5,0.0,0.0,6.0,89.31368318402099,mgb_normalisation,89.31368318402099,90.34149293193902,1,9.0,False,2.7498316764831543
,2024-08-02 15:36:54,sub_121,3,distance,cathedral,spatial_unmasking,5,181,0,0,_nine_,talker-p248_sex-f_text-_nine_.wav,p248,f,5,26,6.0,7.0,RX81,6,0.0,0.0,7.0,80.341492931939,babble-reversed_n13_p318-three-p307-one-p256-five-p248-nine-p245-two-p284-eight.wav,4,RX81,5,0.0,0.0,6.0,89.31368318402099,mgb_normalisation,89.31368318402099,90.34149293193902,9,9.0,True,1.312387466430664
,2024-08-02 15:36:58,sub_121,3,distance,cathedral,spatial_unmasking,5,182,0,0,_three_,talker-p248_sex-f_text-_three_.wav,p248,f,5,27,6.0,7.0,RX81,6,0.0,0.0,7.0,80.341492931939,babble-reversed_n13_p256-nine-p307-four-p229-one-p284-three-p248-two-p245-five.wav,4,RX81,5,0.0,0.0,6.0,89.31368318402099,mgb_normalisation,89.31368318402099,90.34149293193902,3,3.0,True,1.7498798370361328
,2024-08-02 15:37:02,sub_121,3,distance,cathedral,spatial_unmasking,5,183,0,0,_one_,talker-p248_sex-f_text-_one_.wav,p248,f,5,28,6.0,7.0,RX81,6,0.0,0.0,7.0,79.34149293193902,babble-reversed_n13_p229-three-p256-one-p307-two-p284-eight-p268-five-p248-nine.wav,4,RX81,5,0.0,0.0,6.0,89.31368318402099,mgb_normalisation,89.31368318402099,90.34149293193902,1,1.0,True,1.4374005794525146
,2024-08-02 15:37:06,sub_121,3,distance,cathedral,spatial_unmasking,5,184,0,0,_four_,talker-p248_sex-f_text-_four_.wav,p248,f,5,29,6.0,7.0,RX81,6,0.0,0.0,7.0,79.341492931939,babble-reversed_n13_p318-five-p229-four-p256-eight-p284-one-p245-three-p248-two.wav,4,RX81,5,0.0,0.0,6.0,89.31368318402099,mgb_normalisation,89.31368318402099,90.34149293193902,4,4.0,True,1.5623724460601809
,2024-08-02 15:37:10,sub_121,3,distance,cathedral,spatial_unmasking,5,185,0,0,_five_,talker-p248_sex-f_text-_five_.wav,p248,f,5,30,6.0,7.0,RX81,6,0.0,0.0,7.0,78.341492931939,babble-reversed_n13_p256-five-p307-nine-p318-three-p284-eight-p268-one-p248-two.wav,4,RX81,5,0.0,0.0,6.0,89.31368318402099,mgb_normalisation,89.31368318402099,90.34149293193902,5,9.0,False,1.6248886585235596
,2024-08-02 15:37:14,sub_121,3,distance,cathedral,spatial_unmasking,5,186,0,0,_one_,talker-p248_sex-f_text-_one_.wav,p248,f,5,31,6.0,7.0,RX81,6,0.0,0.0,7.0,79.34149293193902,babble-reversed_n13_p229-nine-p318-one-p307-two-p248-eight-p245-five-p284-four.wav,4,RX81,5,0.0,0.0,6.0,89.31368318402099,mgb_normalisation,89.31368318402099,90.34149293193902,1,9.0,False,1.6249094009399414
,2024-08-02 15:37:17,sub_121,3,distance,cathedral,spatial_unmasking,5,187,0,0,_five_,talker-p248_sex-f_text-_five_.wav,p248,f,5,32,6.0,7.0,RX81,6,0.0,0.0,7.0,80.341492931939,babble-reversed_n13_p307-two-p229-one-p256-five-p248-nine-p284-three-p268-eight.wav,4,RX81,5,0.0,0.0,6.0,89.313683184021,mgb_normalisation,89.31368318402099,90.34149293193902,5,5.0,True,1.2498948574066162
,2024-08-02 15:37:22,sub_121,3,distance,cathedral,spatial_unmasking,5,188,0,0,_four_,talker-p248_sex-f_text-_four_.wav,p248,f,5,33,6.0,7.0,RX81,6,0.0,0.0,7.0,80.341492931939,babble-reversed_n13_p256-eight-p318-two-p307-five-p245-four-p268-nine-p284-one.wav,4,RX81,5,0.0,0.0,6.0,89.31368318402099,mgb_normalisation,89.31368318402099,90.34149293193902,4,4.0,True,1.9998836517333984
,2024-08-02 15:37:26,sub_121,3,distance,cathedral,spatial_unmasking,5,189,0,0,_one_,talker-p248_sex-f_text-_one_.wav,p248,f,5,34,6.0,7.0,RX81,6,0.0,0.0,7.0,79.34149293193902,babble-reversed_n13_p229-two-p256-three-p318-eight-p284-five-p268-four-p245-one.wav,4,RX81,5,0.0,0.0,6.0,89.31368318402099,mgb_normalisation,89.31368318402099,90.34149293193902,1,9.0,False,1.6248893737792969
,2024-08-02 15:37:29,sub_121,3,distance,cathedral,spatial_unmasking,5,190,0,0,_five_,talker-p248_sex-f_text-_five_.wav,p248,f,5,35,6.0,7.0,RX81,6,0.0,0.0,7.0,80.341492931939,babble-reversed_n13_p256-two-p307-five-p318-nine-p248-eight-p245-four-p284-one.wav,4,RX81,5,0.0,0.0,6.0,89.31368318402099,mgb_normalisation,89.31368318402099,90.34149293193902,5,5.0,True,1.12492036819458
,2024-08-02 15:37:33,sub_121,3,distance,cathedral,spatial_unmasking,5,191,0,0,_six_,talker-p248_sex-f_text-_six_.wav,p248,f,5,36,6.0,7.0,RX81,6,0.0,0.0,7.0,80.34149293193903,babble-reversed_n13_p318-nine-p307-eight-p229-two-p284-one-p248-three-p245-five.wav,4,RX81,5,0.0,0.0,6.0,89.31368318402099,mgb_normalisation,89.31368318402099,90.34149293193902,6,6.0,True,1.1874160766601562
,2024-08-02 15:38:46,sub_121,3,distance,cathedral,spatial_unmasking,6,192,0,0,_nine_,talker-p248_sex-f_text-_nine_.wav,p248,f,5,1,8.0,7.0,RX81,6,0.0,0.0,7.0,92.34149293193902,babble-reversed_n13_p256-eight-p318-five-p307-four-p245-three-p268-one-p284-nine.wav,6,RX81,7,0.0,0.0,8.0,91.58892582949886,mgb_normalisation,91.58892582949886,90.34149293193902,9,9.0,True,1.1874182224273682
,2024-08-02 15:38:50,sub_121,3,distance,cathedral,spatial_unmasking,6,193,0,0,_four_,talker-p248_sex-f_text-_four_.wav,p248,f,5,2,8.0,7.0,RX81,6,0.0,0.0,7.0,88.34149293193902,babble-reversed_n13_p229-three-p307-one-p318-two-p245-eight-p268-five-p284-four.wav,6,RX81,7,0.0,0.0,8.0,91.58892582949888,mgb_normalisation,91.58892582949886,90.34149293193902,4,4.0,True,1.499886989593506
,2024-08-02 15:38:54,sub_121,3,distance,cathedral,spatial_unmasking,6,194,0,0,_four_,talker-p248_sex-f_text-_four_.wav,p248,f,5,3,8.0,7.0,RX81,6,0.0,0.0,7.0,84.341492931939,babble-reversed_n13_p318-nine-p256-five-p307-eight-p268-three-p248-one-p245-four.wav,6,RX81,7,0.0,0.0,8.0,91.58892582949888,mgb_normalisation,91.58892582949886,90.34149293193902,4,5.0,False,1.4998955726623535
,2024-08-02 15:38:58,sub_121,3,distance,cathedral,spatial_unmasking,6,195,0,0,_eight_,talker-p248_sex-f_text-_eight_.wav,p248,f,5,4,8.0,7.0,RX81,6,0.0,0.0,7.0,86.34149293193902,babble-reversed_n13_p229-one-p318-eight-p256-three-p268-two-p245-five-p248-nine.wav,6,RX81,7,0.0,0.0,8.0,91.58892582949886,mgb_normalisation,91.58892582949886,90.34149293193902,8,3.0,False,1.7498602867126465
,2024-08-02 15:39:02,sub_121,3,distance,cathedral,spatial_unmasking,6,196,0,0,_two_,talker-p248_sex-f_text-_two_.wav,p248,f,5,5,8.0,7.0,RX81,6,0.0,0.0,7.0,88.34149293193903,babble-reversed_n13_p229-nine-p318-one-p307-two-p248-eight-p245-five-p284-four.wav,6,RX81,7,0.0,0.0,8.0,91.58892582949886,mgb_normalisation,91.58892582949886,90.34149293193902,2,2.0,True,1.562373161315918
,2024-08-02 15:39:06,sub_121,3,distance,cathedral,spatial_unmasking,6,197,0,0,_five_,talker-p248_sex-f_text-_five_.wav,p248,f,5,6,8.0,7.0,RX81,6,0.0,0.0,7.0,88.34149293193902,babble-reversed_n13_p229-five-p318-three-p307-two-p245-four-p284-nine-p248-eight.wav,6,RX81,7,0.0,0.0,8.0,91.58892582949886,mgb_normalisation,91.58892582949886,90.34149293193902,5,5.0,True,1.374925136566162
,2024-08-02 15:39:11,sub_121,3,distance,cathedral,spatial_unmasking,6,198,0,0,_one_,talker-p248_sex-f_text-_one_.wav,p248,f,5,7,8.0,7.0,RX81,6,0.0,0.0,7.0,86.34149293193902,babble-reversed_n13_p318-three-p307-one-p256-five-p248-nine-p245-two-p284-eight.wav,6,RX81,7,0.0,0.0,8.0,91.58892582949888,mgb_normalisation,91.58892582949886,90.34149293193902,1,8.0,False,2.812311887741089
,2024-08-02 15:39:15,sub_121,3,distance,cathedral,spatial_unmasking,6,199,0,0,_two_,talker-p248_sex-f_text-_two_.wav,p248,f,5,8,8.0,7.0,RX81,6,0.0,0.0,7.0,87.34149293193902,babble-reversed_n13_p229-three-p256-one-p307-two-p284-eight-p268-five-p248-nine.wav,6,RX81,7,0.0,0.0,8.0,91.58892582949888,mgb_normalisation,91.58892582949886,90.34149293193902,2,2.0,True,1.4999165534973145
,2024-08-02 15:39:19,sub_121,3,distance,cathedral,spatial_unmasking,6,200,0,0,_eight_,talker-p248_sex-f_text-_eight_.wav,p248,f,5,9,8.0,7.0,RX81,6,0.0,0.0,7.0,87.34149293193902,babble-reversed_n13_p256-eight-p318-five-p307-four-p245-three-p268-one-p284-nine.wav,6,RX81,7,0.0,0.0,8.0,91.58892582949886,mgb_normalisation,91.58892582949886,90.34149293193902,8,8.0,True,2.1248538494110107
,2024-08-02 15:39:26,sub_121,3,distance,cathedral,spatial_unmasking,6,201,0,0,_one_,talker-p248_sex-f_text-_one_.wav,p248,f,5,10,8.0,7.0,RX81,6,0.0,0.0,7.0,86.34149293193902,babble-reversed_n13_p229-one-p318-eight-p256-three-p268-two-p245-five-p248-nine.wav,6,RX81,7,0.0,0.0,8.0,91.58892582949886,mgb_normalisation,91.58892582949886,90.34149293193902,1,8.0,False,3.812216520309448
,2024-08-02 15:39:29,sub_121,3,distance,cathedral,spatial_unmasking,6,202,0,0,_six_,talker-p248_sex-f_text-_six_.wav,p248,f,5,11,8.0,7.0,RX81,6,0.0,0.0,7.0,87.34149293193902,babble-reversed_n13_p256-three-p318-two-p229-nine-p248-four-p284-one-p268-eight.wav,6,RX81,7,0.0,0.0,8.0,91.58892582949886,mgb_normalisation,91.58892582949886,90.34149293193902,6,6.0,True,1.6249079704284668
,2024-08-02 15:39:33,sub_121,3,distance,cathedral,spatial_unmasking,6,203,0,0,_eight_,talker-p248_sex-f_text-_eight_.wav,p248,f,5,12,8.0,7.0,RX81,6,0.0,0.0,7.0,87.34149293193902,babble-reversed_n13_p256-three-p318-two-p229-nine-p248-four-p284-one-p268-eight.wav,6,RX81,7,0.0,0.0,8.0,91.58892582949886,mgb_normalisation,91.58892582949886,90.34149293193902,8,8.0,True,1.624868631362915
,2024-08-02 15:39:37,sub_121,3,distance,cathedral,spatial_unmasking,6,204,0,0,_nine_,talker-p248_sex-f_text-_nine_.wav,p248,f,5,13,8.0,7.0,RX81,6,0.0,0.0,7.0,86.34149293193902,babble-reversed_n13_p307-two-p229-one-p256-five-p248-nine-p284-three-p268-eight.wav,6,RX81,7,0.0,0.0,8.0,91.58892582949888,mgb_normalisation,91.58892582949886,90.34149293193902,9,9.0,True,1.3749065399169922
,2024-08-02 15:39:42,sub_121,3,distance,cathedral,spatial_unmasking,6,205,0,0,_eight_,talker-p248_sex-f_text-_eight_.wav,p248,f,5,14,8.0,7.0,RX81,6,0.0,0.0,7.0,86.34149293193902,babble-reversed_n13_p229-two-p307-five-p318-four-p284-one-p248-nine-p268-eight.wav,6,RX81,7,0.0,0.0,8.0,91.58892582949888,mgb_normalisation,91.58892582949886,90.34149293193902,8,9.0,False,2.499849557876587
,2024-08-02 15:39:46,sub_121,3,distance,cathedral,spatial_unmasking,6,206,0,0,_three_,talker-p248_sex-f_text-_three_.wav,p248,f,5,15,8.0,7.0,RX81,6,0.0,0.0,7.0,87.34149293193902,babble-reversed_n13_p256-three-p318-one-p307-two-p284-nine-p268-four-p245-eight.wav,6,RX81,7,0.0,0.0,8.0,91.58892582949888,mgb_normalisation,91.58892582949886,90.34149293193902,3,3.0,True,1.6874046325683594
,2024-08-02 15:39:50,sub_121,3,distance,cathedral,spatial_unmasking,6,207,0,0,_six_,talker-p248_sex-f_text-_six_.wav,p248,f,5,16,8.0,7.0,RX81,6,0.0,0.0,7.0,87.34149293193902,babble-reversed_n13_p229-eight-p256-nine-p318-four-p245-three-p268-five-p284-two.wav,6,RX81,7,0.0,0.0,8.0,91.58892582949886,mgb_normalisation,91.58892582949886,90.34149293193902,6,6.0,True,1.7498779296875
,2024-08-02 15:39:54,sub_121,3,distance,cathedral,spatial_unmasking,6,208,0,0,_five_,talker-p248_sex-f_text-_five_.wav,p248,f,5,17,8.0,7.0,RX81,6,0.0,0.0,7.0,86.341492931939,babble-reversed_n13_p229-three-p307-one-p318-two-p245-eight-p268-five-p284-four.wav,6,RX81,7,0.0,0.0,8.0,91.58892582949888,mgb_normalisation,91.58892582949886,90.34149293193902,5,5.0,True,1.1874184608459473
,2024-08-02 15:39:57,sub_121,3,distance,cathedral,spatial_unmasking,6,209,0,0,_one_,talker-p248_sex-f_text-_one_.wav,p248,f,5,18,8.0,7.0,RX81,6,0.0,0.0,7.0,86.34149293193902,babble-reversed_n13_p229-one-p318-eight-p256-three-p268-nine-p248-five-p284-four.wav,6,RX81,7,0.0,0.0,8.0,91.58892582949886,mgb_normalisation,91.58892582949886,90.34149293193902,1,1.0,True,1.2499144077301023
,2024-08-02 15:40:01,sub_121,3,distance,cathedral,spatial_unmasking,6,210,0,0,_eight_,talker-p248_sex-f_text-_eight_.wav,p248,f,5,19,8.0,7.0,RX81,6,0.0,0.0,7.0,85.34149293193903,babble-reversed_n13_p307-four-p318-three-p256-eight-p284-two-p245-nine-p248-five.wav,6,RX81,7,0.0,0.0,8.0,91.58892582949886,mgb_normalisation,91.58892582949886,90.34149293193902,8,3.0,False,1.4374010562896729
,2024-08-02 15:40:05,sub_121,3,distance,cathedral,spatial_unmasking,6,211,0,0,_three_,talker-p248_sex-f_text-_three_.wav,p248,f,5,20,8.0,7.0,RX81,6,0.0,0.0,7.0,86.34149293193902,babble-reversed_n13_p229-two-p307-five-p318-four-p284-one-p248-nine-p268-eight.wav,6,RX81,7,0.0,0.0,8.0,91.58892582949888,mgb_normalisation,91.58892582949886,90.34149293193902,3,3.0,True,1.1874186992645264
,2024-08-02 15:40:09,sub_121,3,distance,cathedral,spatial_unmasking,6,212,0,0,_eight_,talker-p248_sex-f_text-_eight_.wav,p248,f,5,21,8.0,7.0,RX81,6,0.0,0.0,7.0,86.34149293193902,babble-reversed_n13_p256-three-p318-one-p307-two-p284-nine-p268-four-p245-eight.wav,6,RX81,7,0.0,0.0,8.0,91.58892582949888,mgb_normalisation,91.58892582949886,90.34149293193902,8,8.0,True,1.874871015548706
,2024-08-02 15:40:13,sub_121,3,distance,cathedral,spatial_unmasking,6,213,0,0,_eight_,talker-p248_sex-f_text-_eight_.wav,p248,f,5,22,8.0,7.0,RX81,6,0.0,0.0,7.0,85.34149293193903,babble-reversed_n13_p307-nine-p229-one-p256-eight-p248-four-p284-two-p268-three.wav,6,RX81,7,0.0,0.0,8.0,91.58892582949888,mgb_normalisation,91.58892582949886,90.34149293193902,8,8.0,True,1.249891996383667
,2024-08-02 15:40:16,sub_121,3,distance,cathedral,spatial_unmasking,6,214,0,0,_one_,talker-p248_sex-f_text-_one_.wav,p248,f,5,23,8.0,7.0,RX81,6,0.0,0.0,7.0,85.34149293193903,babble-reversed_n13_p229-five-p256-one-p318-three-p248-nine-p268-four-p284-eight.wav,6,RX81,7,0.0,0.0,8.0,91.58892582949886,mgb_normalisation,91.58892582949886,90.34149293193902,1,1.0,True,1.499875545501709
,2024-08-02 15:40:21,sub_121,3,distance,cathedral,spatial_unmasking,6,215,0,0,_five_,talker-p248_sex-f_text-_five_.wav,p248,f,5,24,8.0,7.0,RX81,6,0.0,0.0,7.0,84.341492931939,babble-reversed_n13_p256-eight-p318-five-p307-four-p245-three-p268-one-p284-nine.wav,6,RX81,7,0.0,0.0,8.0,91.58892582949886,mgb_normalisation,91.58892582949886,90.34149293193902,5,5.0,True,2.437312602996826
,2024-08-02 15:40:26,sub_121,3,distance,cathedral,spatial_unmasking,6,216,0,0,_six_,talker-p248_sex-f_text-_six_.wav,p248,f,5,25,8.0,7.0,RX81,6,0.0,0.0,7.0,84.341492931939,babble-reversed_n13_p229-nine-p318-one-p307-two-p248-eight-p245-five-p284-four.wav,6,RX81,7,0.0,0.0,8.0,91.58892582949886,mgb_normalisation,91.58892582949886,90.34149293193902,6,6.0,True,2.374837875366211
,2024-08-02 15:40:30,sub_121,3,distance,cathedral,spatial_unmasking,6,217,0,0,_three_,talker-p248_sex-f_text-_three_.wav,p248,f,5,26,8.0,7.0,RX81,6,0.0,0.0,7.0,83.34149293193902,babble-reversed_n13_p256-three-p318-one-p307-two-p284-nine-p268-four-p245-eight.wav,6,RX81,7,0.0,0.0,8.0,91.58892582949888,mgb_normalisation,91.58892582949886,90.34149293193902,3,3.0,True,1.624868392944336
,2024-08-02 15:40:34,sub_121,3,distance,cathedral,spatial_unmasking,6,218,0,0,_nine_,talker-p248_sex-f_text-_nine_.wav,p248,f,5,27,8.0,7.0,RX81,6,0.0,0.0,7.0,83.34149293193902,babble-reversed_n13_p318-three-p229-one-p256-eight-p245-five-p248-four-p284-nine.wav,6,RX81,7,0.0,0.0,8.0,91.58892582949888,mgb_normalisation,91.58892582949886,90.34149293193902,9,5.0,False,1.9373664855957031
,2024-08-02 15:40:40,sub_121,3,distance,cathedral,spatial_unmasking,6,219,0,0,_nine_,talker-p248_sex-f_text-_nine_.wav,p248,f,5,28,8.0,7.0,RX81,6,0.0,0.0,7.0,84.341492931939,babble-reversed_n13_p307-nine-p229-one-p256-eight-p248-four-p284-two-p268-three.wav,6,RX81,7,0.0,0.0,8.0,91.58892582949888,mgb_normalisation,91.58892582949886,90.34149293193902,9,8.0,False,3.8122572898864746
,2024-08-02 15:40:44,sub_121,3,distance,cathedral,spatial_unmasking,6,220,0,0,_five_,talker-p248_sex-f_text-_five_.wav,p248,f,5,29,8.0,7.0,RX81,6,0.0,0.0,7.0,85.341492931939,babble-reversed_n13_p318-one-p307-two-p256-eight-p284-three-p248-five-p245-four.wav,6,RX81,7,0.0,0.0,8.0,91.58892582949888,mgb_normalisation,91.58892582949886,90.34149293193902,5,5.0,True,1.499915599822998
,2024-08-02 15:40:48,sub_121,3,distance,cathedral,spatial_unmasking,6,221,0,0,_nine_,talker-p248_sex-f_text-_nine_.wav,p248,f,5,30,8.0,7.0,RX81,6,0.0,0.0,7.0,85.341492931939,babble-reversed_n13_p307-five-p229-two-p318-four-p248-three-p245-nine-p268-eight.wav,6,RX81,7,0.0,0.0,8.0,91.58892582949886,mgb_normalisation,91.58892582949886,90.34149293193902,9,9.0,True,1.4999182224273682
,2024-08-02 15:41:40,sub_121,3,distance,cathedral,spatial_unmasking,7,222,0,0,_six_,talker-p248_sex-f_text-_six_.wav,p248,f,5,1,10.0,7.0,RX81,6,0.0,0.0,7.0,92.34149293193902,babble-reversed_n13_p256-eight-p318-two-p307-five-p245-four-p268-nine-p284-one.wav,8,RX81,9,0.0,0.0,10.0,92.0152836843556,mgb_normalisation,92.0152836843556,90.34149293193902,6,6.0,True,5.562117099761963
,2024-08-02 15:41:44,sub_121,3,distance,cathedral,spatial_unmasking,7,223,0,0,_one_,talker-p248_sex-f_text-_one_.wav,p248,f,5,2,10.0,7.0,RX81,6,0.0,0.0,7.0,88.34149293193903,babble-reversed_n13_p229-nine-p307-five-p256-two-p248-three-p245-one-p268-eight.wav,8,RX81,9,0.0,0.0,10.0,92.0152836843556,mgb_normalisation,92.0152836843556,90.34149293193902,1,1.0,True,1.5623924732208252
,2024-08-02 15:41:48,sub_121,3,distance,cathedral,spatial_unmasking,7,224,0,0,_nine_,talker-p248_sex-f_text-_nine_.wav,p248,f,5,3,10.0,7.0,RX81,6,0.0,0.0,7.0,84.341492931939,babble-reversed_n13_p256-five-p229-one-p318-three-p248-nine-p284-eight-p268-two.wav,8,RX81,9,0.0,0.0,10.0,92.0152836843556,mgb_normalisation,92.0152836843556,90.34149293193902,9,9.0,True,1.624868392944336
,2024-08-02 15:41:52,sub_121,3,distance,cathedral,spatial_unmasking,7,225,0,0,_two_,talker-p248_sex-f_text-_two_.wav,p248,f,5,4,10.0,7.0,RX81,6,0.0,0.0,7.0,80.34149293193903,babble-reversed_n13_p229-nine-p256-four-p318-three-p268-eight-p248-two-p284-five.wav,8,RX81,9,0.0,0.0,10.0,92.0152836843556,mgb_normalisation,92.0152836843556,90.34149293193902,2,2.0,True,1.49989652633667
,2024-08-02 15:41:59,sub_121,3,distance,cathedral,spatial_unmasking,7,226,0,0,_two_,talker-p248_sex-f_text-_two_.wav,p248,f,5,5,10.0,7.0,RX81,6,0.0,0.0,7.0,76.34149293193902,babble-reversed_n13_p229-five-p318-two-p307-eight-p268-three-p248-four-p245-one.wav,8,RX81,9,0.0,0.0,10.0,92.0152836843556,mgb_normalisation,92.0152836843556,90.34149293193902,2,3.0,False,4.062199115753174
,2024-08-02 15:42:03,sub_121,3,distance,cathedral,spatial_unmasking,7,227,0,0,_two_,talker-p248_sex-f_text-_two_.wav,p248,f,5,6,10.0,7.0,RX81,6,0.0,0.0,7.0,78.34149293193902,babble-reversed_n13_p318-nine-p256-five-p307-eight-p268-three-p248-one-p245-four.wav,8,RX81,9,0.0,0.0,10.0,92.0152836843556,mgb_normalisation,92.0152836843556,90.34149293193902,2,2.0,True,1.999883890151977
,2024-08-02 15:42:07,sub_121,3,distance,cathedral,spatial_unmasking,7,228,0,0,_three_,talker-p248_sex-f_text-_three_.wav,p248,f,5,7,10.0,7.0,RX81,6,0.0,0.0,7.0,78.34149293193902,babble-reversed_n13_p229-two-p307-five-p318-four-p284-one-p248-nine-p268-eight.wav,8,RX81,9,0.0,0.0,10.0,92.0152836843556,mgb_normalisation,92.0152836843556,90.34149293193902,3,9.0,False,1.9373869895935056
,2024-08-02 15:42:12,sub_121,3,distance,cathedral,spatial_unmasking,7,229,0,0,_four_,talker-p248_sex-f_text-_four_.wav,p248,f,5,8,10.0,7.0,RX81,6,0.0,0.0,7.0,80.341492931939,babble-reversed_n13_p256-five-p229-one-p318-three-p248-nine-p284-eight-p268-two.wav,8,RX81,9,0.0,0.0,10.0,92.0152836843556,mgb_normalisation,92.0152836843556,90.34149293193902,4,1.0,False,1.9373679161071773
,2024-08-02 15:42:16,sub_121,3,distance,cathedral,spatial_unmasking,7,230,0,0,_eight_,talker-p248_sex-f_text-_eight_.wav,p248,f,5,9,10.0,7.0,RX81,6,0.0,0.0,7.0,82.34149293193902,babble-reversed_n13_p229-two-p318-eight-p256-three-p268-one-p248-nine-p284-five.wav,8,RX81,9,0.0,0.0,10.0,92.0152836843556,mgb_normalisation,92.0152836843556,90.34149293193902,8,3.0,False,1.6873836517333984
,2024-08-02 15:42:19,sub_121,3,distance,cathedral,spatial_unmasking,7,231,0,0,_nine_,talker-p248_sex-f_text-_nine_.wav,p248,f,5,10,10.0,7.0,RX81,6,0.0,0.0,7.0,84.341492931939,babble-reversed_n13_p229-three-p256-one-p307-two-p284-eight-p268-five-p248-nine.wav,8,RX81,9,0.0,0.0,10.0,92.0152836843556,mgb_normalisation,92.0152836843556,90.34149293193902,9,9.0,True,1.374925136566162
,2024-08-02 15:42:27,sub_121,3,distance,cathedral,spatial_unmasking,7,232,0,0,_eight_,talker-p248_sex-f_text-_eight_.wav,p248,f,5,11,10.0,7.0,RX81,6,0.0,0.0,7.0,84.34149293193903,babble-reversed_n13_p256-eight-p318-two-p307-five-p245-four-p268-nine-p284-one.wav,8,RX81,9,0.0,0.0,10.0,92.0152836843556,mgb_normalisation,92.0152836843556,90.34149293193902,8,3.0,False,5.187140941619873
,2024-08-02 15:42:30,sub_121,3,distance,cathedral,spatial_unmasking,7,233,0,0,_five_,talker-p248_sex-f_text-_five_.wav,p248,f,5,12,10.0,7.0,RX81,6,0.0,0.0,7.0,86.341492931939,babble-reversed_n13_p229-eight-p256-nine-p318-four-p245-three-p268-five-p284-two.wav,8,RX81,9,0.0,0.0,10.0,92.0152836843556,mgb_normalisation,92.0152836843556,90.34149293193902,5,5.0,True,0.9374349117279052
,2024-08-02 15:42:34,sub_121,3,distance,cathedral,spatial_unmasking,7,234,0,0,_three_,talker-p248_sex-f_text-_three_.wav,p248,f,5,13,10.0,7.0,RX81,6,0.0,0.0,7.0,86.34149293193902,babble-reversed_n13_p229-two-p318-eight-p256-three-p268-one-p248-nine-p284-five.wav,8,RX81,9,0.0,0.0,10.0,92.0152836843556,mgb_normalisation,92.0152836843556,90.34149293193902,3,3.0,True,1.062427282333374
,2024-08-02 15:42:37,sub_121,3,distance,cathedral,spatial_unmasking,7,235,0,0,_two_,talker-p248_sex-f_text-_two_.wav,p248,f,5,14,10.0,7.0,RX81,6,0.0,0.0,7.0,84.34149293193903,babble-reversed_n13_p229-five-p318-three-p307-two-p245-four-p284-nine-p248-eight.wav,8,RX81,9,0.0,0.0,10.0,92.0152836843556,mgb_normalisation,92.0152836843556,90.34149293193902,2,2.0,True,0.7499291896820068
,2024-08-02 15:42:40,sub_121,3,distance,cathedral,spatial_unmasking,7,236,0,0,_one_,talker-p248_sex-f_text-_one_.wav,p248,f,5,15,10.0,7.0,RX81,6,0.0,0.0,7.0,84.34149293193903,babble-reversed_n13_p256-eight-p318-five-p307-four-p245-three-p268-one-p284-nine.wav,8,RX81,9,0.0,0.0,10.0,92.0152836843556,mgb_normalisation,92.0152836843556,90.34149293193902,1,1.0,True,1.3123903274536133
,2024-08-02 15:42:44,sub_121,3,distance,cathedral,spatial_unmasking,7,237,0,0,_eight_,talker-p248_sex-f_text-_eight_.wav,p248,f,5,16,10.0,7.0,RX81,6,0.0,0.0,7.0,82.34149293193902,babble-reversed_n13_p256-eight-p318-five-p307-four-p245-three-p268-one-p284-nine.wav,8,RX81,9,0.0,0.0,10.0,92.0152836843556,mgb_normalisation,92.0152836843556,90.34149293193902,8,3.0,False,1.4374010562896729
,2024-08-02 15:42:47,sub_121,3,distance,cathedral,spatial_unmasking,7,238,0,0,_five_,talker-p248_sex-f_text-_five_.wav,p248,f,5,17,10.0,7.0,RX81,6,0.0,0.0,7.0,83.34149293193902,babble-reversed_n13_p318-five-p256-nine-p307-eight-p248-two-p245-four-p284-three.wav,8,RX81,9,0.0,0.0,10.0,92.0152836843556,mgb_normalisation,92.0152836843556,90.34149293193902,5,5.0,True,0.8749387264251709
,2024-08-02 15:42:51,sub_121,3,distance,cathedral,spatial_unmasking,7,239,0,0,_one_,talker-p248_sex-f_text-_one_.wav,p248,f,5,18,10.0,7.0,RX81,6,0.0,0.0,7.0,83.34149293193903,babble-reversed_n13_p229-five-p256-three-p318-nine-p248-two-p284-four-p268-one.wav,8,RX81,9,0.0,0.0,10.0,92.0152836843556,mgb_normalisation,92.0152836843556,90.34149293193902,1,1.0,True,0.9999141693115234
,2024-08-02 15:42:54,sub_121,3,distance,cathedral,spatial_unmasking,7,240,0,0,_four_,talker-p248_sex-f_text-_four_.wav,p248,f,5,19,10.0,7.0,RX81,6,0.0,0.0,7.0,82.34149293193902,babble-reversed_n13_p318-one-p307-two-p256-eight-p284-three-p248-five-p245-four.wav,8,RX81,9,0.0,0.0,10.0,92.0152836843556,mgb_normalisation,92.0152836843556,90.34149293193902,4,4.0,True,1.062446117401123
,2024-08-02 15:42:57,sub_121,3,distance,cathedral,spatial_unmasking,7,241,0,0,_two_,talker-p248_sex-f_text-_two_.wav,p248,f,5,20,10.0,7.0,RX81,6,0.0,0.0,7.0,82.34149293193902,babble-reversed_n13_p318-nine-p256-five-p307-eight-p268-three-p248-one-p245-four.wav,8,RX81,9,0.0,0.0,10.0,92.0152836843556,mgb_normalisation,92.0152836843556,90.34149293193902,2,1.0,False,0.7499487400054932
,2024-08-02 15:43:02,sub_121,3,distance,cathedral,spatial_unmasking,7,242,0,0,_eight_,talker-p248_sex-f_text-_eight_.wav,p248,f,5,21,10.0,7.0,RX81,6,0.0,0.0,7.0,83.34149293193902,babble-reversed_n13_p229-two-p307-five-p318-four-p284-one-p248-nine-p268-eight.wav,8,RX81,9,0.0,0.0,10.0,92.0152836843556,mgb_normalisation,92.0152836843556,90.34149293193902,8,3.0,False,2.874823093414306
,2024-08-02 15:43:06,sub_121,3,distance,cathedral,spatial_unmasking,7,243,0,0,_five_,talker-p248_sex-f_text-_five_.wav,p248,f,5,22,10.0,7.0,RX81,6,0.0,0.0,7.0,84.341492931939,babble-reversed_n13_p256-two-p307-five-p318-nine-p248-eight-p245-four-p284-one.wav,8,RX81,9,0.0,0.0,10.0,92.0152836843556,mgb_normalisation,92.0152836843556,90.34149293193902,5,5.0,True,1.1249029636383057
,2024-08-02 15:43:09,sub_121,3,distance,cathedral,spatial_unmasking,7,244,0,0,_nine_,talker-p248_sex-f_text-_nine_.wav,p248,f,5,23,10.0,7.0,RX81,6,0.0,0.0,7.0,84.341492931939,babble-reversed_n13_p229-nine-p318-one-p307-two-p248-eight-p245-five-p284-four.wav,8,RX81,9,0.0,0.0,10.0,92.0152836843556,mgb_normalisation,92.0152836843556,90.34149293193902,9,9.0,True,1.0624487400054932
,2024-08-02 15:43:13,sub_121,3,distance,cathedral,spatial_unmasking,7,245,0,0,_eight_,talker-p248_sex-f_text-_eight_.wav,p248,f,5,24,10.0,7.0,RX81,6,0.0,0.0,7.0,83.34149293193902,babble-reversed_n13_p318-nine-p256-five-p307-eight-p268-three-p248-one-p245-four.wav,8,RX81,9,0.0,0.0,10.0,92.0152836843556,mgb_normalisation,92.0152836843556,90.34149293193902,8,4.0,False,1.1874184608459473
,2024-08-02 15:43:17,sub_121,3,distance,cathedral,spatial_unmasking,7,246,0,0,_four_,talker-p248_sex-f_text-_four_.wav,p248,f,5,25,10.0,7.0,RX81,6,0.0,0.0,7.0,84.341492931939,babble-reversed_n13_p229-two-p256-three-p318-eight-p284-five-p268-four-p245-one.wav,8,RX81,9,0.0,0.0,10.0,92.0152836843556,mgb_normalisation,92.0152836843556,90.34149293193902,4,4.0,True,1.43742036819458
,2024-08-02 15:43:20,sub_121,3,distance,cathedral,spatial_unmasking,7,247,0,0,_five_,talker-p248_sex-f_text-_five_.wav,p248,f,5,26,10.0,7.0,RX81,6,0.0,0.0,7.0,84.341492931939,babble-reversed_n13_p256-three-p318-one-p307-two-p284-nine-p268-four-p245-eight.wav,8,RX81,9,0.0,0.0,10.0,92.0152836843556,mgb_normalisation,92.0152836843556,90.34149293193902,5,5.0,True,1.124922752380371
,2024-08-02 15:43:24,sub_121,3,distance,cathedral,spatial_unmasking,7,248,0,0,_one_,talker-p248_sex-f_text-_one_.wav,p248,f,5,27,10.0,7.0,RX81,6,0.0,0.0,7.0,83.34149293193903,babble-reversed_n13_p256-five-p229-one-p318-three-p248-nine-p284-eight-p268-two.wav,8,RX81,9,0.0,0.0,10.0,92.0152836843556,mgb_normalisation,92.0152836843556,90.34149293193902,1,1.0,True,1.187397003173828
,2024-08-02 15:43:27,sub_121,3,distance,cathedral,spatial_unmasking,7,249,0,0,_six_,talker-p248_sex-f_text-_six_.wav,p248,f,5,28,10.0,7.0,RX81,6,0.0,0.0,7.0,83.34149293193902,babble-reversed_n13_p229-eight-p256-nine-p318-four-p245-three-p268-five-p284-two.wav,8,RX81,9,0.0,0.0,10.0,92.0152836843556,mgb_normalisation,92.0152836843556,90.34149293193902,6,6.0,True,1.1874165534973145
,2024-08-02 15:43:31,sub_121,3,distance,cathedral,spatial_unmasking,7,250,0,0,_nine_,talker-p248_sex-f_text-_nine_.wav,p248,f,5,29,10.0,7.0,RX81,6,0.0,0.0,7.0,82.34149293193902,babble-reversed_n13_p229-five-p318-three-p307-two-p245-four-p284-nine-p248-eight.wav,8,RX81,9,0.0,0.0,10.0,92.0152836843556,mgb_normalisation,92.0152836843556,90.34149293193902,9,9.0,True,1.1249456405639648
,2024-08-02 15:43:34,sub_121,3,distance,cathedral,spatial_unmasking,7,251,0,0,_six_,talker-p248_sex-f_text-_six_.wav,p248,f,5,30,10.0,7.0,RX81,6,0.0,0.0,7.0,82.34149293193902,babble-reversed_n13_p318-five-p256-nine-p307-eight-p248-two-p245-four-p284-three.wav,8,RX81,9,0.0,0.0,10.0,92.0152836843556,mgb_normalisation,92.0152836843556,90.34149293193902,6,6.0,True,1.12492036819458
,2024-08-02 15:43:38,sub_121,3,distance,cathedral,spatial_unmasking,7,252,0,0,_four_,talker-p248_sex-f_text-_four_.wav,p248,f,5,31,10.0,7.0,RX81,6,0.0,0.0,7.0,81.341492931939,babble-reversed_n13_p229-nine-p307-five-p256-two-p248-three-p245-one-p268-eight.wav,8,RX81,9,0.0,0.0,10.0,92.0152836843556,mgb_normalisation,92.0152836843556,90.34149293193902,4,4.0,True,1.8123774528503416
,2024-08-02 15:43:42,sub_121,3,distance,cathedral,spatial_unmasking,7,253,0,0,_three_,talker-p248_sex-f_text-_three_.wav,p248,f,5,32,10.0,7.0,RX81,6,0.0,0.0,7.0,81.34149293193902,babble-reversed_n13_p229-nine-p318-one-p307-two-p248-eight-p245-five-p284-four.wav,8,RX81,9,0.0,0.0,10.0,92.0152836843556,mgb_normalisation,92.0152836843556,90.34149293193902,3,3.0,True,1.312432050704956
,2024-08-02 15:43:45,sub_121,3,distance,cathedral,spatial_unmasking,7,254,0,0,_two_,talker-p248_sex-f_text-_two_.wav,p248,f,5,33,10.0,7.0,RX81,6,0.0,0.0,7.0,80.34149293193903,babble-reversed_n13_p256-five-p307-nine-p318-three-p284-eight-p268-one-p248-two.wav,8,RX81,9,0.0,0.0,10.0,92.0152836843556,mgb_normalisation,92.0152836843556,90.34149293193902,2,2.0,True,0.9374351501464844
,2024-08-02 15:43:49,sub_121,3,distance,cathedral,spatial_unmasking,7,255,0,0,_six_,talker-p248_sex-f_text-_six_.wav,p248,f,5,34,10.0,7.0,RX81,6,0.0,0.0,7.0,80.34149293193903,babble-reversed_n13_p318-four-p256-five-p229-three-p284-one-p245-eight-p248-nine.wav,8,RX81,9,0.0,0.0,10.0,92.0152836843556,mgb_normalisation,92.0152836843556,90.34149293193902,6,6.0,True,1.062427043914795
,2024-08-02 15:43:52,sub_121,3,distance,cathedral,spatial_unmasking,7,256,0,0,_two_,talker-p248_sex-f_text-_two_.wav,p248,f,5,35,10.0,7.0,RX81,6,0.0,0.0,7.0,79.34149293193902,babble-reversed_n13_p229-five-p318-two-p307-eight-p268-three-p248-four-p245-one.wav,8,RX81,9,0.0,0.0,10.0,92.0152836843556,mgb_normalisation,92.0152836843556,90.34149293193902,2,2.0,True,0.9374547004699708
,2024-08-02 15:43:55,sub_121,3,distance,cathedral,spatial_unmasking,7,257,0,0,_nine_,talker-p248_sex-f_text-_nine_.wav,p248,f,5,36,10.0,7.0,RX81,6,0.0,0.0,7.0,79.341492931939,babble-reversed_n13_p318-four-p256-five-p229-three-p284-one-p245-eight-p248-nine.wav,8,RX81,9,0.0,0.0,10.0,92.0152836843556,mgb_normalisation,92.0152836843556,90.34149293193902,9,9.0,True,0.9999098777770996
,2024-08-02 15:43:59,sub_121,3,distance,cathedral,spatial_unmasking,7,258,0,0,_five_,talker-p248_sex-f_text-_five_.wav,p248,f,5,37,10.0,7.0,RX81,6,0.0,0.0,7.0,78.341492931939,babble-reversed_n13_p256-five-p229-one-p318-three-p248-nine-p284-eight-p268-two.wav,8,RX81,9,0.0,0.0,10.0,92.0152836843556,mgb_normalisation,92.0152836843556,90.34149293193902,5,9.0,False,1.1249232292175293
,2024-08-02 15:44:06,sub_121,3,distance,cathedral,spatial_unmasking,7,259,0,0,_nine_,talker-p248_sex-f_text-_nine_.wav,p248,f,5,38,10.0,7.0,RX81,6,0.0,0.0,7.0,79.341492931939,babble-reversed_n13_p307-two-p256-four-p318-three-p284-eight-p248-five-p245-nine.wav,8,RX81,9,0.0,0.0,10.0,92.0152836843556,mgb_normalisation,92.0152836843556,90.34149293193902,9,9.0,True,4.687196969985962
