event_id,timestamp,subject_id,session_index,plane,setup,task,block,trial_index,headpose_offset_azi,headpose_offset_ele,target_number,target_filename,target_talker,target_sex,target_speaker_id,step_number:,distance_masker,distance_target,target_speaker_proc,target_speaker_chan,target_speaker_azi,target_speaker_ele,target_speaker_dist,target_stim_level,masker_filename,masker_speaker_id,masker_speaker_proc,masker_speaker_chan,masker_speaker_azi,masker_speaker_ele,masker_speaker_dist,masker_stim_level,normalisation_method,normalisation_level_masker,normalisation_level_target,played_number,resp_number,is_correct,reaction_time
,2024-07-01 13:47:26,sub_109,3,distance,cathedral,spatial_unmasking,1,0,0,0,_two_,talker-p268_sex-f_text-_two_.wav,p268,f,5,1,10.0,7.0,RX81,6,0.0,0.0,7.0,92.34149293193902,babble-reversed_n13_p318-three-p229-one-p256-eight-p245-five-p248-four-p284-nine.wav,8,RX81,9,0.0,0.0,10.0,92.0152836843556,mgb_normalisation,92.0152836843556,90.34149293193902,2,2.0,True,0.9374353885650636
,2024-07-01 13:47:30,sub_109,3,distance,cathedral,spatial_unmasking,1,1,0,0,_five_,talker-p268_sex-f_text-_five_.wav,p268,f,5,2,10.0,7.0,RX81,6,0.0,0.0,7.0,88.34149293193902,babble-reversed_n13_p229-one-p318-eight-p256-three-p268-nine-p248-five-p284-four.wav,8,RX81,9,0.0,0.0,10.0,92.0152836843556,mgb_normalisation,92.0152836843556,90.34149293193902,5,5.0,True,1.0624265670776367
,2024-07-01 13:47:34,sub_109,3,distance,cathedral,spatial_unmasking,1,2,0,0,_four_,talker-p268_sex-f_text-_four_.wav,p268,f,5,3,10.0,7.0,RX81,6,0.0,0.0,7.0,84.341492931939,babble-reversed_n13_p307-one-p318-five-p229-four-p268-eight-p284-two-p245-three.wav,8,RX81,9,0.0,0.0,10.0,92.0152836843556,mgb_normalisation,92.0152836843556,90.34149293193902,4,4.0,True,1.486849308013916
,2024-07-01 13:47:40,sub_109,3,distance,cathedral,spatial_unmasking,1,3,0,0,_one_,talker-p268_sex-f_text-_one_.wav,p268,f,5,4,10.0,7.0,RX81,6,0.0,0.0,7.0,80.34149293193903,babble-reversed_n13_p256-four-p307-eight-p318-two-p248-three-p284-nine-p268-one.wav,8,RX81,9,0.0,0.0,10.0,92.0152836843556,mgb_normalisation,92.0152836843556,90.34149293193902,1,9.0,False,4.172620296478272
,2024-07-01 13:47:44,sub_109,3,distance,cathedral,spatial_unmasking,1,4,0,0,_five_,talker-p268_sex-f_text-_five_.wav,p268,f,5,5,10.0,7.0,RX81,6,0.0,0.0,7.0,82.34149293193902,babble-reversed_n13_p256-three-p318-one-p307-two-p284-nine-p268-four-p245-eight.wav,8,RX81,9,0.0,0.0,10.0,92.0152836843556,mgb_normalisation,92.0152836843556,90.34149293193902,5,9.0,False,0.9249937534332277
,2024-07-01 13:47:47,sub_109,3,distance,cathedral,spatial_unmasking,1,5,0,0,_four_,talker-p268_sex-f_text-_four_.wav,p268,f,5,6,10.0,7.0,RX81,6,0.0,0.0,7.0,84.341492931939,babble-reversed_n13_p229-two-p318-eight-p256-three-p268-one-p248-nine-p284-five.wav,8,RX81,9,0.0,0.0,10.0,92.0152836843556,mgb_normalisation,92.0152836843556,90.34149293193902,4,1.0,False,1.309586524963379
,2024-07-01 13:47:51,sub_109,3,distance,cathedral,spatial_unmasking,1,6,0,0,_nine_,talker-p268_sex-f_text-_nine_.wav,p268,f,5,7,10.0,7.0,RX81,6,0.0,0.0,7.0,86.34149293193902,babble-reversed_n13_p229-nine-p318-one-p307-two-p248-eight-p245-five-p284-four.wav,8,RX81,9,0.0,0.0,10.0,92.0152836843556,mgb_normalisation,92.0152836843556,90.34149293193902,9,9.0,True,0.9374353885650636
,2024-07-01 13:47:54,sub_109,3,distance,cathedral,spatial_unmasking,1,7,0,0,_two_,talker-p268_sex-f_text-_two_.wav,p268,f,5,8,10.0,7.0,RX81,6,0.0,0.0,7.0,86.34149293193902,babble-reversed_n13_p307-one-p318-five-p229-four-p268-eight-p284-two-p245-three.wav,8,RX81,9,0.0,0.0,10.0,92.0152836843556,mgb_normalisation,92.0152836843556,90.34149293193902,2,2.0,True,0.9271786212921144
,2024-07-01 13:47:57,sub_109,3,distance,cathedral,spatial_unmasking,1,8,0,0,_six_,talker-p268_sex-f_text-_six_.wav,p268,f,5,9,10.0,7.0,RX81,6,0.0,0.0,7.0,84.341492931939,babble-reversed_n13_p307-nine-p318-two-p256-one-p245-three-p268-four-p248-eight.wav,8,RX81,9,0.0,0.0,10.0,92.0152836843556,mgb_normalisation,92.0152836843556,90.34149293193902,6,6.0,True,0.749946117401123
,2024-07-01 13:48:01,sub_109,3,distance,cathedral,spatial_unmasking,1,9,0,0,_nine_,talker-p268_sex-f_text-_nine_.wav,p268,f,5,10,10.0,7.0,RX81,6,0.0,0.0,7.0,84.341492931939,babble-reversed_n13_p318-three-p229-one-p256-eight-p245-five-p248-four-p284-nine.wav,8,RX81,9,0.0,0.0,10.0,92.0152836843556,mgb_normalisation,92.0152836843556,90.34149293193902,9,9.0,True,1.3124094009399414
,2024-07-01 13:48:04,sub_109,3,distance,cathedral,spatial_unmasking,1,10,0,0,_nine_,talker-p268_sex-f_text-_nine_.wav,p268,f,5,11,10.0,7.0,RX81,6,0.0,0.0,7.0,82.34149293193902,babble-reversed_n13_p229-nine-p318-one-p307-two-p248-eight-p245-five-p284-four.wav,8,RX81,9,0.0,0.0,10.0,92.0152836843556,mgb_normalisation,92.0152836843556,90.34149293193902,9,9.0,True,1.1874182224273682
,2024-07-01 13:48:09,sub_109,3,distance,cathedral,spatial_unmasking,1,11,0,0,_four_,talker-p268_sex-f_text-_four_.wav,p268,f,5,12,10.0,7.0,RX81,6,0.0,0.0,7.0,82.34149293193902,babble-reversed_n13_p256-four-p229-two-p318-five-p268-one-p248-eight-p245-three.wav,8,RX81,9,0.0,0.0,10.0,92.0152836843556,mgb_normalisation,92.0152836843556,90.34149293193902,4,4.0,True,2.4850878715515137
,2024-07-01 13:48:13,sub_109,3,distance,cathedral,spatial_unmasking,1,12,0,0,_two_,talker-p268_sex-f_text-_two_.wav,p268,f,5,13,10.0,7.0,RX81,6,0.0,0.0,7.0,80.34149293193903,babble-reversed_n13_p229-five-p318-two-p307-eight-p268-three-p248-four-p245-one.wav,8,RX81,9,0.0,0.0,10.0,92.0152836843556,mgb_normalisation,92.0152836843556,90.34149293193902,2,2.0,True,1.0583343505859375
,2024-07-01 13:48:17,sub_109,3,distance,cathedral,spatial_unmasking,1,13,0,0,_three_,talker-p268_sex-f_text-_three_.wav,p268,f,5,14,10.0,7.0,RX81,6,0.0,0.0,7.0,80.341492931939,babble-reversed_n13_p256-eight-p229-three-p307-nine-p245-five-p248-four-p268-two.wav,8,RX81,9,0.0,0.0,10.0,92.0152836843556,mgb_normalisation,92.0152836843556,90.34149293193902,3,1.0,False,1.7498791217803955
,2024-07-01 13:48:20,sub_109,3,distance,cathedral,spatial_unmasking,1,14,0,0,_six_,talker-p268_sex-f_text-_six_.wav,p268,f,5,15,10.0,7.0,RX81,6,0.0,0.0,7.0,81.341492931939,babble-reversed_n13_p229-two-p318-eight-p256-three-p268-one-p248-nine-p284-five.wav,8,RX81,9,0.0,0.0,10.0,92.0152836843556,mgb_normalisation,92.0152836843556,90.34149293193902,6,6.0,True,0.999931573867798
,2024-07-01 13:48:24,sub_109,3,distance,cathedral,spatial_unmasking,1,15,0,0,_one_,talker-p268_sex-f_text-_one_.wav,p268,f,5,16,10.0,7.0,RX81,6,0.0,0.0,7.0,81.34149293193902,babble-reversed_n13_p318-five-p256-nine-p307-two-p245-eight-p248-one-p284-four.wav,8,RX81,9,0.0,0.0,10.0,92.0152836843556,mgb_normalisation,92.0152836843556,90.34149293193902,1,1.0,True,1.1745672225952148
,2024-07-01 13:48:29,sub_109,3,distance,cathedral,spatial_unmasking,1,16,0,0,_three_,talker-p268_sex-f_text-_three_.wav,p268,f,5,17,10.0,7.0,RX81,6,0.0,0.0,7.0,80.341492931939,babble-reversed_n13_p229-one-p318-eight-p256-three-p268-two-p245-five-p248-nine.wav,8,RX81,9,0.0,0.0,10.0,92.0152836843556,mgb_normalisation,92.0152836843556,90.34149293193902,3,4.0,False,2.4852824211120605
,2024-07-01 13:48:32,sub_109,3,distance,cathedral,spatial_unmasking,1,17,0,0,_one_,talker-p268_sex-f_text-_one_.wav,p268,f,5,18,10.0,7.0,RX81,6,0.0,0.0,7.0,81.34149293193902,babble-reversed_n13_p307-one-p318-five-p229-four-p268-eight-p284-two-p245-three.wav,8,RX81,9,0.0,0.0,10.0,92.0152836843556,mgb_normalisation,92.0152836843556,90.34149293193902,1,1.0,True,1.2486655712127686
,2024-07-01 13:48:36,sub_109,3,distance,cathedral,spatial_unmasking,1,18,0,0,_six_,talker-p268_sex-f_text-_six_.wav,p268,f,5,19,10.0,7.0,RX81,6,0.0,0.0,7.0,81.341492931939,babble-reversed_n13_p318-five-p229-four-p256-eight-p284-one-p245-three-p248-two.wav,8,RX81,9,0.0,0.0,10.0,92.0152836843556,mgb_normalisation,92.0152836843556,90.34149293193902,6,6.0,True,0.999931573867798
,2024-07-01 13:48:39,sub_109,3,distance,cathedral,spatial_unmasking,1,19,0,0,_six_,talker-p268_sex-f_text-_six_.wav,p268,f,5,20,10.0,7.0,RX81,6,0.0,0.0,7.0,80.341492931939,babble-reversed_n13_p256-four-p229-two-p318-five-p268-one-p248-eight-p245-three.wav,8,RX81,9,0.0,0.0,10.0,92.0152836843556,mgb_normalisation,92.0152836843556,90.34149293193902,6,6.0,True,0.8043086528778076
,2024-07-01 13:48:43,sub_109,3,distance,cathedral,spatial_unmasking,1,20,0,0,_four_,talker-p268_sex-f_text-_four_.wav,p268,f,5,21,10.0,7.0,RX81,6,0.0,0.0,7.0,80.341492931939,babble-reversed_n13_p229-eight-p256-nine-p318-four-p245-three-p268-five-p284-two.wav,8,RX81,9,0.0,0.0,10.0,92.0152836843556,mgb_normalisation,92.0152836843556,90.34149293193902,4,4.0,True,1.9226555824279783
,2024-07-01 13:48:51,sub_109,3,distance,cathedral,spatial_unmasking,1,21,0,0,_one_,talker-p268_sex-f_text-_one_.wav,p268,f,5,22,10.0,7.0,RX81,6,0.0,0.0,7.0,79.34149293193902,babble-reversed_n13_p307-five-p229-two-p318-four-p248-three-p245-nine-p268-eight.wav,8,RX81,9,0.0,0.0,10.0,92.0152836843556,mgb_normalisation,92.0152836843556,90.34149293193902,1,3.0,False,5.358933448791504
,2024-07-01 13:48:54,sub_109,3,distance,cathedral,spatial_unmasking,1,22,0,0,_six_,talker-p268_sex-f_text-_six_.wav,p268,f,5,23,10.0,7.0,RX81,6,0.0,0.0,7.0,80.341492931939,babble-reversed_n13_p318-five-p256-nine-p307-eight-p248-two-p245-four-p284-three.wav,8,RX81,9,0.0,0.0,10.0,92.0152836843556,mgb_normalisation,92.0152836843556,90.34149293193902,6,6.0,True,0.9999232292175292
,2024-07-01 13:48:58,sub_109,3,distance,cathedral,spatial_unmasking,1,23,0,0,_six_,talker-p268_sex-f_text-_six_.wav,p268,f,5,24,10.0,7.0,RX81,6,0.0,0.0,7.0,80.341492931939,babble-reversed_n13_p307-nine-p318-two-p256-one-p245-three-p268-four-p248-eight.wav,8,RX81,9,0.0,0.0,10.0,92.0152836843556,mgb_normalisation,92.0152836843556,90.34149293193902,6,6.0,True,0.9945881366729736
,2024-07-01 13:49:03,sub_109,3,distance,cathedral,spatial_unmasking,1,24,0,0,_one_,talker-p268_sex-f_text-_one_.wav,p268,f,5,25,10.0,7.0,RX81,6,0.0,0.0,7.0,79.34149293193902,babble-reversed_n13_p229-nine-p318-one-p307-two-p248-eight-p245-five-p284-four.wav,8,RX81,9,0.0,0.0,10.0,92.0152836843556,mgb_normalisation,92.0152836843556,90.34149293193902,1,9.0,False,2.8707430362701416
,2024-07-01 13:49:08,sub_109,3,distance,cathedral,spatial_unmasking,1,25,0,0,_eight_,talker-p268_sex-f_text-_eight_.wav,p268,f,5,26,10.0,7.0,RX81,6,0.0,0.0,7.0,80.34149293193903,babble-reversed_n13_p229-two-p256-three-p318-eight-p284-five-p268-four-p245-one.wav,8,RX81,9,0.0,0.0,10.0,92.0152836843556,mgb_normalisation,92.0152836843556,90.34149293193902,8,8.0,True,2.0607893466949463
,2024-07-01 13:49:11,sub_109,3,distance,cathedral,spatial_unmasking,1,26,0,0,_one_,talker-p268_sex-f_text-_one_.wav,p268,f,5,27,10.0,7.0,RX81,6,0.0,0.0,7.0,80.34149293193903,babble-reversed_n13_p318-nine-p307-eight-p229-two-p284-one-p248-three-p245-five.wav,8,RX81,9,0.0,0.0,10.0,92.0152836843556,mgb_normalisation,92.0152836843556,90.34149293193902,1,1.0,True,0.9999849796295166
,2024-07-01 13:49:14,sub_109,3,distance,cathedral,spatial_unmasking,1,27,0,0,_four_,talker-p268_sex-f_text-_four_.wav,p268,f,5,28,10.0,7.0,RX81,6,0.0,0.0,7.0,79.341492931939,babble-reversed_n13_p229-three-p307-one-p318-two-p245-eight-p268-five-p284-four.wav,8,RX81,9,0.0,0.0,10.0,92.0152836843556,mgb_normalisation,92.0152836843556,90.34149293193902,4,4.0,True,1.0532519817352295
,2024-07-01 13:49:18,sub_109,3,distance,cathedral,spatial_unmasking,1,28,0,0,_six_,talker-p268_sex-f_text-_six_.wav,p268,f,5,29,10.0,7.0,RX81,6,0.0,0.0,7.0,79.341492931939,babble-reversed_n13_p229-three-p256-nine-p318-five-p248-one-p245-eight-p284-two.wav,8,RX81,9,0.0,0.0,10.0,92.0152836843556,mgb_normalisation,92.0152836843556,90.34149293193902,6,6.0,True,1.1852803230285645
,2024-07-01 13:49:22,sub_109,3,distance,cathedral,spatial_unmasking,1,29,0,0,_one_,talker-p268_sex-f_text-_one_.wav,p268,f,5,30,10.0,7.0,RX81,6,0.0,0.0,7.0,78.34149293193902,babble-reversed_n13_p256-four-p229-two-p318-five-p268-one-p248-eight-p245-three.wav,8,RX81,9,0.0,0.0,10.0,92.0152836843556,mgb_normalisation,92.0152836843556,90.34149293193902,1,8.0,False,1.9373934268951416
,2024-07-01 13:49:26,sub_109,3,distance,cathedral,spatial_unmasking,1,30,0,0,_six_,talker-p268_sex-f_text-_six_.wav,p268,f,5,31,10.0,7.0,RX81,6,0.0,0.0,7.0,79.341492931939,babble-reversed_n13_p307-four-p318-three-p256-eight-p284-two-p245-nine-p248-five.wav,8,RX81,9,0.0,0.0,10.0,92.0152836843556,mgb_normalisation,92.0152836843556,90.34149293193902,6,6.0,True,0.9999306201934814
,2024-07-01 13:49:32,sub_109,3,distance,cathedral,spatial_unmasking,1,31,0,0,_eight_,talker-p268_sex-f_text-_eight_.wav,p268,f,5,32,10.0,7.0,RX81,6,0.0,0.0,7.0,79.34149293193903,babble-reversed_n13_p256-three-p318-two-p229-nine-p248-four-p284-one-p268-eight.wav,8,RX81,9,0.0,0.0,10.0,92.0152836843556,mgb_normalisation,92.0152836843556,90.34149293193902,8,3.0,False,3.924209356307984
,2024-07-01 13:49:36,sub_109,3,distance,cathedral,spatial_unmasking,1,32,0,0,_four_,talker-p268_sex-f_text-_four_.wav,p268,f,5,33,10.0,7.0,RX81,6,0.0,0.0,7.0,80.341492931939,babble-reversed_n13_p256-five-p229-one-p318-three-p248-nine-p284-eight-p268-two.wav,8,RX81,9,0.0,0.0,10.0,92.0152836843556,mgb_normalisation,92.0152836843556,90.34149293193902,4,4.0,True,2.0623602867126465
,2024-07-01 13:49:41,sub_109,3,distance,cathedral,spatial_unmasking,1,33,0,0,_five_,talker-p268_sex-f_text-_five_.wav,p268,f,5,34,10.0,7.0,RX81,6,0.0,0.0,7.0,80.34149293193903,babble-reversed_n13_p318-nine-p256-five-p307-eight-p268-three-p248-one-p245-four.wav,8,RX81,9,0.0,0.0,10.0,92.0152836843556,mgb_normalisation,92.0152836843556,90.34149293193902,5,9.0,False,1.8123745918273928
,2024-07-01 13:49:45,sub_109,3,distance,cathedral,spatial_unmasking,1,34,0,0,_nine_,talker-p268_sex-f_text-_nine_.wav,p268,f,5,35,10.0,7.0,RX81,6,0.0,0.0,7.0,81.34149293193902,babble-reversed_n13_p256-two-p307-five-p318-nine-p248-eight-p245-four-p284-one.wav,8,RX81,9,0.0,0.0,10.0,92.0152836843556,mgb_normalisation,92.0152836843556,90.34149293193902,9,9.0,True,1.924170970916748
,2024-07-01 13:49:48,sub_109,3,distance,cathedral,spatial_unmasking,1,35,0,0,_one_,talker-p268_sex-f_text-_one_.wav,p268,f,5,36,10.0,7.0,RX81,6,0.0,0.0,7.0,81.34149293193902,babble-reversed_n13_p256-eight-p318-five-p307-four-p245-three-p268-one-p284-nine.wav,8,RX81,9,0.0,0.0,10.0,92.0152836843556,mgb_normalisation,92.0152836843556,90.34149293193902,1,1.0,True,1.0543456077575684
,2024-07-01 13:52:11,sub_109,3,distance,cathedral,spatial_unmasking,2,36,0,0,_four_,talker-p268_sex-f_text-_four_.wav,p268,f,5,1,6.0,7.0,RX81,6,0.0,0.0,7.0,92.34149293193902,babble-reversed_n13_p307-two-p229-one-p256-five-p248-nine-p284-three-p268-eight.wav,4,RX81,5,0.0,0.0,6.0,89.313683184021,mgb_normalisation,89.31368318402099,90.34149293193902,4,4.0,True,0.999931573867798
,2024-07-01 13:52:15,sub_109,3,distance,cathedral,spatial_unmasking,2,37,0,0,_eight_,talker-p268_sex-f_text-_eight_.wav,p268,f,5,2,6.0,7.0,RX81,6,0.0,0.0,7.0,88.34149293193903,babble-reversed_n13_p318-one-p307-two-p256-eight-p284-three-p248-five-p245-four.wav,4,RX81,5,0.0,0.0,6.0,89.313683184021,mgb_normalisation,89.31368318402099,90.34149293193902,8,8.0,True,1.43739652633667
,2024-07-01 13:52:19,sub_109,3,distance,cathedral,spatial_unmasking,2,38,0,0,_one_,talker-p268_sex-f_text-_one_.wav,p268,f,5,3,6.0,7.0,RX81,6,0.0,0.0,7.0,84.341492931939,babble-reversed_n13_p307-nine-p229-one-p256-eight-p248-four-p284-two-p268-three.wav,4,RX81,5,0.0,0.0,6.0,89.31368318402099,mgb_normalisation,89.31368318402099,90.34149293193902,1,1.0,True,0.9855868816375732
,2024-07-01 13:52:22,sub_109,3,distance,cathedral,spatial_unmasking,2,39,0,0,_two_,talker-p268_sex-f_text-_two_.wav,p268,f,5,4,6.0,7.0,RX81,6,0.0,0.0,7.0,80.34149293193903,babble-reversed_n13_p307-nine-p318-two-p256-one-p245-three-p268-four-p248-eight.wav,4,RX81,5,0.0,0.0,6.0,89.31368318402099,mgb_normalisation,89.31368318402099,90.34149293193902,2,2.0,True,1.0624263286590576
,2024-07-01 13:52:29,sub_109,3,distance,cathedral,spatial_unmasking,2,40,0,0,_nine_,talker-p268_sex-f_text-_nine_.wav,p268,f,5,5,6.0,7.0,RX81,6,0.0,0.0,7.0,76.34149293193902,babble-reversed_n13_p256-three-p318-two-p229-nine-p248-four-p284-one-p268-eight.wav,4,RX81,5,0.0,0.0,6.0,89.31368318402099,mgb_normalisation,89.31368318402099,90.34149293193902,9,3.0,False,4.547342300415039
,2024-07-01 13:52:34,sub_109,3,distance,cathedral,spatial_unmasking,2,41,0,0,_eight_,talker-p268_sex-f_text-_eight_.wav,p268,f,5,6,6.0,7.0,RX81,6,0.0,0.0,7.0,78.34149293193902,babble-reversed_n13_p256-eight-p229-three-p307-nine-p245-five-p248-four-p268-two.wav,4,RX81,5,0.0,0.0,6.0,89.31368318402099,mgb_normalisation,89.31368318402099,90.34149293193902,8,4.0,False,2.178263902664185
,2024-07-01 13:52:37,sub_109,3,distance,cathedral,spatial_unmasking,2,42,0,0,_one_,talker-p268_sex-f_text-_one_.wav,p268,f,5,7,6.0,7.0,RX81,6,0.0,0.0,7.0,80.34149293193903,babble-reversed_n13_p229-three-p307-one-p318-two-p245-eight-p268-five-p284-four.wav,4,RX81,5,0.0,0.0,6.0,89.31368318402099,mgb_normalisation,89.31368318402099,90.34149293193902,1,1.0,True,0.9374358654022216
,2024-07-01 13:52:41,sub_109,3,distance,cathedral,spatial_unmasking,2,43,0,0,_two_,talker-p268_sex-f_text-_two_.wav,p268,f,5,8,6.0,7.0,RX81,6,0.0,0.0,7.0,80.34149293193903,babble-reversed_n13_p318-three-p307-one-p256-five-p248-nine-p245-two-p284-eight.wav,4,RX81,5,0.0,0.0,6.0,89.31368318402099,mgb_normalisation,89.31368318402099,90.34149293193902,2,2.0,True,1.124856948852539
,2024-07-01 13:52:44,sub_109,3,distance,cathedral,spatial_unmasking,2,44,0,0,_six_,talker-p268_sex-f_text-_six_.wav,p268,f,5,9,6.0,7.0,RX81,6,0.0,0.0,7.0,78.34149293193902,babble-reversed_n13_p256-four-p229-two-p318-five-p268-one-p248-eight-p245-three.wav,4,RX81,5,0.0,0.0,6.0,89.31368318402099,mgb_normalisation,89.31368318402099,90.34149293193902,6,6.0,True,0.7980411052703857
,2024-07-01 13:52:50,sub_109,3,distance,cathedral,spatial_unmasking,2,45,0,0,_four_,talker-p268_sex-f_text-_four_.wav,p268,f,5,10,6.0,7.0,RX81,6,0.0,0.0,7.0,78.34149293193902,babble-reversed_n13_p229-nine-p307-five-p256-two-p248-three-p245-one-p268-eight.wav,4,RX81,5,0.0,0.0,6.0,89.31368318402099,mgb_normalisation,89.31368318402099,90.34149293193902,4,3.0,False,4.124934434890747
,2024-07-01 13:52:55,sub_109,3,distance,cathedral,spatial_unmasking,2,46,0,0,_five_,talker-p268_sex-f_text-_five_.wav,p268,f,5,11,6.0,7.0,RX81,6,0.0,0.0,7.0,79.34149293193902,babble-reversed_n13_p307-two-p256-four-p318-three-p284-eight-p248-five-p245-nine.wav,4,RX81,5,0.0,0.0,6.0,89.313683184021,mgb_normalisation,89.31368318402099,90.34149293193902,5,8.0,False,2.047065258026123
,2024-07-01 13:52:58,sub_109,3,distance,cathedral,spatial_unmasking,2,47,0,0,_two_,talker-p268_sex-f_text-_two_.wav,p268,f,5,12,6.0,7.0,RX81,6,0.0,0.0,7.0,80.34149293193903,babble-reversed_n13_p318-five-p256-nine-p307-two-p245-eight-p248-one-p284-four.wav,4,RX81,5,0.0,0.0,6.0,89.313683184021,mgb_normalisation,89.31368318402099,90.34149293193902,2,2.0,True,0.99611234664917
,2024-07-01 13:53:04,sub_109,3,distance,cathedral,spatial_unmasking,2,48,0,0,_five_,talker-p268_sex-f_text-_five_.wav,p268,f,5,13,6.0,7.0,RX81,6,0.0,0.0,7.0,80.34149293193903,babble-reversed_n13_p318-five-p229-three-p256-four-p268-eight-p248-one-p245-nine.wav,4,RX81,5,0.0,0.0,6.0,89.31368318402099,mgb_normalisation,89.31368318402099,90.34149293193902,5,9.0,False,3.243514060974121
,2024-07-01 13:53:08,sub_109,3,distance,cathedral,spatial_unmasking,2,49,0,0,_four_,talker-p268_sex-f_text-_four_.wav,p268,f,5,14,6.0,7.0,RX81,6,0.0,0.0,7.0,81.341492931939,babble-reversed_n13_p256-four-p307-eight-p318-two-p248-three-p284-nine-p268-one.wav,4,RX81,5,0.0,0.0,6.0,89.313683184021,mgb_normalisation,89.31368318402099,90.34149293193902,4,8.0,False,1.7480642795562744
,2024-07-01 13:53:11,sub_109,3,distance,cathedral,spatial_unmasking,2,50,0,0,_two_,talker-p268_sex-f_text-_two_.wav,p268,f,5,15,6.0,7.0,RX81,6,0.0,0.0,7.0,82.34149293193902,babble-reversed_n13_p256-four-p229-eight-p307-five-p248-three-p245-one-p284-two.wav,4,RX81,5,0.0,0.0,6.0,89.31368318402099,mgb_normalisation,89.31368318402099,90.34149293193902,2,2.0,True,1.0624542236328125
,2024-07-01 13:53:14,sub_109,3,distance,cathedral,spatial_unmasking,2,51,0,0,_six_,talker-p268_sex-f_text-_six_.wav,p268,f,5,16,6.0,7.0,RX81,6,0.0,0.0,7.0,82.34149293193902,babble-reversed_n13_p229-five-p256-one-p318-three-p248-nine-p268-four-p284-eight.wav,4,RX81,5,0.0,0.0,6.0,89.31368318402099,mgb_normalisation,89.31368318402099,90.34149293193902,6,6.0,True,0.7395248413085938
,2024-07-01 13:53:18,sub_109,3,distance,cathedral,spatial_unmasking,2,52,0,0,_three_,talker-p268_sex-f_text-_three_.wav,p268,f,5,17,6.0,7.0,RX81,6,0.0,0.0,7.0,81.34149293193902,babble-reversed_n13_p256-two-p307-five-p318-nine-p248-eight-p245-four-p284-one.wav,4,RX81,5,0.0,0.0,6.0,89.31368318402099,mgb_normalisation,89.31368318402099,90.34149293193902,3,3.0,True,1.1233134269714355
,2024-07-01 13:53:22,sub_109,3,distance,cathedral,spatial_unmasking,2,53,0,0,_five_,talker-p268_sex-f_text-_five_.wav,p268,f,5,18,6.0,7.0,RX81,6,0.0,0.0,7.0,81.34149293193902,babble-reversed_n13_p229-two-p307-five-p318-four-p284-one-p248-nine-p268-eight.wav,4,RX81,5,0.0,0.0,6.0,89.31368318402099,mgb_normalisation,89.31368318402099,90.34149293193902,5,9.0,False,2.062357187271118
,2024-07-01 13:53:26,sub_109,3,distance,cathedral,spatial_unmasking,2,54,0,0,_four_,talker-p268_sex-f_text-_four_.wav,p268,f,5,19,6.0,7.0,RX81,6,0.0,0.0,7.0,82.34149293193902,babble-reversed_n13_p229-eight-p256-nine-p318-four-p245-three-p268-five-p284-two.wav,4,RX81,5,0.0,0.0,6.0,89.31368318402099,mgb_normalisation,89.31368318402099,90.34149293193902,4,4.0,True,1.0624268054962158
,2024-07-01 13:53:30,sub_109,3,distance,cathedral,spatial_unmasking,2,55,0,0,_nine_,talker-p268_sex-f_text-_nine_.wav,p268,f,5,20,6.0,7.0,RX81,6,0.0,0.0,7.0,82.34149293193902,babble-reversed_n13_p307-five-p229-three-p318-nine-p245-four-p268-eight-p284-two.wav,4,RX81,5,0.0,0.0,6.0,89.31368318402099,mgb_normalisation,89.31368318402099,90.34149293193902,9,9.0,True,1.9222352504730225
,2024-07-01 13:53:34,sub_109,3,distance,cathedral,spatial_unmasking,2,56,0,0,_eight_,talker-p268_sex-f_text-_eight_.wav,p268,f,5,21,6.0,7.0,RX81,6,0.0,0.0,7.0,81.34149293193902,babble-reversed_n13_p229-eight-p256-nine-p318-four-p245-three-p268-five-p284-two.wav,4,RX81,5,0.0,0.0,6.0,89.31368318402099,mgb_normalisation,89.31368318402099,90.34149293193902,8,8.0,True,1.0555849075317385
,2024-07-01 13:53:37,sub_109,3,distance,cathedral,spatial_unmasking,2,57,0,0,_six_,talker-p268_sex-f_text-_six_.wav,p268,f,5,22,6.0,7.0,RX81,6,0.0,0.0,7.0,81.341492931939,babble-reversed_n13_p229-three-p256-one-p307-two-p284-eight-p268-five-p248-nine.wav,4,RX81,5,0.0,0.0,6.0,89.31368318402099,mgb_normalisation,89.31368318402099,90.34149293193902,6,6.0,True,0.9374356269836426
,2024-07-01 13:53:41,sub_109,3,distance,cathedral,spatial_unmasking,2,58,0,0,_five_,talker-p268_sex-f_text-_five_.wav,p268,f,5,23,6.0,7.0,RX81,6,0.0,0.0,7.0,80.34149293193903,babble-reversed_n13_p229-five-p318-three-p307-two-p245-four-p284-nine-p248-eight.wav,4,RX81,5,0.0,0.0,6.0,89.31368318402099,mgb_normalisation,89.31368318402099,90.34149293193902,5,9.0,False,1.4373981952667236
,2024-07-01 13:53:44,sub_109,3,distance,cathedral,spatial_unmasking,2,59,0,0,_eight_,talker-p268_sex-f_text-_eight_.wav,p268,f,5,24,6.0,7.0,RX81,6,0.0,0.0,7.0,81.34149293193902,babble-reversed_n13_p318-five-p256-nine-p307-two-p245-eight-p248-one-p284-four.wav,4,RX81,5,0.0,0.0,6.0,89.313683184021,mgb_normalisation,89.31368318402099,90.34149293193902,8,8.0,True,1.302281379699707
,2024-07-01 13:53:48,sub_109,3,distance,cathedral,spatial_unmasking,2,60,0,0,_one_,talker-p268_sex-f_text-_one_.wav,p268,f,5,25,6.0,7.0,RX81,6,0.0,0.0,7.0,81.34149293193902,babble-reversed_n13_p229-nine-p256-four-p318-three-p268-eight-p248-two-p284-five.wav,4,RX81,5,0.0,0.0,6.0,89.31368318402099,mgb_normalisation,89.31368318402099,90.34149293193902,1,1.0,True,1.5632622241973877
,2024-07-01 13:53:54,sub_109,3,distance,cathedral,spatial_unmasking,2,61,0,0,_five_,talker-p268_sex-f_text-_five_.wav,p268,f,5,26,6.0,7.0,RX81,6,0.0,0.0,7.0,80.34149293193903,babble-reversed_n13_p256-nine-p307-four-p229-one-p284-three-p248-two-p245-five.wav,4,RX81,5,0.0,0.0,6.0,89.31368318402099,mgb_normalisation,89.31368318402099,90.34149293193902,5,4.0,False,3.250433921813965
,2024-07-01 13:53:58,sub_109,3,distance,cathedral,spatial_unmasking,2,62,0,0,_one_,talker-p268_sex-f_text-_one_.wav,p268,f,5,27,6.0,7.0,RX81,6,0.0,0.0,7.0,81.34149293193902,babble-reversed_n13_p318-five-p256-nine-p307-two-p245-eight-p248-one-p284-four.wav,4,RX81,5,0.0,0.0,6.0,89.313683184021,mgb_normalisation,89.31368318402099,90.34149293193902,1,1.0,True,1.2499136924743652
,2024-07-01 13:54:01,sub_109,3,distance,cathedral,spatial_unmasking,2,63,0,0,_six_,talker-p268_sex-f_text-_six_.wav,p268,f,5,28,6.0,7.0,RX81,6,0.0,0.0,7.0,81.341492931939,babble-reversed_n13_p307-four-p318-three-p256-eight-p284-two-p245-nine-p248-five.wav,4,RX81,5,0.0,0.0,6.0,89.31368318402099,mgb_normalisation,89.31368318402099,90.34149293193902,6,6.0,True,0.749948263168335
,2024-07-01 13:54:05,sub_109,3,distance,cathedral,spatial_unmasking,2,64,0,0,_five_,talker-p268_sex-f_text-_five_.wav,p268,f,5,29,6.0,7.0,RX81,6,0.0,0.0,7.0,80.34149293193903,babble-reversed_n13_p318-three-p229-one-p256-eight-p245-five-p248-four-p284-nine.wav,4,RX81,5,0.0,0.0,6.0,89.313683184021,mgb_normalisation,89.31368318402099,90.34149293193902,5,5.0,True,1.2996630668640137
,2024-07-01 13:54:09,sub_109,3,distance,cathedral,spatial_unmasking,2,65,0,0,_nine_,talker-p268_sex-f_text-_nine_.wav,p268,f,5,30,6.0,7.0,RX81,6,0.0,0.0,7.0,80.341492931939,babble-reversed_n13_p307-two-p229-one-p256-five-p248-nine-p284-three-p268-eight.wav,4,RX81,5,0.0,0.0,6.0,89.313683184021,mgb_normalisation,89.31368318402099,90.34149293193902,9,4.0,False,2.1719298362731934
,2024-07-01 13:54:12,sub_109,3,distance,cathedral,spatial_unmasking,2,66,0,0,_six_,talker-p268_sex-f_text-_six_.wav,p268,f,5,31,6.0,7.0,RX81,6,0.0,0.0,7.0,81.341492931939,babble-reversed_n13_p256-four-p229-two-p318-five-p268-one-p248-eight-p245-three.wav,4,RX81,5,0.0,0.0,6.0,89.31368318402099,mgb_normalisation,89.31368318402099,90.34149293193902,6,6.0,True,0.9374346733093262
,2024-07-01 13:54:16,sub_109,3,distance,cathedral,spatial_unmasking,2,67,0,0,_six_,talker-p268_sex-f_text-_six_.wav,p268,f,5,32,6.0,7.0,RX81,6,0.0,0.0,7.0,81.341492931939,babble-reversed_n13_p229-five-p318-three-p307-two-p245-four-p284-nine-p248-eight.wav,4,RX81,5,0.0,0.0,6.0,89.31368318402099,mgb_normalisation,89.31368318402099,90.34149293193902,6,6.0,True,0.8749394416809082
,2024-07-01 13:56:30,sub_109,3,distance,cathedral,spatial_unmasking,3,68,0,0,_two_,talker-p268_sex-f_text-_two_.wav,p268,f,5,1,7.0,7.0,RX81,6,0.0,0.0,7.0,92.34149293193902,babble-reversed_n13_p256-three-p318-one-p307-two-p284-nine-p268-four-p245-eight.wav,5,RX81,6,0.0,0.0,7.0,90.34149293193904,mgb_normalisation,90.34149293193902,90.34149293193902,2,2.0,True,1.4880893230438232
,2024-07-01 13:56:34,sub_109,3,distance,cathedral,spatial_unmasking,3,69,0,0,_three_,talker-p268_sex-f_text-_three_.wav,p268,f,5,2,7.0,7.0,RX81,6,0.0,0.0,7.0,88.34149293193902,babble-reversed_n13_p307-four-p318-three-p256-eight-p284-two-p245-nine-p248-five.wav,5,RX81,6,0.0,0.0,7.0,90.341492931939,mgb_normalisation,90.34149293193902,90.34149293193902,3,3.0,True,1.059380054473877
,2024-07-01 13:56:37,sub_109,3,distance,cathedral,spatial_unmasking,3,70,0,0,_three_,talker-p268_sex-f_text-_three_.wav,p268,f,5,3,7.0,7.0,RX81,6,0.0,0.0,7.0,84.341492931939,babble-reversed_n13_p318-three-p229-one-p256-eight-p245-five-p248-four-p284-nine.wav,5,RX81,6,0.0,0.0,7.0,90.34149293193904,mgb_normalisation,90.34149293193902,90.34149293193902,3,8.0,False,1.2499144077301023
,2024-07-01 13:56:41,sub_109,3,distance,cathedral,spatial_unmasking,3,71,0,0,_five_,talker-p268_sex-f_text-_five_.wav,p268,f,5,4,7.0,7.0,RX81,6,0.0,0.0,7.0,86.34149293193902,babble-reversed_n13_p229-three-p256-nine-p318-five-p248-one-p245-eight-p284-two.wav,5,RX81,6,0.0,0.0,7.0,90.34149293193904,mgb_normalisation,90.34149293193902,90.34149293193902,5,9.0,False,1.124922752380371
,2024-07-01 13:56:44,sub_109,3,distance,cathedral,spatial_unmasking,3,72,0,0,_three_,talker-p268_sex-f_text-_three_.wav,p268,f,5,5,7.0,7.0,RX81,6,0.0,0.0,7.0,88.34149293193902,babble-reversed_n13_p307-two-p229-one-p256-five-p248-nine-p284-three-p268-eight.wav,5,RX81,6,0.0,0.0,7.0,90.34149293193904,mgb_normalisation,90.34149293193902,90.34149293193902,3,3.0,True,0.8724405765533447
,2024-07-01 13:56:47,sub_109,3,distance,cathedral,spatial_unmasking,3,73,0,0,_three_,talker-p268_sex-f_text-_three_.wav,p268,f,5,6,7.0,7.0,RX81,6,0.0,0.0,7.0,88.34149293193902,babble-reversed_n13_p229-one-p318-eight-p256-three-p268-nine-p248-five-p284-four.wav,5,RX81,6,0.0,0.0,7.0,90.341492931939,mgb_normalisation,90.34149293193902,90.34149293193902,3,3.0,True,0.8124432563781738
,2024-07-01 13:56:50,sub_109,3,distance,cathedral,spatial_unmasking,3,74,0,0,_four_,talker-p268_sex-f_text-_four_.wav,p268,f,5,7,7.0,7.0,RX81,6,0.0,0.0,7.0,86.341492931939,babble-reversed_n13_p318-nine-p256-five-p307-eight-p268-three-p248-one-p245-four.wav,5,RX81,6,0.0,0.0,7.0,90.34149293193904,mgb_normalisation,90.34149293193902,90.34149293193902,4,4.0,True,1.0624263286590576
,2024-07-01 13:56:54,sub_109,3,distance,cathedral,spatial_unmasking,3,75,0,0,_eight_,talker-p268_sex-f_text-_eight_.wav,p268,f,5,8,7.0,7.0,RX81,6,0.0,0.0,7.0,86.34149293193902,babble-reversed_n13_p229-five-p256-one-p318-three-p248-nine-p268-four-p284-eight.wav,5,RX81,6,0.0,0.0,7.0,90.341492931939,mgb_normalisation,90.34149293193902,90.34149293193902,8,8.0,True,1.1858046054840088
,2024-07-01 13:56:57,sub_109,3,distance,cathedral,spatial_unmasking,3,76,0,0,_two_,talker-p268_sex-f_text-_two_.wav,p268,f,5,9,7.0,7.0,RX81,6,0.0,0.0,7.0,84.34149293193903,babble-reversed_n13_p318-nine-p256-five-p307-eight-p268-three-p248-one-p245-four.wav,5,RX81,6,0.0,0.0,7.0,90.34149293193904,mgb_normalisation,90.34149293193902,90.34149293193902,2,2.0,True,0.8124439716339111
,2024-07-01 13:57:03,sub_109,3,distance,cathedral,spatial_unmasking,3,77,0,0,_eight_,talker-p268_sex-f_text-_eight_.wav,p268,f,5,10,7.0,7.0,RX81,6,0.0,0.0,7.0,84.34149293193903,babble-reversed_n13_p229-nine-p307-five-p256-two-p248-three-p245-one-p268-eight.wav,5,RX81,6,0.0,0.0,7.0,90.34149293193904,mgb_normalisation,90.34149293193902,90.34149293193902,8,4.0,False,3.999359607696533
,2024-07-01 13:57:06,sub_109,3,distance,cathedral,spatial_unmasking,3,78,0,0,_six_,talker-p268_sex-f_text-_six_.wav,p268,f,5,11,7.0,7.0,RX81,6,0.0,0.0,7.0,85.341492931939,babble-reversed_n13_p229-eight-p256-nine-p318-four-p245-three-p268-five-p284-two.wav,5,RX81,6,0.0,0.0,7.0,90.341492931939,mgb_normalisation,90.34149293193902,90.34149293193902,6,6.0,True,0.8124439716339111
,2024-07-01 13:57:14,sub_109,3,distance,cathedral,spatial_unmasking,3,79,0,0,_four_,talker-p268_sex-f_text-_four_.wav,p268,f,5,12,7.0,7.0,RX81,6,0.0,0.0,7.0,85.341492931939,babble-reversed_n13_p229-two-p307-five-p318-four-p284-one-p248-nine-p268-eight.wav,5,RX81,6,0.0,0.0,7.0,90.34149293193904,mgb_normalisation,90.34149293193902,90.34149293193902,4,4.0,True,5.17402458190918
,2024-07-01 13:57:17,sub_109,3,distance,cathedral,spatial_unmasking,3,80,0,0,_three_,talker-p268_sex-f_text-_three_.wav,p268,f,5,13,7.0,7.0,RX81,6,0.0,0.0,7.0,84.341492931939,babble-reversed_n13_p256-two-p307-five-p318-nine-p248-eight-p245-four-p284-one.wav,5,RX81,6,0.0,0.0,7.0,90.34149293193904,mgb_normalisation,90.34149293193902,90.34149293193902,3,3.0,True,1.124922752380371
,2024-07-01 13:57:21,sub_109,3,distance,cathedral,spatial_unmasking,3,81,0,0,_eight_,talker-p268_sex-f_text-_eight_.wav,p268,f,5,14,7.0,7.0,RX81,6,0.0,0.0,7.0,84.34149293193903,babble-reversed_n13_p229-eight-p256-nine-p318-four-p245-three-p268-five-p284-two.wav,5,RX81,6,0.0,0.0,7.0,90.341492931939,mgb_normalisation,90.34149293193902,90.34149293193902,8,8.0,True,1.3124094009399414
,2024-07-01 13:57:25,sub_109,3,distance,cathedral,spatial_unmasking,3,82,0,0,_four_,talker-p268_sex-f_text-_four_.wav,p268,f,5,15,7.0,7.0,RX81,6,0.0,0.0,7.0,83.34149293193902,babble-reversed_n13_p307-nine-p318-two-p256-one-p245-three-p268-four-p248-eight.wav,5,RX81,6,0.0,0.0,7.0,90.341492931939,mgb_normalisation,90.34149293193902,90.34149293193902,4,4.0,True,1.749551773071289
,2024-07-01 13:57:29,sub_109,3,distance,cathedral,spatial_unmasking,3,83,0,0,_six_,talker-p268_sex-f_text-_six_.wav,p268,f,5,16,7.0,7.0,RX81,6,0.0,0.0,7.0,83.34149293193902,babble-reversed_n13_p307-five-p229-two-p318-four-p248-three-p245-nine-p268-eight.wav,5,RX81,6,0.0,0.0,7.0,90.341492931939,mgb_normalisation,90.34149293193902,90.34149293193902,6,6.0,True,1.3747754096984863
,2024-07-01 13:57:36,sub_109,3,distance,cathedral,spatial_unmasking,3,84,0,0,_eight_,talker-p268_sex-f_text-_eight_.wav,p268,f,5,17,7.0,7.0,RX81,6,0.0,0.0,7.0,82.34149293193902,babble-reversed_n13_p307-five-p229-two-p318-four-p248-three-p245-nine-p268-eight.wav,5,RX81,6,0.0,0.0,7.0,90.341492931939,mgb_normalisation,90.34149293193902,90.34149293193902,8,1.0,False,5.374821901321411
,2024-07-01 13:57:40,sub_109,3,distance,cathedral,spatial_unmasking,3,85,0,0,_one_,talker-p268_sex-f_text-_one_.wav,p268,f,5,18,7.0,7.0,RX81,6,0.0,0.0,7.0,83.34149293193902,babble-reversed_n13_p307-two-p229-one-p256-five-p248-nine-p284-three-p268-eight.wav,5,RX81,6,0.0,0.0,7.0,90.34149293193904,mgb_normalisation,90.34149293193902,90.34149293193902,1,5.0,False,1.1890244483947754
,2024-07-01 13:57:43,sub_109,3,distance,cathedral,spatial_unmasking,3,86,0,0,_eight_,talker-p268_sex-f_text-_eight_.wav,p268,f,5,19,7.0,7.0,RX81,6,0.0,0.0,7.0,84.34149293193903,babble-reversed_n13_p229-nine-p256-four-p318-three-p268-eight-p248-two-p284-five.wav,5,RX81,6,0.0,0.0,7.0,90.34149293193904,mgb_normalisation,90.34149293193902,90.34149293193902,8,8.0,True,1.3107433319091797
,2024-07-01 13:57:47,sub_109,3,distance,cathedral,spatial_unmasking,3,87,0,0,_three_,talker-p268_sex-f_text-_three_.wav,p268,f,5,20,7.0,7.0,RX81,6,0.0,0.0,7.0,84.341492931939,babble-reversed_n13_p256-four-p229-two-p318-five-p268-one-p248-eight-p245-three.wav,5,RX81,6,0.0,0.0,7.0,90.341492931939,mgb_normalisation,90.34149293193902,90.34149293193902,3,3.0,True,1.3124101161956787
,2024-07-01 13:57:50,sub_109,3,distance,cathedral,spatial_unmasking,3,88,0,0,_three_,talker-p268_sex-f_text-_three_.wav,p268,f,5,21,7.0,7.0,RX81,6,0.0,0.0,7.0,83.34149293193902,babble-reversed_n13_p318-five-p256-nine-p307-eight-p248-two-p245-four-p284-three.wav,5,RX81,6,0.0,0.0,7.0,90.34149293193904,mgb_normalisation,90.34149293193902,90.34149293193902,3,3.0,True,0.999932050704956
,2024-07-01 13:57:54,sub_109,3,distance,cathedral,spatial_unmasking,3,89,0,0,_four_,talker-p268_sex-f_text-_four_.wav,p268,f,5,22,7.0,7.0,RX81,6,0.0,0.0,7.0,83.34149293193902,babble-reversed_n13_p229-two-p256-three-p318-eight-p284-five-p268-four-p245-one.wav,5,RX81,6,0.0,0.0,7.0,90.34149293193904,mgb_normalisation,90.34149293193902,90.34149293193902,4,4.0,True,1.5585665702819824
,2024-07-01 13:57:58,sub_109,3,distance,cathedral,spatial_unmasking,3,90,0,0,_four_,talker-p268_sex-f_text-_four_.wav,p268,f,5,23,7.0,7.0,RX81,6,0.0,0.0,7.0,82.34149293193902,babble-reversed_n13_p318-five-p229-four-p256-eight-p284-one-p245-three-p248-two.wav,5,RX81,6,0.0,0.0,7.0,90.34149293193904,mgb_normalisation,90.34149293193902,90.34149293193902,4,8.0,False,1.7498793601989746
,2024-07-01 13:58:02,sub_109,3,distance,cathedral,spatial_unmasking,3,91,0,0,_nine_,talker-p268_sex-f_text-_nine_.wav,p268,f,5,24,7.0,7.0,RX81,6,0.0,0.0,7.0,83.34149293193902,babble-reversed_n13_p256-eight-p318-five-p307-four-p245-three-p268-one-p284-nine.wav,5,RX81,6,0.0,0.0,7.0,90.341492931939,mgb_normalisation,90.34149293193902,90.34149293193902,9,9.0,True,0.999929666519165
,2024-07-01 13:58:05,sub_109,3,distance,cathedral,spatial_unmasking,3,92,0,0,_eight_,talker-p268_sex-f_text-_eight_.wav,p268,f,5,25,7.0,7.0,RX81,6,0.0,0.0,7.0,83.34149293193903,babble-reversed_n13_p229-one-p318-eight-p256-three-p268-nine-p248-five-p284-four.wav,5,RX81,6,0.0,0.0,7.0,90.341492931939,mgb_normalisation,90.34149293193902,90.34149293193902,8,8.0,True,1.3757658004760742
,2024-07-01 13:58:09,sub_109,3,distance,cathedral,spatial_unmasking,3,93,0,0,_six_,talker-p268_sex-f_text-_six_.wav,p268,f,5,26,7.0,7.0,RX81,6,0.0,0.0,7.0,82.34149293193902,babble-reversed_n13_p229-two-p307-five-p318-four-p284-one-p248-nine-p268-eight.wav,5,RX81,6,0.0,0.0,7.0,90.34149293193904,mgb_normalisation,90.34149293193902,90.34149293193902,6,6.0,True,1.3728082180023191
,2024-07-01 13:58:13,sub_109,3,distance,cathedral,spatial_unmasking,3,94,0,0,_four_,talker-p268_sex-f_text-_four_.wav,p268,f,5,27,7.0,7.0,RX81,6,0.0,0.0,7.0,82.34149293193902,babble-reversed_n13_p318-three-p229-one-p256-eight-p245-five-p248-four-p284-nine.wav,5,RX81,6,0.0,0.0,7.0,90.34149293193904,mgb_normalisation,90.34149293193902,90.34149293193902,4,4.0,True,2.247758150100708
,2024-07-01 13:58:18,sub_109,3,distance,cathedral,spatial_unmasking,3,95,0,0,_eight_,talker-p268_sex-f_text-_eight_.wav,p268,f,5,28,7.0,7.0,RX81,6,0.0,0.0,7.0,81.34149293193902,babble-reversed_n13_p229-two-p256-three-p318-eight-p284-five-p268-four-p245-one.wav,5,RX81,6,0.0,0.0,7.0,90.34149293193904,mgb_normalisation,90.34149293193902,90.34149293193902,8,8.0,True,1.7498788833618164
,2024-07-01 13:58:22,sub_109,3,distance,cathedral,spatial_unmasking,3,96,0,0,_one_,talker-p268_sex-f_text-_one_.wav,p268,f,5,29,7.0,7.0,RX81,6,0.0,0.0,7.0,81.34149293193902,babble-reversed_n13_p229-five-p256-three-p318-nine-p248-two-p284-four-p268-one.wav,5,RX81,6,0.0,0.0,7.0,90.34149293193904,mgb_normalisation,90.34149293193902,90.34149293193902,1,8.0,False,2.2498433589935303
,2024-07-01 13:58:26,sub_109,3,distance,cathedral,spatial_unmasking,3,97,0,0,_one_,talker-p268_sex-f_text-_one_.wav,p268,f,5,30,7.0,7.0,RX81,6,0.0,0.0,7.0,82.34149293193902,babble-reversed_n13_p229-nine-p256-four-p318-three-p268-eight-p248-two-p284-five.wav,5,RX81,6,0.0,0.0,7.0,90.34149293193904,mgb_normalisation,90.34149293193902,90.34149293193902,1,4.0,False,2.0623579025268555
,2024-07-01 13:58:30,sub_109,3,distance,cathedral,spatial_unmasking,3,98,0,0,_four_,talker-p268_sex-f_text-_four_.wav,p268,f,5,31,7.0,7.0,RX81,6,0.0,0.0,7.0,83.34149293193902,babble-reversed_n13_p256-eight-p318-two-p307-five-p245-four-p268-nine-p284-one.wav,5,RX81,6,0.0,0.0,7.0,90.34149293193904,mgb_normalisation,90.34149293193902,90.34149293193902,4,4.0,True,1.4862029552459717
,2024-07-01 13:58:34,sub_109,3,distance,cathedral,spatial_unmasking,3,99,0,0,_two_,talker-p268_sex-f_text-_two_.wav,p268,f,5,32,7.0,7.0,RX81,6,0.0,0.0,7.0,83.34149293193903,babble-reversed_n13_p256-three-p318-one-p307-two-p284-nine-p268-four-p245-eight.wav,5,RX81,6,0.0,0.0,7.0,90.34149293193904,mgb_normalisation,90.34149293193902,90.34149293193902,2,2.0,True,1.2471909523010254
,2024-07-01 13:58:38,sub_109,3,distance,cathedral,spatial_unmasking,3,100,0,0,_three_,talker-p268_sex-f_text-_three_.wav,p268,f,5,33,7.0,7.0,RX81,6,0.0,0.0,7.0,82.34149293193902,babble-reversed_n13_p256-nine-p307-four-p229-one-p284-three-p248-two-p245-five.wav,5,RX81,6,0.0,0.0,7.0,90.34149293193904,mgb_normalisation,90.34149293193902,90.34149293193902,3,8.0,False,1.6873812675476074
,2024-07-01 13:58:42,sub_109,3,distance,cathedral,spatial_unmasking,3,101,0,0,_four_,talker-p268_sex-f_text-_four_.wav,p268,f,5,34,7.0,7.0,RX81,6,0.0,0.0,7.0,83.34149293193902,babble-reversed_n13_p307-nine-p318-two-p256-one-p245-three-p268-four-p248-eight.wav,5,RX81,6,0.0,0.0,7.0,90.341492931939,mgb_normalisation,90.34149293193902,90.34149293193902,4,4.0,True,1.9998629093170168
,2024-07-01 13:58:47,sub_109,3,distance,cathedral,spatial_unmasking,3,102,0,0,_four_,talker-p268_sex-f_text-_four_.wav,p268,f,5,35,7.0,7.0,RX81,6,0.0,0.0,7.0,83.34149293193902,babble-reversed_n13_p318-nine-p307-eight-p229-two-p284-one-p248-three-p245-five.wav,5,RX81,6,0.0,0.0,7.0,90.34149293193904,mgb_normalisation,90.34149293193902,90.34149293193902,4,4.0,True,2.7498109340667725
,2024-07-01 14:00:15,sub_109,3,distance,cathedral,spatial_unmasking,4,103,0,0,_five_,talker-p268_sex-f_text-_five_.wav,p268,f,5,1,2.0,7.0,RX81,6,0.0,0.0,7.0,92.34149293193902,babble-reversed_n13_p229-nine-p318-one-p307-two-p248-eight-p245-five-p284-four.wav,0,RX81,1,0.0,0.0,2.0,84.40078082039426,mgb_normalisation,84.40078082039426,90.34149293193902,5,5.0,True,1.3605060577392578
,2024-07-01 14:00:18,sub_109,3,distance,cathedral,spatial_unmasking,4,104,0,0,_six_,talker-p268_sex-f_text-_six_.wav,p268,f,5,2,2.0,7.0,RX81,6,0.0,0.0,7.0,88.34149293193902,babble-reversed_n13_p256-four-p229-two-p318-five-p268-one-p248-eight-p245-three.wav,0,RX81,1,0.0,0.0,2.0,84.40078082039426,mgb_normalisation,84.40078082039426,90.34149293193902,6,6.0,True,0.8749990463256836
,2024-07-01 14:00:22,sub_109,3,distance,cathedral,spatial_unmasking,4,105,0,0,_eight_,talker-p268_sex-f_text-_eight_.wav,p268,f,5,3,2.0,7.0,RX81,6,0.0,0.0,7.0,84.34149293193903,babble-reversed_n13_p256-eight-p229-three-p307-nine-p245-five-p248-four-p268-two.wav,0,RX81,1,0.0,0.0,2.0,84.40078082039426,mgb_normalisation,84.40078082039426,90.34149293193902,8,8.0,True,0.9374351501464844
,2024-07-01 14:00:26,sub_109,3,distance,cathedral,spatial_unmasking,4,106,0,0,_eight_,talker-p268_sex-f_text-_eight_.wav,p268,f,5,4,2.0,7.0,RX81,6,0.0,0.0,7.0,80.34149293193903,babble-reversed_n13_p318-five-p256-nine-p307-eight-p248-two-p245-four-p284-three.wav,0,RX81,1,0.0,0.0,2.0,84.40078082039426,mgb_normalisation,84.40078082039426,90.34149293193902,8,8.0,True,1.6253840923309326
,2024-07-01 14:00:31,sub_109,3,distance,cathedral,spatial_unmasking,4,107,0,0,_four_,talker-p268_sex-f_text-_four_.wav,p268,f,5,5,2.0,7.0,RX81,6,0.0,0.0,7.0,76.34149293193902,babble-reversed_n13_p307-nine-p318-two-p256-one-p245-three-p268-four-p248-eight.wav,0,RX81,1,0.0,0.0,2.0,84.40078082039426,mgb_normalisation,84.40078082039426,90.34149293193902,4,4.0,True,2.5008695125579834
,2024-07-01 14:00:36,sub_109,3,distance,cathedral,spatial_unmasking,4,108,0,0,_eight_,talker-p268_sex-f_text-_eight_.wav,p268,f,5,6,2.0,7.0,RX81,6,0.0,0.0,7.0,72.34149293193903,babble-reversed_n13_p256-four-p229-two-p318-five-p268-one-p248-eight-p245-three.wav,0,RX81,1,0.0,0.0,2.0,84.40078082039426,mgb_normalisation,84.40078082039426,90.34149293193902,8,3.0,False,2.983825206756592
,2024-07-01 14:00:40,sub_109,3,distance,cathedral,spatial_unmasking,4,109,0,0,_one_,talker-p268_sex-f_text-_one_.wav,p268,f,5,7,2.0,7.0,RX81,6,0.0,0.0,7.0,74.34149293193902,babble-reversed_n13_p229-one-p318-eight-p256-three-p268-nine-p248-five-p284-four.wav,0,RX81,1,0.0,0.0,2.0,84.40078082039426,mgb_normalisation,84.40078082039426,90.34149293193902,1,5.0,False,1.987185955047608
,2024-07-01 14:00:45,sub_109,3,distance,cathedral,spatial_unmasking,4,110,0,0,_five_,talker-p268_sex-f_text-_five_.wav,p268,f,5,8,2.0,7.0,RX81,6,0.0,0.0,7.0,76.34149293193902,babble-reversed_n13_p256-eight-p229-three-p307-nine-p245-five-p248-four-p268-two.wav,0,RX81,1,0.0,0.0,2.0,84.40078082039426,mgb_normalisation,84.40078082039426,90.34149293193902,5,4.0,False,2.3114678859710693
,2024-07-01 14:00:50,sub_109,3,distance,cathedral,spatial_unmasking,4,111,0,0,_one_,talker-p268_sex-f_text-_one_.wav,p268,f,5,9,2.0,7.0,RX81,6,0.0,0.0,7.0,78.34149293193902,babble-reversed_n13_p318-five-p229-three-p256-four-p268-eight-p248-one-p245-nine.wav,0,RX81,1,0.0,0.0,2.0,84.40078082039426,mgb_normalisation,84.40078082039426,90.34149293193902,1,8.0,False,2.2976951599121094
,2024-07-01 14:00:57,sub_109,3,distance,cathedral,spatial_unmasking,4,112,0,0,_one_,talker-p268_sex-f_text-_one_.wav,p268,f,5,10,2.0,7.0,RX81,6,0.0,0.0,7.0,80.34149293193903,babble-reversed_n13_p229-two-p318-eight-p256-three-p268-one-p248-nine-p284-five.wav,0,RX81,1,0.0,0.0,2.0,84.40078082039426,mgb_normalisation,84.40078082039426,90.34149293193902,1,3.0,False,4.749634027481079
,2024-07-01 14:01:00,sub_109,3,distance,cathedral,spatial_unmasking,4,113,0,0,_three_,talker-p268_sex-f_text-_three_.wav,p268,f,5,11,2.0,7.0,RX81,6,0.0,0.0,7.0,82.34149293193902,babble-reversed_n13_p318-five-p256-nine-p307-two-p245-eight-p248-one-p284-four.wav,0,RX81,1,0.0,0.0,2.0,84.40078082039427,mgb_normalisation,84.40078082039426,90.34149293193902,3,3.0,True,1.1166865825653076
,2024-07-01 14:01:05,sub_109,3,distance,cathedral,spatial_unmasking,4,114,0,0,_four_,talker-p268_sex-f_text-_four_.wav,p268,f,5,12,2.0,7.0,RX81,6,0.0,0.0,7.0,82.34149293193902,babble-reversed_n13_p256-eight-p229-three-p307-nine-p245-five-p248-four-p268-two.wav,0,RX81,1,0.0,0.0,2.0,84.40078082039426,mgb_normalisation,84.40078082039426,90.34149293193902,4,4.0,True,2.1081063747406006
,2024-07-01 14:01:09,sub_109,3,distance,cathedral,spatial_unmasking,4,115,0,0,_eight_,talker-p268_sex-f_text-_eight_.wav,p268,f,5,13,2.0,7.0,RX81,6,0.0,0.0,7.0,80.34149293193903,babble-reversed_n13_p229-two-p256-three-p318-eight-p284-five-p268-four-p245-one.wav,0,RX81,1,0.0,0.0,2.0,84.40078082039426,mgb_normalisation,84.40078082039426,90.34149293193902,8,8.0,True,1.2499139308929443
,2024-07-01 14:01:13,sub_109,3,distance,cathedral,spatial_unmasking,4,116,0,0,_four_,talker-p268_sex-f_text-_four_.wav,p268,f,5,14,2.0,7.0,RX81,6,0.0,0.0,7.0,80.341492931939,babble-reversed_n13_p229-one-p318-eight-p256-three-p268-two-p245-five-p248-nine.wav,0,RX81,1,0.0,0.0,2.0,84.40078082039426,mgb_normalisation,84.40078082039426,90.34149293193902,4,4.0,True,2.249844074249268
,2024-07-01 14:01:17,sub_109,3,distance,cathedral,spatial_unmasking,4,117,0,0,_two_,talker-p268_sex-f_text-_two_.wav,p268,f,5,15,2.0,7.0,RX81,6,0.0,0.0,7.0,78.34149293193902,babble-reversed_n13_p229-nine-p307-five-p256-two-p248-three-p245-one-p268-eight.wav,0,RX81,1,0.0,0.0,2.0,84.40078082039426,mgb_normalisation,84.40078082039426,90.34149293193902,2,2.0,True,1.4374265670776367
,2024-07-01 14:01:21,sub_109,3,distance,cathedral,spatial_unmasking,4,118,0,0,_two_,talker-p268_sex-f_text-_two_.wav,p268,f,5,16,2.0,7.0,RX81,6,0.0,0.0,7.0,78.34149293193902,babble-reversed_n13_p307-four-p318-three-p256-eight-p284-two-p245-nine-p248-five.wav,0,RX81,1,0.0,0.0,2.0,84.40078082039426,mgb_normalisation,84.40078082039426,90.34149293193902,2,2.0,True,1.113663673400879
,2024-07-01 14:01:25,sub_109,3,distance,cathedral,spatial_unmasking,4,119,0,0,_six_,talker-p268_sex-f_text-_six_.wav,p268,f,5,17,2.0,7.0,RX81,6,0.0,0.0,7.0,76.34149293193902,babble-reversed_n13_p256-nine-p307-four-p229-one-p284-three-p248-two-p245-five.wav,0,RX81,1,0.0,0.0,2.0,84.40078082039427,mgb_normalisation,84.40078082039426,90.34149293193902,6,6.0,True,1.5579164028167725
,2024-07-01 14:01:31,sub_109,3,distance,cathedral,spatial_unmasking,4,120,0,0,_one_,talker-p268_sex-f_text-_one_.wav,p268,f,5,18,2.0,7.0,RX81,6,0.0,0.0,7.0,76.34149293193902,babble-reversed_n13_p256-three-p318-two-p229-nine-p248-four-p284-one-p268-eight.wav,0,RX81,1,0.0,0.0,2.0,84.40078082039426,mgb_normalisation,84.40078082039426,90.34149293193902,1,3.0,False,2.859294176101685
,2024-07-01 14:01:34,sub_109,3,distance,cathedral,spatial_unmasking,4,121,0,0,_two_,talker-p268_sex-f_text-_two_.wav,p268,f,5,19,2.0,7.0,RX81,6,0.0,0.0,7.0,77.34149293193903,babble-reversed_n13_p307-two-p256-four-p318-three-p284-eight-p248-five-p245-nine.wav,0,RX81,1,0.0,0.0,2.0,84.40078082039427,mgb_normalisation,84.40078082039426,90.34149293193902,2,2.0,True,1.2647428512573242
,2024-07-01 14:01:38,sub_109,3,distance,cathedral,spatial_unmasking,4,122,0,0,_two_,talker-p268_sex-f_text-_two_.wav,p268,f,5,20,2.0,7.0,RX81,6,0.0,0.0,7.0,77.34149293193903,babble-reversed_n13_p307-nine-p318-two-p256-one-p245-three-p268-four-p248-eight.wav,0,RX81,1,0.0,0.0,2.0,84.40078082039426,mgb_normalisation,84.40078082039426,90.34149293193902,2,2.0,True,0.99999737739563
,2024-07-01 14:01:42,sub_109,3,distance,cathedral,spatial_unmasking,4,123,0,0,_four_,talker-p268_sex-f_text-_four_.wav,p268,f,5,21,2.0,7.0,RX81,6,0.0,0.0,7.0,76.34149293193902,babble-reversed_n13_p318-three-p229-one-p256-eight-p245-five-p248-four-p284-nine.wav,0,RX81,1,0.0,0.0,2.0,84.40078082039427,mgb_normalisation,84.40078082039426,90.34149293193902,4,4.0,True,2.062357187271118
,2024-07-01 14:01:46,sub_109,3,distance,cathedral,spatial_unmasking,4,124,0,0,_one_,talker-p268_sex-f_text-_one_.wav,p268,f,5,22,2.0,7.0,RX81,6,0.0,0.0,7.0,76.34149293193902,babble-reversed_n13_p256-eight-p318-two-p307-five-p245-four-p268-nine-p284-one.wav,0,RX81,1,0.0,0.0,2.0,84.40078082039426,mgb_normalisation,84.40078082039426,90.34149293193902,1,1.0,True,1.1255147457122805
,2024-07-01 14:01:51,sub_109,3,distance,cathedral,spatial_unmasking,4,125,0,0,_nine_,talker-p268_sex-f_text-_nine_.wav,p268,f,5,23,2.0,7.0,RX81,6,0.0,0.0,7.0,75.34149293193902,babble-reversed_n13_p229-two-p256-three-p318-eight-p284-five-p268-four-p245-one.wav,0,RX81,1,0.0,0.0,2.0,84.40078082039426,mgb_normalisation,84.40078082039426,90.34149293193902,9,2.0,False,2.749584913253784
,2024-07-01 14:01:55,sub_109,3,distance,cathedral,spatial_unmasking,4,126,0,0,_five_,talker-p268_sex-f_text-_five_.wav,p268,f,5,24,2.0,7.0,RX81,6,0.0,0.0,7.0,76.34149293193902,babble-reversed_n13_p318-one-p307-two-p256-eight-p284-three-p248-five-p245-four.wav,0,RX81,1,0.0,0.0,2.0,84.40078082039427,mgb_normalisation,84.40078082039426,90.34149293193902,5,8.0,False,1.6102120876312256
,2024-07-01 14:01:59,sub_109,3,distance,cathedral,spatial_unmasking,4,127,0,0,_nine_,talker-p268_sex-f_text-_nine_.wav,p268,f,5,25,2.0,7.0,RX81,6,0.0,0.0,7.0,77.34149293193902,babble-reversed_n13_p229-three-p256-nine-p318-five-p248-one-p245-eight-p284-two.wav,0,RX81,1,0.0,0.0,2.0,84.40078082039426,mgb_normalisation,84.40078082039426,90.34149293193902,9,3.0,False,1.312408447265625
,2024-07-01 14:02:02,sub_109,3,distance,cathedral,spatial_unmasking,4,128,0,0,_six_,talker-p268_sex-f_text-_six_.wav,p268,f,5,26,2.0,7.0,RX81,6,0.0,0.0,7.0,78.34149293193902,babble-reversed_n13_p256-four-p229-eight-p307-five-p248-three-p245-one-p284-two.wav,0,RX81,1,0.0,0.0,2.0,84.40078082039426,mgb_normalisation,84.40078082039426,90.34149293193902,6,6.0,True,1.0623600482940674
,2024-07-01 14:02:08,sub_109,3,distance,cathedral,spatial_unmasking,4,129,0,0,_four_,talker-p268_sex-f_text-_four_.wav,p268,f,5,27,2.0,7.0,RX81,6,0.0,0.0,7.0,78.34149293193902,babble-reversed_n13_p307-nine-p318-two-p256-one-p245-three-p268-four-p248-eight.wav,0,RX81,1,0.0,0.0,2.0,84.40078082039426,mgb_normalisation,84.40078082039426,90.34149293193902,4,4.0,True,3.87294602394104
,2024-07-01 14:02:12,sub_109,3,distance,cathedral,spatial_unmasking,4,130,0,0,_four_,talker-p268_sex-f_text-_four_.wav,p268,f,5,28,2.0,7.0,RX81,6,0.0,0.0,7.0,77.341492931939,babble-reversed_n13_p318-five-p229-four-p256-eight-p284-one-p245-three-p248-two.wav,0,RX81,1,0.0,0.0,2.0,84.40078082039426,mgb_normalisation,84.40078082039426,90.34149293193902,4,8.0,False,1.4998974800109863
,2024-07-01 14:02:16,sub_109,3,distance,cathedral,spatial_unmasking,4,131,0,0,_three_,talker-p268_sex-f_text-_three_.wav,p268,f,5,29,2.0,7.0,RX81,6,0.0,0.0,7.0,78.34149293193902,babble-reversed_n13_p229-one-p318-eight-p256-three-p268-two-p245-five-p248-nine.wav,0,RX81,1,0.0,0.0,2.0,84.40078082039426,mgb_normalisation,84.40078082039426,90.34149293193902,3,3.0,True,1.0533225536346436
,2024-07-01 14:02:19,sub_109,3,distance,cathedral,spatial_unmasking,4,132,0,0,_eight_,talker-p268_sex-f_text-_eight_.wav,p268,f,5,30,2.0,7.0,RX81,6,0.0,0.0,7.0,78.34149293193902,babble-reversed_n13_p307-five-p229-three-p318-nine-p245-four-p268-eight-p284-two.wav,0,RX81,1,0.0,0.0,2.0,84.40078082039426,mgb_normalisation,84.40078082039426,90.34149293193902,8,6.0,False,1.3091566562652588
,2024-07-01 14:02:23,sub_109,3,distance,cathedral,spatial_unmasking,4,133,0,0,_six_,talker-p268_sex-f_text-_six_.wav,p268,f,5,31,2.0,7.0,RX81,6,0.0,0.0,7.0,79.341492931939,babble-reversed_n13_p256-five-p307-nine-p318-three-p284-eight-p268-one-p248-two.wav,0,RX81,1,0.0,0.0,2.0,84.40078082039426,mgb_normalisation,84.40078082039426,90.34149293193902,6,6.0,True,1.5623924732208252
,2024-07-01 14:02:27,sub_109,3,distance,cathedral,spatial_unmasking,4,134,0,0,_nine_,talker-p268_sex-f_text-_nine_.wav,p268,f,5,32,2.0,7.0,RX81,6,0.0,0.0,7.0,79.341492931939,babble-reversed_n13_p318-five-p229-four-p256-eight-p284-one-p245-three-p248-two.wav,0,RX81,1,0.0,0.0,2.0,84.40078082039426,mgb_normalisation,84.40078082039426,90.34149293193902,9,4.0,False,1.4373998641967771
,2024-07-01 14:02:31,sub_109,3,distance,cathedral,spatial_unmasking,4,135,0,0,_eight_,talker-p268_sex-f_text-_eight_.wav,p268,f,5,33,2.0,7.0,RX81,6,0.0,0.0,7.0,80.34149293193903,babble-reversed_n13_p256-nine-p307-four-p229-one-p284-three-p248-two-p245-five.wav,0,RX81,1,0.0,0.0,2.0,84.40078082039427,mgb_normalisation,84.40078082039426,90.34149293193902,8,8.0,True,1.3152241706848145
,2024-07-01 14:02:38,sub_109,3,distance,cathedral,spatial_unmasking,4,136,0,0,_five_,talker-p268_sex-f_text-_five_.wav,p268,f,5,34,2.0,7.0,RX81,6,0.0,0.0,7.0,80.34149293193903,babble-reversed_n13_p318-one-p307-two-p256-eight-p284-three-p248-five-p245-four.wav,0,RX81,1,0.0,0.0,2.0,84.40078082039427,mgb_normalisation,84.40078082039426,90.34149293193902,5,9.0,False,4.43644642829895
,2024-07-01 14:02:42,sub_109,3,distance,cathedral,spatial_unmasking,4,137,0,0,_nine_,talker-p268_sex-f_text-_nine_.wav,p268,f,5,35,2.0,7.0,RX81,6,0.0,0.0,7.0,81.34149293193902,babble-reversed_n13_p318-three-p307-one-p256-five-p248-nine-p245-two-p284-eight.wav,0,RX81,1,0.0,0.0,2.0,84.40078082039426,mgb_normalisation,84.40078082039426,90.34149293193902,9,9.0,True,1.5623698234558103
,2024-07-01 14:02:45,sub_109,3,distance,cathedral,spatial_unmasking,4,138,0,0,_nine_,talker-p268_sex-f_text-_nine_.wav,p268,f,5,36,2.0,7.0,RX81,6,0.0,0.0,7.0,81.34149293193902,babble-reversed_n13_p256-three-p318-two-p229-nine-p248-four-p284-one-p268-eight.wav,0,RX81,1,0.0,0.0,2.0,84.40078082039426,mgb_normalisation,84.40078082039426,90.34149293193902,9,9.0,True,1.3757662773132324
,2024-07-01 14:02:49,sub_109,3,distance,cathedral,spatial_unmasking,4,139,0,0,_three_,talker-p268_sex-f_text-_three_.wav,p268,f,5,37,2.0,7.0,RX81,6,0.0,0.0,7.0,80.341492931939,babble-reversed_n13_p256-four-p307-eight-p318-two-p248-three-p284-nine-p268-one.wav,0,RX81,1,0.0,0.0,2.0,84.40078082039427,mgb_normalisation,84.40078082039426,90.34149293193902,3,3.0,True,1.124037504196167
,2024-07-01 14:02:52,sub_109,3,distance,cathedral,spatial_unmasking,4,140,0,0,_one_,talker-p268_sex-f_text-_one_.wav,p268,f,5,38,2.0,7.0,RX81,6,0.0,0.0,7.0,80.34149293193903,babble-reversed_n13_p229-three-p307-one-p318-two-p245-eight-p268-five-p284-four.wav,0,RX81,1,0.0,0.0,2.0,84.40078082039426,mgb_normalisation,84.40078082039426,90.34149293193902,1,1.0,True,0.9999301433563232
,2024-07-01 14:02:56,sub_109,3,distance,cathedral,spatial_unmasking,4,141,0,0,_five_,talker-p268_sex-f_text-_five_.wav,p268,f,5,39,2.0,7.0,RX81,6,0.0,0.0,7.0,79.34149293193902,babble-reversed_n13_p229-five-p256-three-p318-nine-p248-two-p284-four-p268-one.wav,0,RX81,1,0.0,0.0,2.0,84.40078082039427,mgb_normalisation,84.40078082039426,90.34149293193902,5,5.0,True,1.6282634735107422
,2024-07-01 14:03:00,sub_109,3,distance,cathedral,spatial_unmasking,4,142,0,0,_four_,talker-p268_sex-f_text-_four_.wav,p268,f,5,40,2.0,7.0,RX81,6,0.0,0.0,7.0,79.341492931939,babble-reversed_n13_p229-two-p318-eight-p256-three-p268-one-p248-nine-p284-five.wav,0,RX81,1,0.0,0.0,2.0,84.40078082039426,mgb_normalisation,84.40078082039426,90.34149293193902,4,1.0,False,1.3124840259552002
,2024-07-01 14:03:03,sub_109,3,distance,cathedral,spatial_unmasking,4,143,0,0,_one_,talker-p268_sex-f_text-_one_.wav,p268,f,5,41,2.0,7.0,RX81,6,0.0,0.0,7.0,80.34149293193903,babble-reversed_n13_p229-five-p256-one-p318-three-p248-nine-p268-four-p284-eight.wav,0,RX81,1,0.0,0.0,2.0,84.40078082039426,mgb_normalisation,84.40078082039426,90.34149293193902,1,1.0,True,0.8749392032623291
,2024-07-01 14:03:07,sub_109,3,distance,cathedral,spatial_unmasking,4,144,0,0,_five_,talker-p268_sex-f_text-_five_.wav,p268,f,5,42,2.0,7.0,RX81,6,0.0,0.0,7.0,80.34149293193903,babble-reversed_n13_p229-five-p318-two-p307-eight-p268-three-p248-four-p245-one.wav,0,RX81,1,0.0,0.0,2.0,84.40078082039427,mgb_normalisation,84.40078082039426,90.34149293193902,5,5.0,True,1.4374005794525146
,2024-07-01 14:03:11,sub_109,3,distance,cathedral,spatial_unmasking,4,145,0,0,_nine_,talker-p268_sex-f_text-_nine_.wav,p268,f,5,43,2.0,7.0,RX81,6,0.0,0.0,7.0,79.341492931939,babble-reversed_n13_p256-eight-p229-three-p307-nine-p245-five-p248-four-p268-two.wav,0,RX81,1,0.0,0.0,2.0,84.40078082039426,mgb_normalisation,84.40078082039426,90.34149293193902,9,9.0,True,1.5637657642364502
,2024-07-01 14:03:15,sub_109,3,distance,cathedral,spatial_unmasking,4,146,0,0,_two_,talker-p268_sex-f_text-_two_.wav,p268,f,5,44,2.0,7.0,RX81,6,0.0,0.0,7.0,79.34149293193902,babble-reversed_n13_p256-five-p229-one-p318-three-p248-nine-p284-eight-p268-two.wav,0,RX81,1,0.0,0.0,2.0,84.40078082039427,mgb_normalisation,84.40078082039426,90.34149293193902,2,2.0,True,0.99761700630188
,2024-07-01 14:03:19,sub_109,3,distance,cathedral,spatial_unmasking,4,147,0,0,_eight_,talker-p268_sex-f_text-_eight_.wav,p268,f,5,45,2.0,7.0,RX81,6,0.0,0.0,7.0,78.34149293193902,babble-reversed_n13_p256-eight-p318-five-p307-four-p245-three-p268-one-p284-nine.wav,0,RX81,1,0.0,0.0,2.0,84.40078082039426,mgb_normalisation,84.40078082039426,90.34149293193902,8,8.0,True,1.6249139308929443
,2024-07-01 14:03:27,sub_109,3,distance,cathedral,spatial_unmasking,4,148,0,0,_nine_,talker-p268_sex-f_text-_nine_.wav,p268,f,5,46,2.0,7.0,RX81,6,0.0,0.0,7.0,78.34149293193902,babble-reversed_n13_p318-one-p307-two-p256-eight-p284-three-p248-five-p245-four.wav,0,RX81,1,0.0,0.0,2.0,84.40078082039427,mgb_normalisation,84.40078082039426,90.34149293193902,9,4.0,False,5.797402381896973
,2024-07-01 14:03:30,sub_109,3,distance,cathedral,spatial_unmasking,4,149,0,0,_nine_,talker-p268_sex-f_text-_nine_.wav,p268,f,5,47,2.0,7.0,RX81,6,0.0,0.0,7.0,79.341492931939,babble-reversed_n13_p256-three-p318-two-p229-nine-p248-four-p284-one-p268-eight.wav,0,RX81,1,0.0,0.0,2.0,84.40078082039426,mgb_normalisation,84.40078082039426,90.34149293193902,9,9.0,True,1.3130488395690918
,2024-07-01 14:03:34,sub_109,3,distance,cathedral,spatial_unmasking,4,150,0,0,_eight_,talker-p268_sex-f_text-_eight_.wav,p268,f,5,48,2.0,7.0,RX81,6,0.0,0.0,7.0,79.34149293193903,babble-reversed_n13_p307-two-p256-four-p318-three-p284-eight-p248-five-p245-nine.wav,0,RX81,1,0.0,0.0,2.0,84.40078082039427,mgb_normalisation,84.40078082039426,90.34149293193902,8,8.0,True,1.3107507228851318
,2024-07-01 14:04:49,sub_109,3,distance,cathedral,spatial_unmasking,5,151,0,0,_nine_,talker-p268_sex-f_text-_nine_.wav,p268,f,5,1,4.0,7.0,RX81,6,0.0,0.0,7.0,92.34149293193902,babble-reversed_n13_p256-eight-p318-five-p307-four-p245-three-p268-one-p284-nine.wav,2,RX81,3,0.0,0.0,4.0,87.57049330475355,mgb_normalisation,87.57049330475357,90.34149293193902,9,9.0,True,1.1856129169464111
,2024-07-01 14:04:53,sub_109,3,distance,cathedral,spatial_unmasking,5,152,0,0,_six_,talker-p268_sex-f_text-_six_.wav,p268,f,5,2,4.0,7.0,RX81,6,0.0,0.0,7.0,88.34149293193902,babble-reversed_n13_p318-five-p256-nine-p307-eight-p248-two-p245-four-p284-three.wav,2,RX81,3,0.0,0.0,4.0,87.57049330475357,mgb_normalisation,87.57049330475357,90.34149293193902,6,6.0,True,0.812443733215332
,2024-07-01 14:04:56,sub_109,3,distance,cathedral,spatial_unmasking,5,153,0,0,_three_,talker-p268_sex-f_text-_three_.wav,p268,f,5,3,4.0,7.0,RX81,6,0.0,0.0,7.0,84.341492931939,babble-reversed_n13_p229-one-p318-nine-p256-four-p284-eight-p268-five-p245-two.wav,2,RX81,3,0.0,0.0,4.0,87.57049330475357,mgb_normalisation,87.57049330475357,90.34149293193902,3,8.0,False,1.0509326457977295
,2024-07-01 14:04:59,sub_109,3,distance,cathedral,spatial_unmasking,5,154,0,0,_one_,talker-p268_sex-f_text-_one_.wav,p268,f,5,4,4.0,7.0,RX81,6,0.0,0.0,7.0,86.34149293193902,babble-reversed_n13_p229-three-p256-one-p307-two-p284-eight-p268-five-p248-nine.wav,2,RX81,3,0.0,0.0,4.0,87.57049330475357,mgb_normalisation,87.57049330475357,90.34149293193902,1,1.0,True,0.8124418258666992
,2024-07-01 14:05:03,sub_109,3,distance,cathedral,spatial_unmasking,5,155,0,0,_two_,talker-p268_sex-f_text-_two_.wav,p268,f,5,5,4.0,7.0,RX81,6,0.0,0.0,7.0,86.34149293193902,babble-reversed_n13_p318-five-p256-nine-p307-two-p245-eight-p248-one-p284-four.wav,2,RX81,3,0.0,0.0,4.0,87.57049330475357,mgb_normalisation,87.57049330475357,90.34149293193902,2,2.0,True,1.1249220371246338
,2024-07-01 14:05:06,sub_109,3,distance,cathedral,spatial_unmasking,5,156,0,0,_six_,talker-p268_sex-f_text-_six_.wav,p268,f,5,6,4.0,7.0,RX81,6,0.0,0.0,7.0,84.341492931939,babble-reversed_n13_p229-one-p318-eight-p256-three-p268-two-p245-five-p248-nine.wav,2,RX81,3,0.0,0.0,4.0,87.57049330475355,mgb_normalisation,87.57049330475357,90.34149293193902,6,6.0,True,0.8051071166992188
,2024-07-01 14:05:09,sub_109,3,distance,cathedral,spatial_unmasking,5,157,0,0,_three_,talker-p268_sex-f_text-_three_.wav,p268,f,5,7,4.0,7.0,RX81,6,0.0,0.0,7.0,84.341492931939,babble-reversed_n13_p307-nine-p318-two-p256-one-p245-three-p268-four-p248-eight.wav,2,RX81,3,0.0,0.0,4.0,87.57049330475355,mgb_normalisation,87.57049330475357,90.34149293193902,3,3.0,True,0.9981288909912108
,2024-07-01 14:05:13,sub_109,3,distance,cathedral,spatial_unmasking,5,158,0,0,_one_,talker-p268_sex-f_text-_one_.wav,p268,f,5,8,4.0,7.0,RX81,6,0.0,0.0,7.0,82.34149293193902,babble-reversed_n13_p229-three-p256-one-p307-two-p284-eight-p268-five-p248-nine.wav,2,RX81,3,0.0,0.0,4.0,87.57049330475357,mgb_normalisation,87.57049330475357,90.34149293193902,1,1.0,True,0.9374079704284668
,2024-07-01 14:05:16,sub_109,3,distance,cathedral,spatial_unmasking,5,159,0,0,_two_,talker-p268_sex-f_text-_two_.wav,p268,f,5,9,4.0,7.0,RX81,6,0.0,0.0,7.0,82.34149293193902,babble-reversed_n13_p229-nine-p307-five-p256-two-p248-three-p245-one-p268-eight.wav,2,RX81,3,0.0,0.0,4.0,87.57049330475357,mgb_normalisation,87.57049330475357,90.34149293193902,2,2.0,True,0.9258015155792236
,2024-07-01 14:05:19,sub_109,3,distance,cathedral,spatial_unmasking,5,160,0,0,_three_,talker-p268_sex-f_text-_three_.wav,p268,f,5,10,4.0,7.0,RX81,6,0.0,0.0,7.0,80.341492931939,babble-reversed_n13_p256-five-p229-one-p318-three-p248-nine-p284-eight-p268-two.wav,2,RX81,3,0.0,0.0,4.0,87.57049330475357,mgb_normalisation,87.57049330475357,90.34149293193902,3,3.0,True,0.998326539993286
,2024-07-01 14:05:25,sub_109,3,distance,cathedral,spatial_unmasking,5,161,0,0,_one_,talker-p268_sex-f_text-_one_.wav,p268,f,5,11,4.0,7.0,RX81,6,0.0,0.0,7.0,80.34149293193903,babble-reversed_n13_p318-five-p229-three-p256-four-p268-eight-p248-one-p245-nine.wav,2,RX81,3,0.0,0.0,4.0,87.57049330475357,mgb_normalisation,87.57049330475357,90.34149293193902,1,5.0,False,2.995980262756348
,2024-07-01 14:05:28,sub_109,3,distance,cathedral,spatial_unmasking,5,162,0,0,_nine_,talker-p268_sex-f_text-_nine_.wav,p268,f,5,12,4.0,7.0,RX81,6,0.0,0.0,7.0,81.34149293193902,babble-reversed_n13_p229-three-p256-nine-p318-five-p248-one-p245-eight-p284-two.wav,2,RX81,3,0.0,0.0,4.0,87.57049330475357,mgb_normalisation,87.57049330475357,90.34149293193902,9,9.0,True,1.2498857975006104
,2024-07-01 14:05:32,sub_109,3,distance,cathedral,spatial_unmasking,5,163,0,0,_three_,talker-p268_sex-f_text-_three_.wav,p268,f,5,13,4.0,7.0,RX81,6,0.0,0.0,7.0,81.34149293193902,babble-reversed_n13_p229-nine-p307-five-p256-two-p248-three-p245-one-p268-eight.wav,2,RX81,3,0.0,0.0,4.0,87.57049330475357,mgb_normalisation,87.57049330475357,90.34149293193902,3,3.0,True,0.9999306201934814
,2024-07-01 14:05:38,sub_109,3,distance,cathedral,spatial_unmasking,5,164,0,0,_eight_,talker-p268_sex-f_text-_eight_.wav,p268,f,5,14,4.0,7.0,RX81,6,0.0,0.0,7.0,80.34149293193903,babble-reversed_n13_p229-five-p318-two-p307-eight-p268-three-p248-four-p245-one.wav,2,RX81,3,0.0,0.0,4.0,87.57049330475357,mgb_normalisation,87.57049330475357,90.34149293193902,8,4.0,False,3.297682762145996
,2024-07-01 14:05:41,sub_109,3,distance,cathedral,spatial_unmasking,5,165,0,0,_two_,talker-p268_sex-f_text-_two_.wav,p268,f,5,15,4.0,7.0,RX81,6,0.0,0.0,7.0,81.34149293193902,babble-reversed_n13_p256-eight-p318-five-p307-four-p245-three-p268-one-p284-nine.wav,2,RX81,3,0.0,0.0,4.0,87.57049330475355,mgb_normalisation,87.57049330475357,90.34149293193902,2,2.0,True,0.9889836311340332
,2024-07-01 14:05:44,sub_109,3,distance,cathedral,spatial_unmasking,5,166,0,0,_six_,talker-p268_sex-f_text-_six_.wav,p268,f,5,16,4.0,7.0,RX81,6,0.0,0.0,7.0,81.341492931939,babble-reversed_n13_p256-five-p307-nine-p318-three-p284-eight-p268-one-p248-two.wav,2,RX81,3,0.0,0.0,4.0,87.57049330475357,mgb_normalisation,87.57049330475357,90.34149293193902,6,6.0,True,0.8124701976776123
,2024-07-01 14:05:48,sub_109,3,distance,cathedral,spatial_unmasking,5,167,0,0,_four_,talker-p268_sex-f_text-_four_.wav,p268,f,5,17,4.0,7.0,RX81,6,0.0,0.0,7.0,80.341492931939,babble-reversed_n13_p256-three-p318-one-p307-two-p284-nine-p268-four-p245-eight.wav,2,RX81,3,0.0,0.0,4.0,87.57049330475357,mgb_normalisation,87.57049330475357,90.34149293193902,4,9.0,False,1.312391757965088
,2024-07-01 14:05:51,sub_109,3,distance,cathedral,spatial_unmasking,5,168,0,0,_one_,talker-p268_sex-f_text-_one_.wav,p268,f,5,18,4.0,7.0,RX81,6,0.0,0.0,7.0,81.34149293193902,babble-reversed_n13_p318-five-p229-three-p256-four-p268-eight-p248-one-p245-nine.wav,2,RX81,3,0.0,0.0,4.0,87.57049330475357,mgb_normalisation,87.57049330475357,90.34149293193902,1,1.0,True,1.0567028522491455
,2024-07-01 14:05:55,sub_109,3,distance,cathedral,spatial_unmasking,5,169,0,0,_eight_,talker-p268_sex-f_text-_eight_.wav,p268,f,5,19,4.0,7.0,RX81,6,0.0,0.0,7.0,81.34149293193902,babble-reversed_n13_p229-one-p318-eight-p256-three-p268-two-p245-five-p248-nine.wav,2,RX81,3,0.0,0.0,4.0,87.57049330475355,mgb_normalisation,87.57049330475357,90.34149293193902,8,8.0,True,1.1222913265228271
,2024-07-01 14:05:58,sub_109,3,distance,cathedral,spatial_unmasking,5,170,0,0,_one_,talker-p268_sex-f_text-_one_.wav,p268,f,5,20,4.0,7.0,RX81,6,0.0,0.0,7.0,80.34149293193903,babble-reversed_n13_p229-three-p256-nine-p318-five-p248-one-p245-eight-p284-two.wav,2,RX81,3,0.0,0.0,4.0,87.57049330475357,mgb_normalisation,87.57049330475357,90.34149293193902,1,1.0,True,0.8749399185180664
,2024-07-01 14:06:01,sub_109,3,distance,cathedral,spatial_unmasking,5,171,0,0,_six_,talker-p268_sex-f_text-_six_.wav,p268,f,5,21,4.0,7.0,RX81,6,0.0,0.0,7.0,80.341492931939,babble-reversed_n13_p229-one-p318-eight-p256-three-p268-two-p245-five-p248-nine.wav,2,RX81,3,0.0,0.0,4.0,87.57049330475355,mgb_normalisation,87.57049330475357,90.34149293193902,6,6.0,True,0.9374356269836426
,2024-07-01 14:06:05,sub_109,3,distance,cathedral,spatial_unmasking,5,172,0,0,_four_,talker-p268_sex-f_text-_four_.wav,p268,f,5,22,4.0,7.0,RX81,6,0.0,0.0,7.0,79.341492931939,babble-reversed_n13_p318-five-p229-four-p256-eight-p284-one-p245-three-p248-two.wav,2,RX81,3,0.0,0.0,4.0,87.57049330475357,mgb_normalisation,87.57049330475357,90.34149293193902,4,8.0,False,1.6105756759643557
,2024-07-01 14:06:09,sub_109,3,distance,cathedral,spatial_unmasking,5,173,0,0,_two_,talker-p268_sex-f_text-_two_.wav,p268,f,5,23,4.0,7.0,RX81,6,0.0,0.0,7.0,80.34149293193903,babble-reversed_n13_p229-one-p318-eight-p256-three-p268-two-p245-five-p248-nine.wav,2,RX81,3,0.0,0.0,4.0,87.57049330475355,mgb_normalisation,87.57049330475357,90.34149293193902,2,2.0,True,0.9999310970306396
,2024-07-01 14:06:18,sub_109,3,distance,cathedral,spatial_unmasking,5,174,0,0,_eight_,talker-p268_sex-f_text-_eight_.wav,p268,f,5,24,4.0,7.0,RX81,6,0.0,0.0,7.0,80.34149293193903,babble-reversed_n13_p229-five-p318-two-p307-eight-p268-three-p248-four-p245-one.wav,2,RX81,3,0.0,0.0,4.0,87.57049330475357,mgb_normalisation,87.57049330475357,90.34149293193902,8,8.0,True,6.296453475952148
,2024-07-01 14:06:24,sub_109,3,distance,cathedral,spatial_unmasking,5,175,0,0,_five_,talker-p268_sex-f_text-_five_.wav,p268,f,5,25,4.0,7.0,RX81,6,0.0,0.0,7.0,79.34149293193902,babble-reversed_n13_p229-one-p318-nine-p256-four-p284-eight-p268-five-p245-two.wav,2,RX81,3,0.0,0.0,4.0,87.57049330475357,mgb_normalisation,87.57049330475357,90.34149293193902,5,8.0,False,4.125033617019653
,2024-07-01 14:06:27,sub_109,3,distance,cathedral,spatial_unmasking,5,176,0,0,_six_,talker-p268_sex-f_text-_six_.wav,p268,f,5,26,4.0,7.0,RX81,6,0.0,0.0,7.0,80.341492931939,babble-reversed_n13_p318-nine-p307-eight-p229-two-p284-one-p248-three-p245-five.wav,2,RX81,3,0.0,0.0,4.0,87.57049330475357,mgb_normalisation,87.57049330475357,90.34149293193902,6,6.0,True,0.8124439716339111
,2024-07-01 14:06:31,sub_109,3,distance,cathedral,spatial_unmasking,5,177,0,0,_nine_,talker-p268_sex-f_text-_nine_.wav,p268,f,5,27,4.0,7.0,RX81,6,0.0,0.0,7.0,80.341492931939,babble-reversed_n13_p229-nine-p307-five-p256-two-p248-three-p245-one-p268-eight.wav,2,RX81,3,0.0,0.0,4.0,87.57049330475357,mgb_normalisation,87.57049330475357,90.34149293193902,9,9.0,True,1.0503880977630615
,2024-07-01 14:07:56,sub_109,3,distance,cathedral,spatial_unmasking,6,178,0,0,_six_,talker-p268_sex-f_text-_six_.wav,p268,f,5,1,8.0,7.0,RX81,6,0.0,0.0,7.0,92.34149293193902,babble-reversed_n13_p229-one-p318-eight-p256-three-p268-nine-p248-five-p284-four.wav,6,RX81,7,0.0,0.0,8.0,91.58892582949886,mgb_normalisation,91.58892582949886,90.34149293193902,6,6.0,True,1.114773511886597
,2024-07-01 14:07:59,sub_109,3,distance,cathedral,spatial_unmasking,6,179,0,0,_nine_,talker-p268_sex-f_text-_nine_.wav,p268,f,5,2,8.0,7.0,RX81,6,0.0,0.0,7.0,88.34149293193902,babble-reversed_n13_p307-nine-p229-one-p256-eight-p248-four-p284-two-p268-three.wav,6,RX81,7,0.0,0.0,8.0,91.58892582949888,mgb_normalisation,91.58892582949886,90.34149293193902,9,9.0,True,0.9374322891235352
,2024-07-01 14:08:03,sub_109,3,distance,cathedral,spatial_unmasking,6,180,0,0,_four_,talker-p268_sex-f_text-_four_.wav,p268,f,5,3,8.0,7.0,RX81,6,0.0,0.0,7.0,84.341492931939,babble-reversed_n13_p229-two-p318-eight-p256-three-p268-one-p248-nine-p284-five.wav,6,RX81,7,0.0,0.0,8.0,91.58892582949886,mgb_normalisation,91.58892582949886,90.34149293193902,4,4.0,True,1.1874189376831057
,2024-07-01 14:08:07,sub_109,3,distance,cathedral,spatial_unmasking,6,181,0,0,_four_,talker-p268_sex-f_text-_four_.wav,p268,f,5,4,8.0,7.0,RX81,6,0.0,0.0,7.0,80.341492931939,babble-reversed_n13_p318-three-p307-one-p256-five-p248-nine-p245-two-p284-eight.wav,6,RX81,7,0.0,0.0,8.0,91.58892582949888,mgb_normalisation,91.58892582949886,90.34149293193902,4,1.0,False,1.4924530982971191
,2024-07-01 14:08:10,sub_109,3,distance,cathedral,spatial_unmasking,6,182,0,0,_three_,talker-p268_sex-f_text-_three_.wav,p268,f,5,5,8.0,7.0,RX81,6,0.0,0.0,7.0,82.34149293193902,babble-reversed_n13_p307-nine-p318-two-p256-one-p245-three-p268-four-p248-eight.wav,6,RX81,7,0.0,0.0,8.0,91.58892582949886,mgb_normalisation,91.58892582949886,90.34149293193902,3,3.0,True,0.8733279705047607
,2024-07-01 14:08:14,sub_109,3,distance,cathedral,spatial_unmasking,6,183,0,0,_three_,talker-p268_sex-f_text-_three_.wav,p268,f,5,6,8.0,7.0,RX81,6,0.0,0.0,7.0,82.34149293193902,babble-reversed_n13_p256-two-p307-five-p318-nine-p248-eight-p245-four-p284-one.wav,6,RX81,7,0.0,0.0,8.0,91.58892582949888,mgb_normalisation,91.58892582949886,90.34149293193902,3,3.0,True,0.87493896484375
,2024-07-01 14:08:18,sub_109,3,distance,cathedral,spatial_unmasking,6,184,0,0,_five_,talker-p268_sex-f_text-_five_.wav,p268,f,5,7,8.0,7.0,RX81,6,0.0,0.0,7.0,80.34149293193903,babble-reversed_n13_p256-eight-p318-two-p307-five-p245-four-p268-nine-p284-one.wav,6,RX81,7,0.0,0.0,8.0,91.58892582949888,mgb_normalisation,91.58892582949886,90.34149293193902,5,1.0,False,2.249779224395752
,2024-07-01 14:08:22,sub_109,3,distance,cathedral,spatial_unmasking,6,185,0,0,_eight_,talker-p268_sex-f_text-_eight_.wav,p268,f,5,8,8.0,7.0,RX81,6,0.0,0.0,7.0,81.34149293193902,babble-reversed_n13_p318-five-p256-nine-p307-eight-p248-two-p245-four-p284-three.wav,6,RX81,7,0.0,0.0,8.0,91.58892582949886,mgb_normalisation,91.58892582949886,90.34149293193902,8,8.0,True,1.3749051094055176
,2024-07-01 14:08:25,sub_109,3,distance,cathedral,spatial_unmasking,6,186,0,0,_eight_,talker-p268_sex-f_text-_eight_.wav,p268,f,5,9,8.0,7.0,RX81,6,0.0,0.0,7.0,81.34149293193902,babble-reversed_n13_p307-nine-p318-two-p256-one-p245-three-p268-four-p248-eight.wav,6,RX81,7,0.0,0.0,8.0,91.58892582949886,mgb_normalisation,91.58892582949886,90.34149293193902,8,8.0,True,0.9929864406585692
,2024-07-01 14:08:30,sub_109,3,distance,cathedral,spatial_unmasking,6,187,0,0,_four_,talker-p268_sex-f_text-_four_.wav,p268,f,5,10,8.0,7.0,RX81,6,0.0,0.0,7.0,80.341492931939,babble-reversed_n13_p256-four-p229-eight-p307-five-p248-three-p245-one-p284-two.wav,6,RX81,7,0.0,0.0,8.0,91.58892582949886,mgb_normalisation,91.58892582949886,90.34149293193902,4,4.0,True,2.495147705078125
,2024-07-01 14:08:34,sub_109,3,distance,cathedral,spatial_unmasking,6,188,0,0,_four_,talker-p268_sex-f_text-_four_.wav,p268,f,5,11,8.0,7.0,RX81,6,0.0,0.0,7.0,80.341492931939,babble-reversed_n13_p318-four-p256-five-p229-three-p284-one-p245-eight-p248-nine.wav,6,RX81,7,0.0,0.0,8.0,91.58892582949888,mgb_normalisation,91.58892582949886,90.34149293193902,4,1.0,False,1.562391996383667
,2024-07-01 14:08:38,sub_109,3,distance,cathedral,spatial_unmasking,6,189,0,0,_one_,talker-p268_sex-f_text-_one_.wav,p268,f,5,12,8.0,7.0,RX81,6,0.0,0.0,7.0,81.34149293193902,babble-reversed_n13_p229-three-p256-one-p307-two-p284-eight-p268-five-p248-nine.wav,6,RX81,7,0.0,0.0,8.0,91.58892582949888,mgb_normalisation,91.58892582949886,90.34149293193902,1,1.0,True,0.93743634223938
,2024-07-01 14:08:41,sub_109,3,distance,cathedral,spatial_unmasking,6,190,0,0,_eight_,talker-p268_sex-f_text-_eight_.wav,p268,f,5,13,8.0,7.0,RX81,6,0.0,0.0,7.0,81.34149293193902,babble-reversed_n13_p307-nine-p318-two-p256-one-p245-three-p268-four-p248-eight.wav,6,RX81,7,0.0,0.0,8.0,91.58892582949886,mgb_normalisation,91.58892582949886,90.34149293193902,8,8.0,True,1.063772439956665
,2024-07-01 14:08:48,sub_109,3,distance,cathedral,spatial_unmasking,6,191,0,0,_nine_,talker-p268_sex-f_text-_nine_.wav,p268,f,5,14,8.0,7.0,RX81,6,0.0,0.0,7.0,80.341492931939,babble-reversed_n13_p318-one-p307-two-p256-eight-p284-three-p248-five-p245-four.wav,6,RX81,7,0.0,0.0,8.0,91.58892582949888,mgb_normalisation,91.58892582949886,90.34149293193902,9,9.0,True,4.421605348587036
,2024-07-01 14:08:51,sub_109,3,distance,cathedral,spatial_unmasking,6,192,0,0,_two_,talker-p268_sex-f_text-_two_.wav,p268,f,5,15,8.0,7.0,RX81,6,0.0,0.0,7.0,80.34149293193903,babble-reversed_n13_p307-nine-p318-two-p256-one-p245-three-p268-four-p248-eight.wav,6,RX81,7,0.0,0.0,8.0,91.58892582949886,mgb_normalisation,91.58892582949886,90.34149293193902,2,2.0,True,1.1133692264556885
,2024-07-01 14:08:55,sub_109,3,distance,cathedral,spatial_unmasking,6,193,0,0,_one_,talker-p268_sex-f_text-_one_.wav,p268,f,5,16,8.0,7.0,RX81,6,0.0,0.0,7.0,79.34149293193902,babble-reversed_n13_p229-one-p318-eight-p256-three-p268-nine-p248-five-p284-four.wav,6,RX81,7,0.0,0.0,8.0,91.58892582949886,mgb_normalisation,91.58892582949886,90.34149293193902,1,1.0,True,1.184391736984253
,2024-07-01 14:08:58,sub_109,3,distance,cathedral,spatial_unmasking,6,194,0,0,_six_,talker-p268_sex-f_text-_six_.wav,p268,f,5,17,8.0,7.0,RX81,6,0.0,0.0,7.0,79.341492931939,babble-reversed_n13_p318-five-p229-three-p256-four-p268-eight-p248-one-p245-nine.wav,6,RX81,7,0.0,0.0,8.0,91.58892582949888,mgb_normalisation,91.58892582949886,90.34149293193902,6,6.0,True,0.9374358654022216
,2024-07-01 14:09:03,sub_109,3,distance,cathedral,spatial_unmasking,6,195,0,0,_nine_,talker-p268_sex-f_text-_nine_.wav,p268,f,5,18,8.0,7.0,RX81,6,0.0,0.0,7.0,78.34149293193902,babble-reversed_n13_p229-nine-p307-five-p256-two-p248-three-p245-one-p268-eight.wav,6,RX81,7,0.0,0.0,8.0,91.58892582949886,mgb_normalisation,91.58892582949886,90.34149293193902,9,9.0,True,2.43733024597168
,2024-07-01 14:09:06,sub_109,3,distance,cathedral,spatial_unmasking,6,196,0,0,_six_,talker-p268_sex-f_text-_six_.wav,p268,f,5,19,8.0,7.0,RX81,6,0.0,0.0,7.0,78.34149293193902,babble-reversed_n13_p318-three-p307-one-p256-five-p248-nine-p245-two-p284-eight.wav,6,RX81,7,0.0,0.0,8.0,91.58892582949888,mgb_normalisation,91.58892582949886,90.34149293193902,6,6.0,True,0.862175464630127
,2024-07-01 14:09:10,sub_109,3,distance,cathedral,spatial_unmasking,6,197,0,0,_six_,talker-p268_sex-f_text-_six_.wav,p268,f,5,20,8.0,7.0,RX81,6,0.0,0.0,7.0,77.341492931939,babble-reversed_n13_p256-eight-p229-three-p307-nine-p245-five-p248-four-p268-two.wav,6,RX81,7,0.0,0.0,8.0,91.58892582949886,mgb_normalisation,91.58892582949886,90.34149293193902,6,6.0,True,0.9987828731536864
,2024-07-01 14:09:14,sub_109,3,distance,cathedral,spatial_unmasking,6,198,0,0,_eight_,talker-p268_sex-f_text-_eight_.wav,p268,f,5,21,8.0,7.0,RX81,6,0.0,0.0,7.0,77.34149293193903,babble-reversed_n13_p318-nine-p307-eight-p229-two-p284-one-p248-three-p245-five.wav,6,RX81,7,0.0,0.0,8.0,91.58892582949886,mgb_normalisation,91.58892582949886,90.34149293193902,8,1.0,False,1.6248877048492432
,2024-07-01 14:09:20,sub_109,3,distance,cathedral,spatial_unmasking,6,199,0,0,_eight_,talker-p268_sex-f_text-_eight_.wav,p268,f,5,22,8.0,7.0,RX81,6,0.0,0.0,7.0,78.34149293193902,babble-reversed_n13_p256-four-p307-eight-p318-two-p248-three-p284-nine-p268-one.wav,6,RX81,7,0.0,0.0,8.0,91.58892582949888,mgb_normalisation,91.58892582949886,90.34149293193902,8,1.0,False,3.9342174530029297
,2024-07-01 14:09:24,sub_109,3,distance,cathedral,spatial_unmasking,6,200,0,0,_nine_,talker-p268_sex-f_text-_nine_.wav,p268,f,5,23,8.0,7.0,RX81,6,0.0,0.0,7.0,79.341492931939,babble-reversed_n13_p307-five-p229-three-p318-nine-p245-four-p268-eight-p284-two.wav,6,RX81,7,0.0,0.0,8.0,91.58892582949886,mgb_normalisation,91.58892582949886,90.34149293193902,9,9.0,True,1.7498791217803955
,2024-07-01 14:09:28,sub_109,3,distance,cathedral,spatial_unmasking,6,201,0,0,_five_,talker-p268_sex-f_text-_five_.wav,p268,f,5,24,8.0,7.0,RX81,6,0.0,0.0,7.0,79.34149293193902,babble-reversed_n13_p229-two-p256-three-p318-eight-p284-five-p268-four-p245-one.wav,6,RX81,7,0.0,0.0,8.0,91.58892582949888,mgb_normalisation,91.58892582949886,90.34149293193902,5,5.0,True,1.7498784065246582
,2024-07-01 14:09:32,sub_109,3,distance,cathedral,spatial_unmasking,6,202,0,0,_two_,talker-p268_sex-f_text-_two_.wav,p268,f,5,25,8.0,7.0,RX81,6,0.0,0.0,7.0,78.34149293193902,babble-reversed_n13_p229-three-p256-nine-p318-five-p248-one-p245-eight-p284-two.wav,6,RX81,7,0.0,0.0,8.0,91.58892582949888,mgb_normalisation,91.58892582949886,90.34149293193902,2,2.0,True,1.0624268054962158
,2024-07-01 14:09:35,sub_109,3,distance,cathedral,spatial_unmasking,6,203,0,0,_one_,talker-p268_sex-f_text-_one_.wav,p268,f,5,26,8.0,7.0,RX81,6,0.0,0.0,7.0,78.34149293193902,babble-reversed_n13_p229-one-p318-nine-p256-four-p284-eight-p268-five-p245-two.wav,6,RX81,7,0.0,0.0,8.0,91.58892582949886,mgb_normalisation,91.58892582949886,90.34149293193902,1,1.0,True,0.9325129985809326
,2024-07-01 14:09:42,sub_109,3,distance,cathedral,spatial_unmasking,6,204,0,0,_five_,talker-p268_sex-f_text-_five_.wav,p268,f,5,27,8.0,7.0,RX81,6,0.0,0.0,7.0,77.34149293193902,babble-reversed_n13_p307-two-p229-one-p256-five-p248-nine-p284-three-p268-eight.wav,6,RX81,7,0.0,0.0,8.0,91.58892582949888,mgb_normalisation,91.58892582949886,90.34149293193902,5,5.0,True,3.922276973724365
,2024-07-01 14:09:45,sub_109,3,distance,cathedral,spatial_unmasking,6,205,0,0,_eight_,talker-p268_sex-f_text-_eight_.wav,p268,f,5,28,8.0,7.0,RX81,6,0.0,0.0,7.0,77.34149293193903,babble-reversed_n13_p229-eight-p256-nine-p318-four-p245-three-p268-five-p284-two.wav,6,RX81,7,0.0,0.0,8.0,91.58892582949886,mgb_normalisation,91.58892582949886,90.34149293193902,8,8.0,True,1.3736252784729004
,2024-07-01 14:09:50,sub_109,3,distance,cathedral,spatial_unmasking,6,206,0,0,_eight_,talker-p268_sex-f_text-_eight_.wav,p268,f,5,29,8.0,7.0,RX81,6,0.0,0.0,7.0,76.34149293193902,babble-reversed_n13_p229-one-p318-eight-p256-three-p268-two-p245-five-p248-nine.wav,6,RX81,7,0.0,0.0,8.0,91.58892582949886,mgb_normalisation,91.58892582949886,90.34149293193902,8,4.0,False,2.372869968414306
,2024-07-01 14:09:55,sub_109,3,distance,cathedral,spatial_unmasking,6,207,0,0,_nine_,talker-p268_sex-f_text-_nine_.wav,p268,f,5,30,8.0,7.0,RX81,6,0.0,0.0,7.0,77.34149293193902,babble-reversed_n13_p307-two-p256-four-p318-three-p284-eight-p248-five-p245-nine.wav,6,RX81,7,0.0,0.0,8.0,91.58892582949888,mgb_normalisation,91.58892582949886,90.34149293193902,9,9.0,True,2.7453224658966064
,2024-07-01 14:09:59,sub_109,3,distance,cathedral,spatial_unmasking,6,208,0,0,_five_,talker-p268_sex-f_text-_five_.wav,p268,f,5,31,8.0,7.0,RX81,6,0.0,0.0,7.0,77.34149293193902,babble-reversed_n13_p256-eight-p229-three-p307-nine-p245-five-p248-four-p268-two.wav,6,RX81,7,0.0,0.0,8.0,91.58892582949886,mgb_normalisation,91.58892582949886,90.34149293193902,5,1.0,False,1.6873831748962402
,2024-07-01 14:10:03,sub_109,3,distance,cathedral,spatial_unmasking,6,209,0,0,_three_,talker-p268_sex-f_text-_three_.wav,p268,f,5,32,8.0,7.0,RX81,6,0.0,0.0,7.0,78.34149293193902,babble-reversed_n13_p229-nine-p256-four-p318-three-p268-eight-p248-two-p284-five.wav,6,RX81,7,0.0,0.0,8.0,91.58892582949888,mgb_normalisation,91.58892582949886,90.34149293193902,3,3.0,True,1.4374008178710938
,2024-07-01 14:10:07,sub_109,3,distance,cathedral,spatial_unmasking,6,210,0,0,_one_,talker-p268_sex-f_text-_one_.wav,p268,f,5,33,8.0,7.0,RX81,6,0.0,0.0,7.0,78.34149293193902,babble-reversed_n13_p256-eight-p318-five-p307-four-p245-three-p268-one-p284-nine.wav,6,RX81,7,0.0,0.0,8.0,91.58892582949886,mgb_normalisation,91.58892582949886,90.34149293193902,1,1.0,True,0.9971966743469238
,2024-07-01 14:10:11,sub_109,3,distance,cathedral,spatial_unmasking,6,211,0,0,_three_,talker-p268_sex-f_text-_three_.wav,p268,f,5,34,8.0,7.0,RX81,6,0.0,0.0,7.0,77.341492931939,babble-reversed_n13_p318-nine-p307-eight-p229-two-p284-one-p248-three-p245-five.wav,6,RX81,7,0.0,0.0,8.0,91.58892582949886,mgb_normalisation,91.58892582949886,90.34149293193902,3,1.0,False,1.8085901737213133
,2024-07-01 14:10:15,sub_109,3,distance,cathedral,spatial_unmasking,6,212,0,0,_four_,talker-p268_sex-f_text-_four_.wav,p268,f,5,35,8.0,7.0,RX81,6,0.0,0.0,7.0,78.34149293193902,babble-reversed_n13_p307-nine-p318-two-p256-one-p245-three-p268-four-p248-eight.wav,6,RX81,7,0.0,0.0,8.0,91.58892582949886,mgb_normalisation,91.58892582949886,90.34149293193902,4,8.0,False,2.122528553009033
,2024-07-01 14:10:19,sub_109,3,distance,cathedral,spatial_unmasking,6,213,0,0,_three_,talker-p268_sex-f_text-_three_.wav,p268,f,5,36,8.0,7.0,RX81,6,0.0,0.0,7.0,79.341492931939,babble-reversed_n13_p229-three-p307-one-p318-two-p245-eight-p268-five-p284-four.wav,6,RX81,7,0.0,0.0,8.0,91.58892582949888,mgb_normalisation,91.58892582949886,90.34149293193902,3,4.0,False,1.624887466430664
,2024-07-01 14:10:23,sub_109,3,distance,cathedral,spatial_unmasking,6,214,0,0,_eight_,talker-p268_sex-f_text-_eight_.wav,p268,f,5,37,8.0,7.0,RX81,6,0.0,0.0,7.0,80.34149293193903,babble-reversed_n13_p229-nine-p256-four-p318-three-p268-eight-p248-two-p284-five.wav,6,RX81,7,0.0,0.0,8.0,91.58892582949888,mgb_normalisation,91.58892582949886,90.34149293193902,8,8.0,True,1.624887466430664
,2024-07-01 14:10:27,sub_109,3,distance,cathedral,spatial_unmasking,6,215,0,0,_eight_,talker-p268_sex-f_text-_eight_.wav,p268,f,5,38,8.0,7.0,RX81,6,0.0,0.0,7.0,80.34149293193903,babble-reversed_n13_p256-two-p307-five-p318-nine-p248-eight-p245-four-p284-one.wav,6,RX81,7,0.0,0.0,8.0,91.58892582949888,mgb_normalisation,91.58892582949886,90.34149293193902,8,1.0,False,1.062448263168335
,2024-07-01 14:10:33,sub_109,3,distance,cathedral,spatial_unmasking,6,216,0,0,_five_,talker-p268_sex-f_text-_five_.wav,p268,f,5,39,8.0,7.0,RX81,6,0.0,0.0,7.0,81.34149293193902,babble-reversed_n13_p307-five-p229-two-p318-four-p248-three-p245-nine-p268-eight.wav,6,RX81,7,0.0,0.0,8.0,91.58892582949886,mgb_normalisation,91.58892582949886,90.34149293193902,5,9.0,False,4.0475733280181885
,2024-07-01 14:10:37,sub_109,3,distance,cathedral,spatial_unmasking,6,217,0,0,_two_,talker-p268_sex-f_text-_two_.wav,p268,f,5,40,8.0,7.0,RX81,6,0.0,0.0,7.0,82.34149293193902,babble-reversed_n13_p256-three-p318-two-p229-nine-p248-four-p284-one-p268-eight.wav,6,RX81,7,0.0,0.0,8.0,91.58892582949886,mgb_normalisation,91.58892582949886,90.34149293193902,2,2.0,True,1.1160666942596436
,2024-07-01 14:10:41,sub_109,3,distance,cathedral,spatial_unmasking,6,218,0,0,_two_,talker-p268_sex-f_text-_two_.wav,p268,f,5,41,8.0,7.0,RX81,6,0.0,0.0,7.0,82.34149293193902,babble-reversed_n13_p229-five-p256-three-p318-nine-p248-two-p284-four-p268-one.wav,6,RX81,7,0.0,0.0,8.0,91.58892582949888,mgb_normalisation,91.58892582949886,90.34149293193902,2,2.0,True,1.3685874938964844
,2024-07-01 14:12:11,sub_109,3,distance,cathedral,spatial_unmasking,7,219,0,0,_one_,talker-p268_sex-f_text-_one_.wav,p268,f,5,1,12.0,7.0,RX81,6,0.0,0.0,7.0,92.34149293193902,babble-reversed_n13_p256-five-p307-nine-p318-three-p284-eight-p268-one-p248-two.wav,10,RX81,11,0.0,0.0,12.0,93.00003341222715,mgb_normalisation,93.00003341222715,90.34149293193902,1,1.0,True,0.8071954250335693
,2024-07-01 14:12:14,sub_109,3,distance,cathedral,spatial_unmasking,7,220,0,0,_two_,talker-p268_sex-f_text-_two_.wav,p268,f,5,2,12.0,7.0,RX81,6,0.0,0.0,7.0,88.34149293193903,babble-reversed_n13_p229-two-p307-five-p318-four-p284-one-p248-nine-p268-eight.wav,10,RX81,11,0.0,0.0,12.0,93.00003341222718,mgb_normalisation,93.00003341222715,90.34149293193902,2,2.0,True,0.9374356269836426
,2024-07-01 14:12:18,sub_109,3,distance,cathedral,spatial_unmasking,7,221,0,0,_five_,talker-p268_sex-f_text-_five_.wav,p268,f,5,3,12.0,7.0,RX81,6,0.0,0.0,7.0,84.341492931939,babble-reversed_n13_p307-two-p229-one-p256-five-p248-nine-p284-three-p268-eight.wav,10,RX81,11,0.0,0.0,12.0,93.00003341222718,mgb_normalisation,93.00003341222715,90.34149293193902,5,5.0,True,0.87493896484375
,2024-07-01 14:12:21,sub_109,3,distance,cathedral,spatial_unmasking,7,222,0,0,_one_,talker-p268_sex-f_text-_one_.wav,p268,f,5,4,12.0,7.0,RX81,6,0.0,0.0,7.0,80.34149293193903,babble-reversed_n13_p307-two-p256-four-p318-three-p284-eight-p248-five-p245-nine.wav,10,RX81,11,0.0,0.0,12.0,93.00003341222718,mgb_normalisation,93.00003341222715,90.34149293193902,1,1.0,True,0.9338297843933104
,2024-07-01 14:12:25,sub_109,3,distance,cathedral,spatial_unmasking,7,223,0,0,_four_,talker-p268_sex-f_text-_four_.wav,p268,f,5,5,12.0,7.0,RX81,6,0.0,0.0,7.0,76.34149293193902,babble-reversed_n13_p318-one-p307-two-p256-eight-p284-three-p248-five-p245-four.wav,10,RX81,11,0.0,0.0,12.0,93.00003341222718,mgb_normalisation,93.00003341222715,90.34149293193902,4,8.0,False,1.6873562335968018
,2024-07-01 14:12:28,sub_109,3,distance,cathedral,spatial_unmasking,7,224,0,0,_six_,talker-p268_sex-f_text-_six_.wav,p268,f,5,6,12.0,7.0,RX81,6,0.0,0.0,7.0,78.34149293193902,babble-reversed_n13_p318-five-p229-four-p256-eight-p284-one-p245-three-p248-two.wav,10,RX81,11,0.0,0.0,12.0,93.00003341222718,mgb_normalisation,93.00003341222715,90.34149293193902,6,6.0,True,0.8124442100524902
,2024-07-01 14:12:32,sub_109,3,distance,cathedral,spatial_unmasking,7,225,0,0,_six_,talker-p268_sex-f_text-_six_.wav,p268,f,5,7,12.0,7.0,RX81,6,0.0,0.0,7.0,78.34149293193902,babble-reversed_n13_p318-one-p307-two-p256-eight-p284-three-p248-five-p245-four.wav,10,RX81,11,0.0,0.0,12.0,93.00003341222718,mgb_normalisation,93.00003341222715,90.34149293193902,6,6.0,True,0.9242782592773438
,2024-07-01 14:12:38,sub_109,3,distance,cathedral,spatial_unmasking,7,226,0,0,_five_,talker-p268_sex-f_text-_five_.wav,p268,f,5,8,12.0,7.0,RX81,6,0.0,0.0,7.0,76.34149293193902,babble-reversed_n13_p256-three-p318-two-p229-nine-p248-four-p284-one-p268-eight.wav,10,RX81,11,0.0,0.0,12.0,93.00003341222715,mgb_normalisation,93.00003341222715,90.34149293193902,5,1.0,False,3.735302448272705
,2024-07-01 14:12:42,sub_109,3,distance,cathedral,spatial_unmasking,7,227,0,0,_nine_,talker-p268_sex-f_text-_nine_.wav,p268,f,5,9,12.0,7.0,RX81,6,0.0,0.0,7.0,77.34149293193902,babble-reversed_n13_p229-nine-p256-four-p318-three-p268-eight-p248-two-p284-five.wav,10,RX81,11,0.0,0.0,12.0,93.00003341222718,mgb_normalisation,93.00003341222715,90.34149293193902,9,3.0,False,2.0465328693389893
,2024-07-01 14:12:46,sub_109,3,distance,cathedral,spatial_unmasking,7,228,0,0,_three_,talker-p268_sex-f_text-_three_.wav,p268,f,5,10,12.0,7.0,RX81,6,0.0,0.0,7.0,78.34149293193902,babble-reversed_n13_p229-five-p256-three-p318-nine-p248-two-p284-four-p268-one.wav,10,RX81,11,0.0,0.0,12.0,93.00003341222718,mgb_normalisation,93.00003341222715,90.34149293193902,3,3.0,True,1.2432794570922852
,2024-07-01 14:12:51,sub_109,3,distance,cathedral,spatial_unmasking,7,229,0,0,_four_,talker-p268_sex-f_text-_four_.wav,p268,f,5,11,12.0,7.0,RX81,6,0.0,0.0,7.0,78.34149293193902,babble-reversed_n13_p307-two-p229-one-p256-five-p248-nine-p284-three-p268-eight.wav,10,RX81,11,0.0,0.0,12.0,93.00003341222718,mgb_normalisation,93.00003341222715,90.34149293193902,4,4.0,True,2.3707079887390137
,2024-07-01 14:12:54,sub_109,3,distance,cathedral,spatial_unmasking,7,230,0,0,_two_,talker-p268_sex-f_text-_two_.wav,p268,f,5,12,12.0,7.0,RX81,6,0.0,0.0,7.0,77.34149293193903,babble-reversed_n13_p229-three-p256-nine-p318-five-p248-one-p245-eight-p284-two.wav,10,RX81,11,0.0,0.0,12.0,93.00003341222718,mgb_normalisation,93.00003341222715,90.34149293193902,2,2.0,True,0.999932050704956
,2024-07-01 14:13:04,sub_109,3,distance,cathedral,spatial_unmasking,7,231,0,0,_one_,talker-p268_sex-f_text-_one_.wav,p268,f,5,13,12.0,7.0,RX81,6,0.0,0.0,7.0,77.34149293193902,babble-reversed_n13_p318-five-p229-three-p256-four-p268-eight-p248-one-p245-nine.wav,10,RX81,11,0.0,0.0,12.0,93.00003341222718,mgb_normalisation,93.00003341222715,90.34149293193902,1,9.0,False,7.79598593711853
,2024-07-01 14:13:07,sub_109,3,distance,cathedral,spatial_unmasking,7,232,0,0,_eight_,talker-p268_sex-f_text-_eight_.wav,p268,f,5,14,12.0,7.0,RX81,6,0.0,0.0,7.0,78.34149293193902,babble-reversed_n13_p229-one-p318-nine-p256-four-p284-eight-p268-five-p245-two.wav,10,RX81,11,0.0,0.0,12.0,93.00003341222715,mgb_normalisation,93.00003341222715,90.34149293193902,8,8.0,True,0.9999310970306396
,2024-07-01 14:13:11,sub_109,3,distance,cathedral,spatial_unmasking,7,233,0,0,_four_,talker-p268_sex-f_text-_four_.wav,p268,f,5,15,12.0,7.0,RX81,6,0.0,0.0,7.0,78.34149293193902,babble-reversed_n13_p256-four-p229-two-p318-five-p268-one-p248-eight-p245-three.wav,10,RX81,11,0.0,0.0,12.0,93.00003341222715,mgb_normalisation,93.00003341222715,90.34149293193902,4,3.0,False,1.117793321609497
,2024-07-01 14:13:15,sub_109,3,distance,cathedral,spatial_unmasking,7,234,0,0,_nine_,talker-p268_sex-f_text-_nine_.wav,p268,f,5,16,12.0,7.0,RX81,6,0.0,0.0,7.0,79.341492931939,babble-reversed_n13_p256-four-p229-eight-p307-five-p248-three-p245-one-p284-two.wav,10,RX81,11,0.0,0.0,12.0,93.00003341222715,mgb_normalisation,93.00003341222715,90.34149293193902,9,2.0,False,1.686995506286621
,2024-07-01 14:13:19,sub_109,3,distance,cathedral,spatial_unmasking,7,235,0,0,_three_,talker-p268_sex-f_text-_three_.wav,p268,f,5,17,12.0,7.0,RX81,6,0.0,0.0,7.0,80.341492931939,babble-reversed_n13_p229-five-p256-one-p318-three-p248-nine-p268-four-p284-eight.wav,10,RX81,11,0.0,0.0,12.0,93.00003341222715,mgb_normalisation,93.00003341222715,90.34149293193902,3,3.0,True,1.124921798706055
,2024-07-01 14:13:25,sub_109,3,distance,cathedral,spatial_unmasking,7,236,0,0,_four_,talker-p268_sex-f_text-_four_.wav,p268,f,5,18,12.0,7.0,RX81,6,0.0,0.0,7.0,80.341492931939,babble-reversed_n13_p229-five-p318-three-p307-two-p245-four-p284-nine-p248-eight.wav,10,RX81,11,0.0,0.0,12.0,93.00003341222715,mgb_normalisation,93.00003341222715,90.34149293193902,4,1.0,False,3.4997758865356445
,2024-07-01 14:13:29,sub_109,3,distance,cathedral,spatial_unmasking,7,237,0,0,_five_,talker-p268_sex-f_text-_five_.wav,p268,f,5,19,12.0,7.0,RX81,6,0.0,0.0,7.0,81.34149293193902,babble-reversed_n13_p318-four-p256-five-p229-three-p284-one-p245-eight-p248-nine.wav,10,RX81,11,0.0,0.0,12.0,93.00003341222718,mgb_normalisation,93.00003341222715,90.34149293193902,5,5.0,True,1.499891757965088
,2024-07-01 14:13:32,sub_109,3,distance,cathedral,spatial_unmasking,7,238,0,0,_six_,talker-p268_sex-f_text-_six_.wav,p268,f,5,20,12.0,7.0,RX81,6,0.0,0.0,7.0,81.341492931939,babble-reversed_n13_p256-four-p307-eight-p318-two-p248-three-p284-nine-p268-one.wav,10,RX81,11,0.0,0.0,12.0,93.00003341222718,mgb_normalisation,93.00003341222715,90.34149293193902,6,6.0,True,0.7377464771270752
,2024-07-01 14:13:35,sub_109,3,distance,cathedral,spatial_unmasking,7,239,0,0,_six_,talker-p268_sex-f_text-_six_.wav,p268,f,5,21,12.0,7.0,RX81,6,0.0,0.0,7.0,80.341492931939,babble-reversed_n13_p229-nine-p256-four-p318-three-p268-eight-p248-two-p284-five.wav,10,RX81,11,0.0,0.0,12.0,93.00003341222718,mgb_normalisation,93.00003341222715,90.34149293193902,6,6.0,True,0.8124418258666992
,2024-07-01 14:13:38,sub_109,3,distance,cathedral,spatial_unmasking,7,240,0,0,_two_,talker-p268_sex-f_text-_two_.wav,p268,f,5,22,12.0,7.0,RX81,6,0.0,0.0,7.0,80.34149293193903,babble-reversed_n13_p318-four-p256-five-p229-three-p284-one-p245-eight-p248-nine.wav,10,RX81,11,0.0,0.0,12.0,93.00003341222718,mgb_normalisation,93.00003341222715,90.34149293193902,2,2.0,True,0.9999306201934814
,2024-07-01 14:13:42,sub_109,3,distance,cathedral,spatial_unmasking,7,241,0,0,_two_,talker-p268_sex-f_text-_two_.wav,p268,f,5,23,12.0,7.0,RX81,6,0.0,0.0,7.0,79.34149293193902,babble-reversed_n13_p256-two-p307-five-p318-nine-p248-eight-p245-four-p284-one.wav,10,RX81,11,0.0,0.0,12.0,93.00003341222718,mgb_normalisation,93.00003341222715,90.34149293193902,2,2.0,True,0.9265320301055908
,2024-07-01 14:13:45,sub_109,3,distance,cathedral,spatial_unmasking,7,242,0,0,_nine_,talker-p268_sex-f_text-_nine_.wav,p268,f,5,24,12.0,7.0,RX81,6,0.0,0.0,7.0,79.341492931939,babble-reversed_n13_p256-three-p318-one-p307-two-p284-nine-p268-four-p245-eight.wav,10,RX81,11,0.0,0.0,12.0,93.00003341222718,mgb_normalisation,93.00003341222715,90.34149293193902,9,9.0,True,1.311594009399414
,2024-07-01 14:13:50,sub_109,3,distance,cathedral,spatial_unmasking,7,243,0,0,_one_,talker-p268_sex-f_text-_one_.wav,p268,f,5,25,12.0,7.0,RX81,6,0.0,0.0,7.0,78.34149293193902,babble-reversed_n13_p318-three-p229-one-p256-eight-p245-five-p248-four-p284-nine.wav,10,RX81,11,0.0,0.0,12.0,93.00003341222718,mgb_normalisation,93.00003341222715,90.34149293193902,1,8.0,False,2.1248528957366943
,2024-07-01 14:13:54,sub_109,3,distance,cathedral,spatial_unmasking,7,244,0,0,_one_,talker-p268_sex-f_text-_one_.wav,p268,f,5,26,12.0,7.0,RX81,6,0.0,0.0,7.0,79.34149293193902,babble-reversed_n13_p229-eight-p256-nine-p318-four-p245-three-p268-five-p284-two.wav,10,RX81,11,0.0,0.0,12.0,93.00003341222715,mgb_normalisation,93.00003341222715,90.34149293193902,1,3.0,False,1.312408447265625
,2024-07-01 14:13:57,sub_109,3,distance,cathedral,spatial_unmasking,7,245,0,0,_nine_,talker-p268_sex-f_text-_nine_.wav,p268,f,5,27,12.0,7.0,RX81,6,0.0,0.0,7.0,80.341492931939,babble-reversed_n13_p256-three-p318-one-p307-two-p284-nine-p268-four-p245-eight.wav,10,RX81,11,0.0,0.0,12.0,93.00003341222718,mgb_normalisation,93.00003341222715,90.34149293193902,9,9.0,True,1.314835786819458
,2024-07-01 14:14:01,sub_109,3,distance,cathedral,spatial_unmasking,7,246,0,0,_six_,talker-p268_sex-f_text-_six_.wav,p268,f,5,28,12.0,7.0,RX81,6,0.0,0.0,7.0,80.341492931939,babble-reversed_n13_p307-one-p318-five-p229-four-p268-eight-p284-two-p245-three.wav,10,RX81,11,0.0,0.0,12.0,93.00003341222715,mgb_normalisation,93.00003341222715,90.34149293193902,6,6.0,True,0.997467041015625
,2024-07-01 14:14:04,sub_109,3,distance,cathedral,spatial_unmasking,7,247,0,0,_six_,talker-p268_sex-f_text-_six_.wav,p268,f,5,29,12.0,7.0,RX81,6,0.0,0.0,7.0,79.341492931939,babble-reversed_n13_p256-eight-p229-three-p307-nine-p245-five-p248-four-p268-two.wav,10,RX81,11,0.0,0.0,12.0,93.00003341222715,mgb_normalisation,93.00003341222715,90.34149293193902,6,6.0,True,0.8124451637268066
,2024-07-01 14:14:08,sub_109,3,distance,cathedral,spatial_unmasking,7,248,0,0,_one_,talker-p268_sex-f_text-_one_.wav,p268,f,5,30,12.0,7.0,RX81,6,0.0,0.0,7.0,79.34149293193902,babble-reversed_n13_p256-eight-p229-three-p307-nine-p245-five-p248-four-p268-two.wav,10,RX81,11,0.0,0.0,12.0,93.00003341222715,mgb_normalisation,93.00003341222715,90.34149293193902,1,1.0,True,1.999863147735596
,2024-07-01 14:14:13,sub_109,3,distance,cathedral,spatial_unmasking,7,249,0,0,_four_,talker-p268_sex-f_text-_four_.wav,p268,f,5,31,12.0,7.0,RX81,6,0.0,0.0,7.0,78.34149293193902,babble-reversed_n13_p307-two-p229-one-p256-five-p248-nine-p284-three-p268-eight.wav,10,RX81,11,0.0,0.0,12.0,93.00003341222718,mgb_normalisation,93.00003341222715,90.34149293193902,4,4.0,True,2.237304449081421
,2024-07-01 14:14:17,sub_109,3,distance,cathedral,spatial_unmasking,7,250,0,0,_three_,talker-p268_sex-f_text-_three_.wav,p268,f,5,32,12.0,7.0,RX81,6,0.0,0.0,7.0,78.34149293193902,babble-reversed_n13_p307-two-p229-one-p256-five-p248-nine-p284-three-p268-eight.wav,10,RX81,11,0.0,0.0,12.0,93.00003341222718,mgb_normalisation,93.00003341222715,90.34149293193902,3,4.0,False,1.2967276573181152
,2024-07-01 14:14:21,sub_109,3,distance,cathedral,spatial_unmasking,7,251,0,0,_four_,talker-p268_sex-f_text-_four_.wav,p268,f,5,33,12.0,7.0,RX81,6,0.0,0.0,7.0,79.341492931939,babble-reversed_n13_p229-one-p318-eight-p256-three-p268-nine-p248-five-p284-four.wav,10,RX81,11,0.0,0.0,12.0,93.00003341222715,mgb_normalisation,93.00003341222715,90.34149293193902,4,2.0,False,1.4362266063690186
,2024-07-01 14:14:24,sub_109,3,distance,cathedral,spatial_unmasking,7,252,0,0,_two_,talker-p268_sex-f_text-_two_.wav,p268,f,5,34,12.0,7.0,RX81,6,0.0,0.0,7.0,80.34149293193903,babble-reversed_n13_p229-nine-p318-one-p307-two-p248-eight-p245-five-p284-four.wav,10,RX81,11,0.0,0.0,12.0,93.00003341222718,mgb_normalisation,93.00003341222715,90.34149293193902,2,2.0,True,1.1874151229858398
,2024-07-01 14:14:28,sub_109,3,distance,cathedral,spatial_unmasking,7,253,0,0,_three_,talker-p268_sex-f_text-_three_.wav,p268,f,5,35,12.0,7.0,RX81,6,0.0,0.0,7.0,80.341492931939,babble-reversed_n13_p229-nine-p307-five-p256-two-p248-three-p245-one-p268-eight.wav,10,RX81,11,0.0,0.0,12.0,93.00003341222715,mgb_normalisation,93.00003341222715,90.34149293193902,3,3.0,True,1.937428951263428
,2024-07-01 14:14:32,sub_109,3,distance,cathedral,spatial_unmasking,7,254,0,0,_eight_,talker-p268_sex-f_text-_eight_.wav,p268,f,5,36,12.0,7.0,RX81,6,0.0,0.0,7.0,79.34149293193903,babble-reversed_n13_p307-four-p318-three-p256-eight-p284-two-p245-nine-p248-five.wav,10,RX81,11,0.0,0.0,12.0,93.00003341222715,mgb_normalisation,93.00003341222715,90.34149293193902,8,8.0,True,1.4272589683532717
,2024-07-01 14:14:36,sub_109,3,distance,cathedral,spatial_unmasking,7,255,0,0,_three_,talker-p268_sex-f_text-_three_.wav,p268,f,5,37,12.0,7.0,RX81,6,0.0,0.0,7.0,79.341492931939,babble-reversed_n13_p318-five-p229-three-p256-four-p268-eight-p248-one-p245-nine.wav,10,RX81,11,0.0,0.0,12.0,93.00003341222718,mgb_normalisation,93.00003341222715,90.34149293193902,3,3.0,True,1.430864334106445
,2024-07-01 14:14:40,sub_109,3,distance,cathedral,spatial_unmasking,7,256,0,0,_three_,talker-p268_sex-f_text-_three_.wav,p268,f,5,38,12.0,7.0,RX81,6,0.0,0.0,7.0,78.34149293193902,babble-reversed_n13_p318-five-p229-four-p256-eight-p284-one-p245-three-p248-two.wav,10,RX81,11,0.0,0.0,12.0,93.00003341222718,mgb_normalisation,93.00003341222715,90.34149293193902,3,3.0,True,1.124922513961792
,2024-07-01 14:14:44,sub_109,3,distance,cathedral,spatial_unmasking,7,257,0,0,_three_,talker-p268_sex-f_text-_three_.wav,p268,f,5,39,12.0,7.0,RX81,6,0.0,0.0,7.0,78.34149293193902,babble-reversed_n13_p256-five-p307-nine-p318-three-p284-eight-p268-one-p248-two.wav,10,RX81,11,0.0,0.0,12.0,93.00003341222715,mgb_normalisation,93.00003341222715,90.34149293193902,3,3.0,True,2.1248533725738525
,2024-07-01 14:14:48,sub_109,3,distance,cathedral,spatial_unmasking,7,258,0,0,_five_,talker-p268_sex-f_text-_five_.wav,p268,f,5,40,12.0,7.0,RX81,6,0.0,0.0,7.0,77.34149293193902,babble-reversed_n13_p307-one-p318-five-p229-four-p268-eight-p284-two-p245-three.wav,10,RX81,11,0.0,0.0,12.0,93.00003341222715,mgb_normalisation,93.00003341222715,90.34149293193902,5,8.0,False,1.4998960494995115
,2024-07-01 14:14:52,sub_109,3,distance,cathedral,spatial_unmasking,7,259,0,0,_six_,talker-p268_sex-f_text-_six_.wav,p268,f,5,41,12.0,7.0,RX81,6,0.0,0.0,7.0,78.34149293193902,babble-reversed_n13_p318-five-p256-nine-p307-eight-p248-two-p245-four-p284-three.wav,10,RX81,11,0.0,0.0,12.0,93.00003341222718,mgb_normalisation,93.00003341222715,90.34149293193902,6,6.0,True,1.1764254570007324
