event_id,timestamp,subject_id,session_index,plane,setup,task,block,trial_index,headpose_offset_azi,headpose_offset_ele,target_number,target_filename,target_talker,target_sex,target_speaker_id,step_number:,distance_masker,distance_target,target_speaker_proc,target_speaker_chan,target_speaker_azi,target_speaker_ele,target_speaker_dist,target_stim_level,masker_filename,masker_speaker_id,masker_speaker_proc,masker_speaker_chan,masker_speaker_azi,masker_speaker_ele,masker_speaker_dist,masker_stim_level,normalisation_method,normalisation_level_masker,normalisation_level_target,played_number,resp_number,is_correct,reaction_time
,2024-07-19 10:01:00,sub_112,3,distance,cathedral,spatial_unmasking,1,0,0,0,_eight_,talker-p248_sex-f_text-_eight_.wav,p248,f,5,1,8.0,7.0,RX81,6,0.0,0.0,7.0,92.34149293193902,babble-reversed_n13_p256-three-p318-two-p229-nine-p248-four-p284-one-p268-eight.wav,6,RX81,7,0.0,0.0,8.0,91.58892582949886,mgb_normalisation,91.58892582949886,90.34149293193902,8,3.0,False,1.375030755996704
,2024-07-19 10:01:03,sub_112,3,distance,cathedral,spatial_unmasking,1,1,0,0,_five_,talker-p248_sex-f_text-_five_.wav,p248,f,5,2,8.0,7.0,RX81,6,0.0,0.0,7.0,94.341492931939,babble-reversed_n13_p318-three-p229-one-p256-eight-p245-five-p248-four-p284-nine.wav,6,RX81,7,0.0,0.0,8.0,91.58892582949888,mgb_normalisation,91.58892582949886,90.34149293193902,5,5.0,True,0.937586784362793
,2024-07-19 10:01:07,sub_112,3,distance,cathedral,spatial_unmasking,1,2,0,0,_two_,talker-p248_sex-f_text-_two_.wav,p248,f,5,3,8.0,7.0,RX81,6,0.0,0.0,7.0,94.34149293193904,babble-reversed_n13_p229-three-p307-one-p318-two-p245-eight-p268-five-p284-four.wav,6,RX81,7,0.0,0.0,8.0,91.58892582949888,mgb_normalisation,91.58892582949886,90.34149293193902,2,2.0,True,1.0000221729278564
,2024-07-19 10:01:10,sub_112,3,distance,cathedral,spatial_unmasking,1,3,0,0,_two_,talker-p248_sex-f_text-_two_.wav,p248,f,5,4,8.0,7.0,RX81,6,0.0,0.0,7.0,92.34149293193902,babble-reversed_n13_p318-nine-p256-five-p307-eight-p268-three-p248-one-p245-four.wav,6,RX81,7,0.0,0.0,8.0,91.58892582949888,mgb_normalisation,91.58892582949886,90.34149293193902,2,2.0,True,0.9375205039978028
,2024-07-19 10:01:14,sub_112,3,distance,cathedral,spatial_unmasking,1,4,0,0,_eight_,talker-p248_sex-f_text-_eight_.wav,p248,f,5,5,8.0,7.0,RX81,6,0.0,0.0,7.0,92.34149293193902,babble-reversed_n13_p307-five-p229-two-p318-four-p248-three-p245-nine-p268-eight.wav,6,RX81,7,0.0,0.0,8.0,91.58892582949886,mgb_normalisation,91.58892582949886,90.34149293193902,8,8.0,True,1.6875383853912354
,2024-07-19 10:01:17,sub_112,3,distance,cathedral,spatial_unmasking,1,5,0,0,_eight_,talker-p248_sex-f_text-_eight_.wav,p248,f,5,6,8.0,7.0,RX81,6,0.0,0.0,7.0,90.34149293193904,babble-reversed_n13_p229-three-p256-one-p307-two-p284-eight-p268-five-p248-nine.wav,6,RX81,7,0.0,0.0,8.0,91.58892582949888,mgb_normalisation,91.58892582949886,90.34149293193902,8,8.0,True,1.0000226497650146
,2024-07-19 10:01:21,sub_112,3,distance,cathedral,spatial_unmasking,1,6,0,0,_five_,talker-p248_sex-f_text-_five_.wav,p248,f,5,7,8.0,7.0,RX81,6,0.0,0.0,7.0,90.341492931939,babble-reversed_n13_p307-five-p229-three-p318-nine-p245-four-p268-eight-p284-two.wav,6,RX81,7,0.0,0.0,8.0,91.58892582949886,mgb_normalisation,91.58892582949886,90.34149293193902,5,5.0,True,0.812493085861206
,2024-07-19 10:01:24,sub_112,3,distance,cathedral,spatial_unmasking,1,7,0,0,_six_,talker-p248_sex-f_text-_six_.wav,p248,f,5,8,8.0,7.0,RX81,6,0.0,0.0,7.0,88.34149293193902,babble-reversed_n13_p318-one-p307-two-p256-eight-p284-three-p248-five-p245-four.wav,6,RX81,7,0.0,0.0,8.0,91.58892582949888,mgb_normalisation,91.58892582949886,90.34149293193902,6,6.0,True,0.812518835067749
,2024-07-19 10:01:27,sub_112,3,distance,cathedral,spatial_unmasking,1,8,0,0,_eight_,talker-p248_sex-f_text-_eight_.wav,p248,f,5,9,8.0,7.0,RX81,6,0.0,0.0,7.0,88.34149293193902,babble-reversed_n13_p229-two-p318-eight-p256-three-p268-one-p248-nine-p284-five.wav,6,RX81,7,0.0,0.0,8.0,91.58892582949886,mgb_normalisation,91.58892582949886,90.34149293193902,8,8.0,True,1.250025510787964
,2024-07-19 10:01:31,sub_112,3,distance,cathedral,spatial_unmasking,1,9,0,0,_eight_,talker-p248_sex-f_text-_eight_.wav,p248,f,5,10,8.0,7.0,RX81,6,0.0,0.0,7.0,86.34149293193902,babble-reversed_n13_p318-one-p307-two-p256-eight-p284-three-p248-five-p245-four.wav,6,RX81,7,0.0,0.0,8.0,91.58892582949888,mgb_normalisation,91.58892582949886,90.34149293193902,8,8.0,True,0.9375207424163818
,2024-07-19 10:01:34,sub_112,3,distance,cathedral,spatial_unmasking,1,10,0,0,_two_,talker-p248_sex-f_text-_two_.wav,p248,f,5,11,8.0,7.0,RX81,6,0.0,0.0,7.0,86.34149293193902,babble-reversed_n13_p307-nine-p318-two-p256-one-p245-three-p268-four-p248-eight.wav,6,RX81,7,0.0,0.0,8.0,91.58892582949886,mgb_normalisation,91.58892582949886,90.34149293193902,2,2.0,True,0.9375243186950684
,2024-07-19 10:01:37,sub_112,3,distance,cathedral,spatial_unmasking,1,11,0,0,_five_,talker-p248_sex-f_text-_five_.wav,p248,f,5,12,8.0,7.0,RX81,6,0.0,0.0,7.0,84.341492931939,babble-reversed_n13_p256-four-p229-two-p318-five-p268-one-p248-eight-p245-three.wav,6,RX81,7,0.0,0.0,8.0,91.58892582949886,mgb_normalisation,91.58892582949886,90.34149293193902,5,5.0,True,0.6250145435333252
,2024-07-19 10:01:41,sub_112,3,distance,cathedral,spatial_unmasking,1,12,0,0,_one_,talker-p248_sex-f_text-_one_.wav,p248,f,5,13,8.0,7.0,RX81,6,0.0,0.0,7.0,84.34149293193903,babble-reversed_n13_p229-one-p318-eight-p256-three-p268-two-p245-five-p248-nine.wav,6,RX81,7,0.0,0.0,8.0,91.58892582949886,mgb_normalisation,91.58892582949886,90.34149293193902,1,1.0,True,1.1875262260437012
,2024-07-19 10:01:44,sub_112,3,distance,cathedral,spatial_unmasking,1,13,0,0,_two_,talker-p248_sex-f_text-_two_.wav,p248,f,5,14,8.0,7.0,RX81,6,0.0,0.0,7.0,82.34149293193902,babble-reversed_n13_p229-nine-p318-one-p307-two-p248-eight-p245-five-p284-four.wav,6,RX81,7,0.0,0.0,8.0,91.58892582949886,mgb_normalisation,91.58892582949886,90.34149293193902,2,2.0,True,0.8750195503234863
,2024-07-19 10:01:48,sub_112,3,distance,cathedral,spatial_unmasking,1,14,0,0,_eight_,talker-p248_sex-f_text-_eight_.wav,p248,f,5,15,8.0,7.0,RX81,6,0.0,0.0,7.0,82.34149293193902,babble-reversed_n13_p256-four-p229-two-p318-five-p268-one-p248-eight-p245-three.wav,6,RX81,7,0.0,0.0,8.0,91.58892582949886,mgb_normalisation,91.58892582949886,90.34149293193902,8,8.0,True,1.2500278949737549
,2024-07-19 10:01:51,sub_112,3,distance,cathedral,spatial_unmasking,1,15,0,0,_five_,talker-p248_sex-f_text-_five_.wav,p248,f,5,16,8.0,7.0,RX81,6,0.0,0.0,7.0,80.341492931939,babble-reversed_n13_p229-three-p256-one-p307-two-p284-eight-p268-five-p248-nine.wav,6,RX81,7,0.0,0.0,8.0,91.58892582949888,mgb_normalisation,91.58892582949886,90.34149293193902,5,5.0,True,1.0625462532043457
,2024-07-19 10:01:55,sub_112,3,distance,cathedral,spatial_unmasking,1,16,0,0,_one_,talker-p248_sex-f_text-_one_.wav,p248,f,5,17,8.0,7.0,RX81,6,0.0,0.0,7.0,80.34149293193903,babble-reversed_n13_p307-two-p229-one-p256-five-p248-nine-p284-three-p268-eight.wav,6,RX81,7,0.0,0.0,8.0,91.58892582949888,mgb_normalisation,91.58892582949886,90.34149293193902,1,4.0,False,1.3125295639038086
,2024-07-19 10:01:58,sub_112,3,distance,cathedral,spatial_unmasking,1,17,0,0,_eight_,talker-p248_sex-f_text-_eight_.wav,p248,f,5,18,8.0,7.0,RX81,6,0.0,0.0,7.0,81.34149293193902,babble-reversed_n13_p307-five-p229-three-p318-nine-p245-four-p268-eight-p284-two.wav,6,RX81,7,0.0,0.0,8.0,91.58892582949886,mgb_normalisation,91.58892582949886,90.34149293193902,8,3.0,False,1.3750343322753906
,2024-07-19 10:02:02,sub_112,3,distance,cathedral,spatial_unmasking,1,18,0,0,_six_,talker-p248_sex-f_text-_six_.wav,p248,f,5,19,8.0,7.0,RX81,6,0.0,0.0,7.0,82.34149293193902,babble-reversed_n13_p256-nine-p307-four-p229-one-p284-three-p248-two-p245-five.wav,6,RX81,7,0.0,0.0,8.0,91.58892582949888,mgb_normalisation,91.58892582949886,90.34149293193902,6,6.0,True,0.9375214576721193
,2024-07-19 10:02:05,sub_112,3,distance,cathedral,spatial_unmasking,1,19,0,0,_four_,talker-p248_sex-f_text-_four_.wav,p248,f,5,20,8.0,7.0,RX81,6,0.0,0.0,7.0,82.34149293193902,babble-reversed_n13_p318-nine-p256-five-p307-eight-p268-three-p248-one-p245-four.wav,6,RX81,7,0.0,0.0,8.0,91.58892582949888,mgb_normalisation,91.58892582949886,90.34149293193902,4,4.0,True,1.0000221729278564
,2024-07-19 10:02:09,sub_112,3,distance,cathedral,spatial_unmasking,1,20,0,0,_three_,talker-p248_sex-f_text-_three_.wav,p248,f,5,21,8.0,7.0,RX81,6,0.0,0.0,7.0,81.34149293193902,babble-reversed_n13_p256-four-p229-two-p318-five-p268-one-p248-eight-p245-three.wav,6,RX81,7,0.0,0.0,8.0,91.58892582949886,mgb_normalisation,91.58892582949886,90.34149293193902,3,8.0,False,1.3750555515289309
,2024-07-19 10:02:12,sub_112,3,distance,cathedral,spatial_unmasking,1,21,0,0,_five_,talker-p248_sex-f_text-_five_.wav,p248,f,5,22,8.0,7.0,RX81,6,0.0,0.0,7.0,82.341492931939,babble-reversed_n13_p256-four-p229-eight-p307-five-p248-three-p245-one-p284-two.wav,6,RX81,7,0.0,0.0,8.0,91.58892582949886,mgb_normalisation,91.58892582949886,90.34149293193902,5,5.0,True,1.1250510215759275
,2024-07-19 10:02:16,sub_112,3,distance,cathedral,spatial_unmasking,1,22,0,0,_six_,talker-p248_sex-f_text-_six_.wav,p248,f,5,23,8.0,7.0,RX81,6,0.0,0.0,7.0,82.34149293193902,babble-reversed_n13_p318-three-p229-one-p256-eight-p245-five-p248-four-p284-nine.wav,6,RX81,7,0.0,0.0,8.0,91.58892582949888,mgb_normalisation,91.58892582949886,90.34149293193902,6,6.0,True,0.7500174045562744
,2024-07-19 10:02:21,sub_112,3,distance,cathedral,spatial_unmasking,1,23,0,0,_three_,talker-p248_sex-f_text-_three_.wav,p248,f,5,24,8.0,7.0,RX81,6,0.0,0.0,7.0,81.34149293193902,babble-reversed_n13_p307-nine-p229-one-p256-eight-p248-four-p284-two-p268-three.wav,6,RX81,7,0.0,0.0,8.0,91.58892582949888,mgb_normalisation,91.58892582949886,90.34149293193902,3,3.0,True,2.812562942504883
,2024-07-19 10:02:24,sub_112,3,distance,cathedral,spatial_unmasking,1,24,0,0,_two_,talker-p248_sex-f_text-_two_.wav,p248,f,5,25,8.0,7.0,RX81,6,0.0,0.0,7.0,81.34149293193902,babble-reversed_n13_p307-five-p229-two-p318-four-p248-three-p245-nine-p268-eight.wav,6,RX81,7,0.0,0.0,8.0,91.58892582949886,mgb_normalisation,91.58892582949886,90.34149293193902,2,2.0,True,1.0625226497650146
,2024-07-19 10:02:28,sub_112,3,distance,cathedral,spatial_unmasking,1,25,0,0,_nine_,talker-p248_sex-f_text-_nine_.wav,p248,f,5,26,8.0,7.0,RX81,6,0.0,0.0,7.0,80.341492931939,babble-reversed_n13_p229-eight-p256-nine-p318-four-p245-three-p268-five-p284-two.wav,6,RX81,7,0.0,0.0,8.0,91.58892582949886,mgb_normalisation,91.58892582949886,90.34149293193902,9,9.0,True,1.1250245571136477
,2024-07-19 10:02:32,sub_112,3,distance,cathedral,spatial_unmasking,1,26,0,0,_two_,talker-p248_sex-f_text-_two_.wav,p248,f,5,27,8.0,7.0,RX81,6,0.0,0.0,7.0,80.34149293193903,babble-reversed_n13_p229-two-p307-five-p318-four-p284-one-p248-nine-p268-eight.wav,6,RX81,7,0.0,0.0,8.0,91.58892582949888,mgb_normalisation,91.58892582949886,90.34149293193902,2,9.0,False,1.7500393390655518
,2024-07-19 10:02:35,sub_112,3,distance,cathedral,spatial_unmasking,1,27,0,0,_nine_,talker-p248_sex-f_text-_nine_.wav,p248,f,5,28,8.0,7.0,RX81,6,0.0,0.0,7.0,81.34149293193902,babble-reversed_n13_p256-eight-p318-five-p307-four-p245-three-p268-one-p284-nine.wav,6,RX81,7,0.0,0.0,8.0,91.58892582949886,mgb_normalisation,91.58892582949886,90.34149293193902,9,9.0,True,0.7500171661376953
,2024-07-19 10:02:38,sub_112,3,distance,cathedral,spatial_unmasking,1,28,0,0,_two_,talker-p248_sex-f_text-_two_.wav,p248,f,5,29,8.0,7.0,RX81,6,0.0,0.0,7.0,81.34149293193902,babble-reversed_n13_p318-five-p229-three-p256-four-p268-eight-p248-one-p245-nine.wav,6,RX81,7,0.0,0.0,8.0,91.58892582949888,mgb_normalisation,91.58892582949886,90.34149293193902,2,2.0,True,1.0000362396240234
,2024-07-19 10:02:42,sub_112,3,distance,cathedral,spatial_unmasking,1,29,0,0,_nine_,talker-p248_sex-f_text-_nine_.wav,p248,f,5,30,8.0,7.0,RX81,6,0.0,0.0,7.0,80.341492931939,babble-reversed_n13_p318-four-p256-five-p229-three-p284-one-p245-eight-p248-nine.wav,6,RX81,7,0.0,0.0,8.0,91.58892582949888,mgb_normalisation,91.58892582949886,90.34149293193902,9,9.0,True,1.687537670135498
,2024-07-19 10:02:46,sub_112,3,distance,cathedral,spatial_unmasking,1,30,0,0,_two_,talker-p248_sex-f_text-_two_.wav,p248,f,5,31,8.0,7.0,RX81,6,0.0,0.0,7.0,80.34149293193903,babble-reversed_n13_p229-five-p318-three-p307-two-p245-four-p284-nine-p248-eight.wav,6,RX81,7,0.0,0.0,8.0,91.58892582949886,mgb_normalisation,91.58892582949886,90.34149293193902,2,2.0,True,1.0625238418579102
,2024-07-19 10:02:49,sub_112,3,distance,cathedral,spatial_unmasking,1,31,0,0,_three_,talker-p248_sex-f_text-_three_.wav,p248,f,5,32,8.0,7.0,RX81,6,0.0,0.0,7.0,79.341492931939,babble-reversed_n13_p229-five-p256-three-p318-nine-p248-two-p284-four-p268-one.wav,6,RX81,7,0.0,0.0,8.0,91.58892582949888,mgb_normalisation,91.58892582949886,90.34149293193902,3,3.0,True,0.8750185966491699
,2024-07-19 10:02:53,sub_112,3,distance,cathedral,spatial_unmasking,1,32,0,0,_four_,talker-p248_sex-f_text-_four_.wav,p248,f,5,33,8.0,7.0,RX81,6,0.0,0.0,7.0,79.341492931939,babble-reversed_n13_p229-three-p256-one-p307-two-p284-eight-p268-five-p248-nine.wav,6,RX81,7,0.0,0.0,8.0,91.58892582949888,mgb_normalisation,91.58892582949886,90.34149293193902,4,4.0,True,1.1875271797180176
,2024-07-19 10:02:56,sub_112,3,distance,cathedral,spatial_unmasking,1,33,0,0,_one_,talker-p248_sex-f_text-_one_.wav,p248,f,5,34,8.0,7.0,RX81,6,0.0,0.0,7.0,78.34149293193902,babble-reversed_n13_p256-two-p307-five-p318-nine-p248-eight-p245-four-p284-one.wav,6,RX81,7,0.0,0.0,8.0,91.58892582949888,mgb_normalisation,91.58892582949886,90.34149293193902,1,4.0,False,1.1250250339508057
,2024-07-19 10:03:00,sub_112,3,distance,cathedral,spatial_unmasking,1,34,0,0,_nine_,talker-p248_sex-f_text-_nine_.wav,p248,f,5,35,8.0,7.0,RX81,6,0.0,0.0,7.0,79.341492931939,babble-reversed_n13_p229-eight-p256-nine-p318-four-p245-three-p268-five-p284-two.wav,6,RX81,7,0.0,0.0,8.0,91.58892582949886,mgb_normalisation,91.58892582949886,90.34149293193902,9,9.0,True,0.8750181198120117
,2024-07-19 10:03:03,sub_112,3,distance,cathedral,spatial_unmasking,1,35,0,0,_eight_,talker-p248_sex-f_text-_eight_.wav,p248,f,5,36,8.0,7.0,RX81,6,0.0,0.0,7.0,79.34149293193902,babble-reversed_n13_p307-nine-p318-two-p256-one-p245-three-p268-four-p248-eight.wav,6,RX81,7,0.0,0.0,8.0,91.58892582949886,mgb_normalisation,91.58892582949886,90.34149293193902,8,8.0,True,0.8125183582305908
,2024-07-19 10:03:06,sub_112,3,distance,cathedral,spatial_unmasking,1,36,0,0,_two_,talker-p248_sex-f_text-_two_.wav,p248,f,5,37,8.0,7.0,RX81,6,0.0,0.0,7.0,78.34149293193902,babble-reversed_n13_p318-five-p229-four-p256-eight-p284-one-p245-three-p248-two.wav,6,RX81,7,0.0,0.0,8.0,91.58892582949888,mgb_normalisation,91.58892582949886,90.34149293193902,2,2.0,True,1.062523365020752
,2024-07-19 10:03:10,sub_112,3,distance,cathedral,spatial_unmasking,1,37,0,0,_nine_,talker-p248_sex-f_text-_nine_.wav,p248,f,5,38,8.0,7.0,RX81,6,0.0,0.0,7.0,78.34149293193902,babble-reversed_n13_p256-two-p307-five-p318-nine-p248-eight-p245-four-p284-one.wav,6,RX81,7,0.0,0.0,8.0,91.58892582949888,mgb_normalisation,91.58892582949886,90.34149293193902,9,9.0,True,1.1875264644622805
,2024-07-19 10:03:13,sub_112,3,distance,cathedral,spatial_unmasking,1,38,0,0,_six_,talker-p248_sex-f_text-_six_.wav,p248,f,5,39,8.0,7.0,RX81,6,0.0,0.0,7.0,77.34149293193902,babble-reversed_n13_p256-eight-p318-two-p307-five-p245-four-p268-nine-p284-one.wav,6,RX81,7,0.0,0.0,8.0,91.58892582949888,mgb_normalisation,91.58892582949886,90.34149293193902,6,6.0,True,0.8125176429748535
,2024-07-19 10:03:17,sub_112,3,distance,cathedral,spatial_unmasking,1,39,0,0,_six_,talker-p248_sex-f_text-_six_.wav,p248,f,5,40,8.0,7.0,RX81,6,0.0,0.0,7.0,77.34149293193902,babble-reversed_n13_p318-three-p307-one-p256-five-p248-nine-p245-two-p284-eight.wav,6,RX81,7,0.0,0.0,8.0,91.58892582949888,mgb_normalisation,91.58892582949886,90.34149293193902,6,6.0,True,1.687537670135498
,2024-07-19 10:03:21,sub_112,3,distance,cathedral,spatial_unmasking,1,40,0,0,_four_,talker-p248_sex-f_text-_four_.wav,p248,f,5,41,8.0,7.0,RX81,6,0.0,0.0,7.0,76.34149293193902,babble-reversed_n13_p229-one-p318-eight-p256-three-p268-nine-p248-five-p284-four.wav,6,RX81,7,0.0,0.0,8.0,91.58892582949886,mgb_normalisation,91.58892582949886,90.34149293193902,4,4.0,True,1.0625240802764893
,2024-07-19 10:03:24,sub_112,3,distance,cathedral,spatial_unmasking,1,41,0,0,_one_,talker-p248_sex-f_text-_one_.wav,p248,f,5,42,8.0,7.0,RX81,6,0.0,0.0,7.0,76.34149293193902,babble-reversed_n13_p229-one-p318-eight-p256-three-p268-nine-p248-five-p284-four.wav,6,RX81,7,0.0,0.0,8.0,91.58892582949886,mgb_normalisation,91.58892582949886,90.34149293193902,1,4.0,False,1.562535047531128
,2024-07-19 10:03:29,sub_112,3,distance,cathedral,spatial_unmasking,1,42,0,0,_one_,talker-p248_sex-f_text-_one_.wav,p248,f,5,43,8.0,7.0,RX81,6,0.0,0.0,7.0,77.34149293193903,babble-reversed_n13_p307-five-p229-three-p318-nine-p245-four-p268-eight-p284-two.wav,6,RX81,7,0.0,0.0,8.0,91.58892582949886,mgb_normalisation,91.58892582949886,90.34149293193902,1,2.0,False,2.375105619430542
,2024-07-19 10:03:34,sub_112,3,distance,cathedral,spatial_unmasking,1,43,0,0,_one_,talker-p248_sex-f_text-_one_.wav,p248,f,5,44,8.0,7.0,RX81,6,0.0,0.0,7.0,78.34149293193902,babble-reversed_n13_p318-five-p256-nine-p307-two-p245-eight-p248-one-p284-four.wav,6,RX81,7,0.0,0.0,8.0,91.58892582949888,mgb_normalisation,91.58892582949886,90.34149293193902,1,9.0,False,2.750058889389038
,2024-07-19 10:03:41,sub_112,3,distance,cathedral,spatial_unmasking,1,44,0,0,_four_,talker-p248_sex-f_text-_four_.wav,p248,f,5,45,8.0,7.0,RX81,6,0.0,0.0,7.0,79.341492931939,babble-reversed_n13_p256-eight-p229-three-p307-nine-p245-five-p248-four-p268-two.wav,6,RX81,7,0.0,0.0,8.0,91.58892582949886,mgb_normalisation,91.58892582949886,90.34149293193902,4,8.0,False,4.562601327896118
,2024-07-19 10:03:48,sub_112,3,distance,cathedral,spatial_unmasking,1,45,0,0,_eight_,talker-p248_sex-f_text-_eight_.wav,p248,f,5,46,8.0,7.0,RX81,6,0.0,0.0,7.0,80.34149293193903,babble-reversed_n13_p229-five-p256-three-p318-nine-p248-two-p284-four-p268-one.wav,6,RX81,7,0.0,0.0,8.0,91.58892582949888,mgb_normalisation,91.58892582949886,90.34149293193902,8,2.0,False,4.062589168548584
,2024-07-19 10:03:52,sub_112,3,distance,cathedral,spatial_unmasking,1,46,0,0,_two_,talker-p248_sex-f_text-_two_.wav,p248,f,5,47,8.0,7.0,RX81,6,0.0,0.0,7.0,81.34149293193902,babble-reversed_n13_p307-two-p256-four-p318-three-p284-eight-p248-five-p245-nine.wav,6,RX81,7,0.0,0.0,8.0,91.58892582949888,mgb_normalisation,91.58892582949886,90.34149293193902,2,3.0,False,1.812540292739868
,2024-07-19 10:03:55,sub_112,3,distance,cathedral,spatial_unmasking,1,47,0,0,_five_,talker-p248_sex-f_text-_five_.wav,p248,f,5,48,8.0,7.0,RX81,6,0.0,0.0,7.0,82.341492931939,babble-reversed_n13_p229-five-p318-three-p307-two-p245-four-p284-nine-p248-eight.wav,6,RX81,7,0.0,0.0,8.0,91.58892582949886,mgb_normalisation,91.58892582949886,90.34149293193902,5,5.0,True,1.0000219345092771
,2024-07-19 10:03:59,sub_112,3,distance,cathedral,spatial_unmasking,1,48,0,0,_two_,talker-p248_sex-f_text-_two_.wav,p248,f,5,49,8.0,7.0,RX81,6,0.0,0.0,7.0,82.34149293193902,babble-reversed_n13_p229-eight-p256-nine-p318-four-p245-three-p268-five-p284-two.wav,6,RX81,7,0.0,0.0,8.0,91.58892582949886,mgb_normalisation,91.58892582949886,90.34149293193902,2,2.0,True,1.6875381469726562
,2024-07-19 10:04:34,sub_112,3,distance,cathedral,spatial_unmasking,2,49,0,0,_eight_,talker-p248_sex-f_text-_eight_.wav,p248,f,5,1,6.0,7.0,RX81,6,0.0,0.0,7.0,92.34149293193902,babble-reversed_n13_p318-five-p256-nine-p307-eight-p248-two-p245-four-p284-three.wav,4,RX81,5,0.0,0.0,6.0,89.31368318402099,mgb_normalisation,89.31368318402099,90.34149293193902,8,3.0,False,1.0624594688415527
,2024-07-19 10:04:38,sub_112,3,distance,cathedral,spatial_unmasking,2,50,0,0,_four_,talker-p248_sex-f_text-_four_.wav,p248,f,5,2,6.0,7.0,RX81,6,0.0,0.0,7.0,94.341492931939,babble-reversed_n13_p256-nine-p307-four-p229-one-p284-three-p248-two-p245-five.wav,4,RX81,5,0.0,0.0,6.0,89.31368318402099,mgb_normalisation,89.31368318402099,90.34149293193902,4,4.0,True,0.8750190734863281
,2024-07-19 10:04:41,sub_112,3,distance,cathedral,spatial_unmasking,2,51,0,0,_nine_,talker-p248_sex-f_text-_nine_.wav,p248,f,5,3,6.0,7.0,RX81,6,0.0,0.0,7.0,94.341492931939,babble-reversed_n13_p318-nine-p307-eight-p229-two-p284-one-p248-three-p245-five.wav,4,RX81,5,0.0,0.0,6.0,89.31368318402099,mgb_normalisation,89.31368318402099,90.34149293193902,9,9.0,True,0.8125183582305908
,2024-07-19 10:04:44,sub_112,3,distance,cathedral,spatial_unmasking,2,52,0,0,_three_,talker-p248_sex-f_text-_three_.wav,p248,f,5,4,6.0,7.0,RX81,6,0.0,0.0,7.0,92.34149293193902,babble-reversed_n13_p256-five-p307-nine-p318-three-p284-eight-p268-one-p248-two.wav,4,RX81,5,0.0,0.0,6.0,89.31368318402099,mgb_normalisation,89.31368318402099,90.34149293193902,3,3.0,True,1.0625240802764893
,2024-07-19 10:04:48,sub_112,3,distance,cathedral,spatial_unmasking,2,53,0,0,_nine_,talker-p248_sex-f_text-_nine_.wav,p248,f,5,5,6.0,7.0,RX81,6,0.0,0.0,7.0,92.34149293193902,babble-reversed_n13_p256-nine-p307-four-p229-one-p284-three-p248-two-p245-five.wav,4,RX81,5,0.0,0.0,6.0,89.31368318402099,mgb_normalisation,89.31368318402099,90.34149293193902,9,9.0,True,0.9375207424163818
,2024-07-19 10:04:51,sub_112,3,distance,cathedral,spatial_unmasking,2,54,0,0,_three_,talker-p248_sex-f_text-_three_.wav,p248,f,5,6,6.0,7.0,RX81,6,0.0,0.0,7.0,90.34149293193904,babble-reversed_n13_p256-eight-p318-five-p307-four-p245-three-p268-one-p284-nine.wav,4,RX81,5,0.0,0.0,6.0,89.31368318402099,mgb_normalisation,89.31368318402099,90.34149293193902,3,3.0,True,0.8125171661376953
,2024-07-19 10:04:54,sub_112,3,distance,cathedral,spatial_unmasking,2,55,0,0,_five_,talker-p248_sex-f_text-_five_.wav,p248,f,5,7,6.0,7.0,RX81,6,0.0,0.0,7.0,90.341492931939,babble-reversed_n13_p229-two-p256-three-p318-eight-p284-five-p268-four-p245-one.wav,4,RX81,5,0.0,0.0,6.0,89.31368318402099,mgb_normalisation,89.31368318402099,90.34149293193902,5,5.0,True,1.0000221729278564
,2024-07-19 10:04:57,sub_112,3,distance,cathedral,spatial_unmasking,2,56,0,0,_three_,talker-p248_sex-f_text-_three_.wav,p248,f,5,8,6.0,7.0,RX81,6,0.0,0.0,7.0,88.34149293193902,babble-reversed_n13_p229-five-p318-three-p307-two-p245-four-p284-nine-p248-eight.wav,4,RX81,5,0.0,0.0,6.0,89.31368318402099,mgb_normalisation,89.31368318402099,90.34149293193902,3,3.0,True,0.8750197887420654
,2024-07-19 10:05:01,sub_112,3,distance,cathedral,spatial_unmasking,2,57,0,0,_six_,talker-p248_sex-f_text-_six_.wav,p248,f,5,9,6.0,7.0,RX81,6,0.0,0.0,7.0,88.34149293193902,babble-reversed_n13_p229-two-p318-eight-p256-three-p268-one-p248-nine-p284-five.wav,4,RX81,5,0.0,0.0,6.0,89.31368318402099,mgb_normalisation,89.31368318402099,90.34149293193902,6,6.0,True,1.0000219345092771
,2024-07-19 10:05:04,sub_112,3,distance,cathedral,spatial_unmasking,2,58,0,0,_one_,talker-p248_sex-f_text-_one_.wav,p248,f,5,10,6.0,7.0,RX81,6,0.0,0.0,7.0,86.34149293193902,babble-reversed_n13_p318-four-p256-five-p229-three-p284-one-p245-eight-p248-nine.wav,4,RX81,5,0.0,0.0,6.0,89.31368318402099,mgb_normalisation,89.31368318402099,90.34149293193902,1,9.0,False,1.00002121925354
,2024-07-19 10:05:07,sub_112,3,distance,cathedral,spatial_unmasking,2,59,0,0,_six_,talker-p248_sex-f_text-_six_.wav,p248,f,5,11,6.0,7.0,RX81,6,0.0,0.0,7.0,87.34149293193902,babble-reversed_n13_p256-nine-p307-four-p229-one-p284-three-p248-two-p245-five.wav,4,RX81,5,0.0,0.0,6.0,89.31368318402099,mgb_normalisation,89.31368318402099,90.34149293193902,6,6.0,True,0.8125181198120117
,2024-07-19 10:05:11,sub_112,3,distance,cathedral,spatial_unmasking,2,60,0,0,_two_,talker-p248_sex-f_text-_two_.wav,p248,f,5,12,6.0,7.0,RX81,6,0.0,0.0,7.0,87.34149293193902,babble-reversed_n13_p318-four-p256-five-p229-three-p284-one-p245-eight-p248-nine.wav,4,RX81,5,0.0,0.0,6.0,89.31368318402099,mgb_normalisation,89.31368318402099,90.34149293193902,2,2.0,True,0.9375860691070556
,2024-07-19 10:05:14,sub_112,3,distance,cathedral,spatial_unmasking,2,61,0,0,_six_,talker-p248_sex-f_text-_six_.wav,p248,f,5,13,6.0,7.0,RX81,6,0.0,0.0,7.0,86.34149293193902,babble-reversed_n13_p307-two-p256-four-p318-three-p284-eight-p248-five-p245-nine.wav,4,RX81,5,0.0,0.0,6.0,89.313683184021,mgb_normalisation,89.31368318402099,90.34149293193902,6,6.0,True,1.1875293254852295
,2024-07-19 10:05:18,sub_112,3,distance,cathedral,spatial_unmasking,2,62,0,0,_four_,talker-p248_sex-f_text-_four_.wav,p248,f,5,14,6.0,7.0,RX81,6,0.0,0.0,7.0,86.341492931939,babble-reversed_n13_p256-four-p229-two-p318-five-p268-one-p248-eight-p245-three.wav,4,RX81,5,0.0,0.0,6.0,89.31368318402099,mgb_normalisation,89.31368318402099,90.34149293193902,4,4.0,True,0.9375207424163818
,2024-07-19 10:05:21,sub_112,3,distance,cathedral,spatial_unmasking,2,63,0,0,_three_,talker-p248_sex-f_text-_three_.wav,p248,f,5,15,6.0,7.0,RX81,6,0.0,0.0,7.0,85.34149293193903,babble-reversed_n13_p318-three-p229-one-p256-eight-p245-five-p248-four-p284-nine.wav,4,RX81,5,0.0,0.0,6.0,89.313683184021,mgb_normalisation,89.31368318402099,90.34149293193902,3,3.0,True,1.1250262260437012
,2024-07-19 10:05:25,sub_112,3,distance,cathedral,spatial_unmasking,2,64,0,0,_eight_,talker-p248_sex-f_text-_eight_.wav,p248,f,5,16,6.0,7.0,RX81,6,0.0,0.0,7.0,85.34149293193903,babble-reversed_n13_p229-three-p307-one-p318-two-p245-eight-p268-five-p284-four.wav,4,RX81,5,0.0,0.0,6.0,89.31368318402099,mgb_normalisation,89.31368318402099,90.34149293193902,8,1.0,False,0.93752121925354
,2024-07-19 10:05:28,sub_112,3,distance,cathedral,spatial_unmasking,2,65,0,0,_six_,talker-p248_sex-f_text-_six_.wav,p248,f,5,17,6.0,7.0,RX81,6,0.0,0.0,7.0,86.34149293193902,babble-reversed_n13_p256-five-p229-one-p318-three-p248-nine-p284-eight-p268-two.wav,4,RX81,5,0.0,0.0,6.0,89.31368318402099,mgb_normalisation,89.31368318402099,90.34149293193902,6,6.0,True,1.0625238418579102
,2024-07-19 10:05:31,sub_112,3,distance,cathedral,spatial_unmasking,2,66,0,0,_nine_,talker-p248_sex-f_text-_nine_.wav,p248,f,5,18,6.0,7.0,RX81,6,0.0,0.0,7.0,86.34149293193902,babble-reversed_n13_p256-five-p229-one-p318-three-p248-nine-p284-eight-p268-two.wav,4,RX81,5,0.0,0.0,6.0,89.31368318402099,mgb_normalisation,89.31368318402099,90.34149293193902,9,9.0,True,1.0625231266021729
,2024-07-19 10:05:35,sub_112,3,distance,cathedral,spatial_unmasking,2,67,0,0,_four_,talker-p248_sex-f_text-_four_.wav,p248,f,5,19,6.0,7.0,RX81,6,0.0,0.0,7.0,85.341492931939,babble-reversed_n13_p229-three-p256-nine-p318-five-p248-one-p245-eight-p284-two.wav,4,RX81,5,0.0,0.0,6.0,89.31368318402099,mgb_normalisation,89.31368318402099,90.34149293193902,4,4.0,True,1.0000221729278564
,2024-07-19 10:05:38,sub_112,3,distance,cathedral,spatial_unmasking,2,68,0,0,_nine_,talker-p248_sex-f_text-_nine_.wav,p248,f,5,20,6.0,7.0,RX81,6,0.0,0.0,7.0,85.341492931939,babble-reversed_n13_p256-three-p318-two-p229-nine-p248-four-p284-one-p268-eight.wav,4,RX81,5,0.0,0.0,6.0,89.31368318402099,mgb_normalisation,89.31368318402099,90.34149293193902,9,9.0,True,1.125025510787964
,2024-07-19 10:05:42,sub_112,3,distance,cathedral,spatial_unmasking,2,69,0,0,_eight_,talker-p248_sex-f_text-_eight_.wav,p248,f,5,21,6.0,7.0,RX81,6,0.0,0.0,7.0,84.34149293193903,babble-reversed_n13_p229-one-p318-eight-p256-three-p268-nine-p248-five-p284-four.wav,4,RX81,5,0.0,0.0,6.0,89.31368318402099,mgb_normalisation,89.31368318402099,90.34149293193902,8,2.0,False,1.1250262260437012
,2024-07-19 10:05:45,sub_112,3,distance,cathedral,spatial_unmasking,2,70,0,0,_one_,talker-p248_sex-f_text-_one_.wav,p248,f,5,22,6.0,7.0,RX81,6,0.0,0.0,7.0,85.34149293193903,babble-reversed_n13_p307-two-p256-four-p318-three-p284-eight-p248-five-p245-nine.wav,4,RX81,5,0.0,0.0,6.0,89.313683184021,mgb_normalisation,89.31368318402099,90.34149293193902,1,1.0,True,1.1875271797180176
,2024-07-19 10:05:49,sub_112,3,distance,cathedral,spatial_unmasking,2,71,0,0,_four_,talker-p248_sex-f_text-_four_.wav,p248,f,5,23,6.0,7.0,RX81,6,0.0,0.0,7.0,85.341492931939,babble-reversed_n13_p229-three-p256-nine-p318-five-p248-one-p245-eight-p284-two.wav,4,RX81,5,0.0,0.0,6.0,89.31368318402099,mgb_normalisation,89.31368318402099,90.34149293193902,4,4.0,True,1.375030517578125
,2024-07-19 10:05:53,sub_112,3,distance,cathedral,spatial_unmasking,2,72,0,0,_four_,talker-p248_sex-f_text-_four_.wav,p248,f,5,24,6.0,7.0,RX81,6,0.0,0.0,7.0,84.341492931939,babble-reversed_n13_p229-nine-p256-four-p318-three-p268-eight-p248-two-p284-five.wav,4,RX81,5,0.0,0.0,6.0,89.31368318402099,mgb_normalisation,89.31368318402099,90.34149293193902,4,4.0,True,0.8750202655792236
,2024-07-19 10:05:57,sub_112,3,distance,cathedral,spatial_unmasking,2,73,0,0,_five_,talker-p248_sex-f_text-_five_.wav,p248,f,5,25,6.0,7.0,RX81,6,0.0,0.0,7.0,84.341492931939,babble-reversed_n13_p229-nine-p307-five-p256-two-p248-three-p245-one-p268-eight.wav,4,RX81,5,0.0,0.0,6.0,89.31368318402099,mgb_normalisation,89.31368318402099,90.34149293193902,5,3.0,False,2.5000555515289307
,2024-07-19 10:06:01,sub_112,3,distance,cathedral,spatial_unmasking,2,74,0,0,_two_,talker-p248_sex-f_text-_two_.wav,p248,f,5,26,6.0,7.0,RX81,6,0.0,0.0,7.0,85.34149293193903,babble-reversed_n13_p318-four-p256-five-p229-three-p284-one-p245-eight-p248-nine.wav,4,RX81,5,0.0,0.0,6.0,89.31368318402099,mgb_normalisation,89.31368318402099,90.34149293193902,2,2.0,True,0.9375205039978028
,2024-07-19 10:06:04,sub_112,3,distance,cathedral,spatial_unmasking,2,75,0,0,_four_,talker-p248_sex-f_text-_four_.wav,p248,f,5,27,6.0,7.0,RX81,6,0.0,0.0,7.0,85.341492931939,babble-reversed_n13_p318-nine-p256-five-p307-eight-p268-three-p248-one-p245-four.wav,4,RX81,5,0.0,0.0,6.0,89.31368318402099,mgb_normalisation,89.31368318402099,90.34149293193902,4,4.0,True,1.0625231266021729
,2024-07-19 10:06:08,sub_112,3,distance,cathedral,spatial_unmasking,2,76,0,0,_six_,talker-p248_sex-f_text-_six_.wav,p248,f,5,28,6.0,7.0,RX81,6,0.0,0.0,7.0,84.341492931939,babble-reversed_n13_p229-one-p318-eight-p256-three-p268-two-p245-five-p248-nine.wav,4,RX81,5,0.0,0.0,6.0,89.31368318402099,mgb_normalisation,89.31368318402099,90.34149293193902,6,6.0,True,1.0625176429748535
,2024-07-19 10:06:11,sub_112,3,distance,cathedral,spatial_unmasking,2,77,0,0,_three_,talker-p248_sex-f_text-_three_.wav,p248,f,5,29,6.0,7.0,RX81,6,0.0,0.0,7.0,84.341492931939,babble-reversed_n13_p318-five-p229-three-p256-four-p268-eight-p248-one-p245-nine.wav,4,RX81,5,0.0,0.0,6.0,89.31368318402099,mgb_normalisation,89.31368318402099,90.34149293193902,3,3.0,True,0.9374949932098388
,2024-07-19 10:06:14,sub_112,3,distance,cathedral,spatial_unmasking,2,78,0,0,_four_,talker-p248_sex-f_text-_four_.wav,p248,f,5,30,6.0,7.0,RX81,6,0.0,0.0,7.0,83.34149293193902,babble-reversed_n13_p229-nine-p318-one-p307-two-p248-eight-p245-five-p284-four.wav,4,RX81,5,0.0,0.0,6.0,89.31368318402099,mgb_normalisation,89.31368318402099,90.34149293193902,4,4.0,True,0.8750181198120117
,2024-07-19 10:06:18,sub_112,3,distance,cathedral,spatial_unmasking,2,79,0,0,_six_,talker-p248_sex-f_text-_six_.wav,p248,f,5,31,6.0,7.0,RX81,6,0.0,0.0,7.0,83.34149293193902,babble-reversed_n13_p256-five-p307-nine-p318-three-p284-eight-p268-one-p248-two.wav,4,RX81,5,0.0,0.0,6.0,89.31368318402099,mgb_normalisation,89.31368318402099,90.34149293193902,6,6.0,True,0.9375214576721193
,2024-07-19 10:06:21,sub_112,3,distance,cathedral,spatial_unmasking,2,80,0,0,_eight_,talker-p248_sex-f_text-_eight_.wav,p248,f,5,32,6.0,7.0,RX81,6,0.0,0.0,7.0,82.34149293193902,babble-reversed_n13_p229-five-p318-two-p307-eight-p268-three-p248-four-p245-one.wav,4,RX81,5,0.0,0.0,6.0,89.313683184021,mgb_normalisation,89.31368318402099,90.34149293193902,8,1.0,False,1.5000333786010742
,2024-07-19 10:06:25,sub_112,3,distance,cathedral,spatial_unmasking,2,81,0,0,_three_,talker-p248_sex-f_text-_three_.wav,p248,f,5,33,6.0,7.0,RX81,6,0.0,0.0,7.0,83.34149293193902,babble-reversed_n13_p229-one-p318-eight-p256-three-p268-nine-p248-five-p284-four.wav,4,RX81,5,0.0,0.0,6.0,89.31368318402099,mgb_normalisation,89.31368318402099,90.34149293193902,3,3.0,True,0.93752121925354
,2024-07-19 10:06:28,sub_112,3,distance,cathedral,spatial_unmasking,2,82,0,0,_three_,talker-p248_sex-f_text-_three_.wav,p248,f,5,34,6.0,7.0,RX81,6,0.0,0.0,7.0,83.34149293193902,babble-reversed_n13_p229-nine-p318-one-p307-two-p248-eight-p245-five-p284-four.wav,4,RX81,5,0.0,0.0,6.0,89.31368318402099,mgb_normalisation,89.31368318402099,90.34149293193902,3,3.0,True,0.9375214576721193
,2024-07-19 10:07:44,sub_112,3,distance,cathedral,spatial_unmasking,3,83,0,0,_five_,talker-p248_sex-f_text-_five_.wav,p248,f,5,1,4.0,7.0,RX81,6,0.0,0.0,7.0,92.34149293193902,babble-reversed_n13_p307-nine-p229-one-p256-eight-p248-four-p284-two-p268-three.wav,2,RX81,3,0.0,0.0,4.0,87.57049330475357,mgb_normalisation,87.57049330475357,90.34149293193902,5,5.0,True,1.1250252723693848
,2024-07-19 10:07:48,sub_112,3,distance,cathedral,spatial_unmasking,3,84,0,0,_two_,talker-p248_sex-f_text-_two_.wav,p248,f,5,2,4.0,7.0,RX81,6,0.0,0.0,7.0,88.34149293193903,babble-reversed_n13_p318-three-p307-one-p256-five-p248-nine-p245-two-p284-eight.wav,2,RX81,3,0.0,0.0,4.0,87.57049330475357,mgb_normalisation,87.57049330475357,90.34149293193902,2,2.0,True,1.0000219345092771
,2024-07-19 10:07:51,sub_112,3,distance,cathedral,spatial_unmasking,3,85,0,0,_six_,talker-p248_sex-f_text-_six_.wav,p248,f,5,3,4.0,7.0,RX81,6,0.0,0.0,7.0,84.341492931939,babble-reversed_n13_p318-five-p229-three-p256-four-p268-eight-p248-one-p245-nine.wav,2,RX81,3,0.0,0.0,4.0,87.57049330475357,mgb_normalisation,87.57049330475357,90.34149293193902,6,6.0,True,1.250077486038208
,2024-07-19 10:07:55,sub_112,3,distance,cathedral,spatial_unmasking,3,86,0,0,_nine_,talker-p248_sex-f_text-_nine_.wav,p248,f,5,4,4.0,7.0,RX81,6,0.0,0.0,7.0,80.341492931939,babble-reversed_n13_p307-two-p256-four-p318-three-p284-eight-p248-five-p245-nine.wav,2,RX81,3,0.0,0.0,4.0,87.57049330475357,mgb_normalisation,87.57049330475357,90.34149293193902,9,3.0,False,0.9375209808349608
,2024-07-19 10:07:59,sub_112,3,distance,cathedral,spatial_unmasking,3,87,0,0,_one_,talker-p248_sex-f_text-_one_.wav,p248,f,5,5,4.0,7.0,RX81,6,0.0,0.0,7.0,82.34149293193902,babble-reversed_n13_p318-four-p256-five-p229-three-p284-one-p245-eight-p248-nine.wav,2,RX81,3,0.0,0.0,4.0,87.57049330475357,mgb_normalisation,87.57049330475357,90.34149293193902,1,1.0,True,1.375028133392334
,2024-07-19 10:08:03,sub_112,3,distance,cathedral,spatial_unmasking,3,88,0,0,_one_,talker-p248_sex-f_text-_one_.wav,p248,f,5,6,4.0,7.0,RX81,6,0.0,0.0,7.0,82.34149293193902,babble-reversed_n13_p256-five-p229-one-p318-three-p248-nine-p284-eight-p268-two.wav,2,RX81,3,0.0,0.0,4.0,87.57049330475357,mgb_normalisation,87.57049330475357,90.34149293193902,1,1.0,True,2.3125534057617188
,2024-07-19 10:08:07,sub_112,3,distance,cathedral,spatial_unmasking,3,89,0,0,_three_,talker-p248_sex-f_text-_three_.wav,p248,f,5,7,4.0,7.0,RX81,6,0.0,0.0,7.0,80.341492931939,babble-reversed_n13_p318-nine-p307-eight-p229-two-p284-one-p248-three-p245-five.wav,2,RX81,3,0.0,0.0,4.0,87.57049330475357,mgb_normalisation,87.57049330475357,90.34149293193902,3,3.0,True,1.2500269412994385
,2024-07-19 10:08:10,sub_112,3,distance,cathedral,spatial_unmasking,3,90,0,0,_four_,talker-p248_sex-f_text-_four_.wav,p248,f,5,8,4.0,7.0,RX81,6,0.0,0.0,7.0,80.341492931939,babble-reversed_n13_p229-one-p318-eight-p256-three-p268-nine-p248-five-p284-four.wav,2,RX81,3,0.0,0.0,4.0,87.57049330475357,mgb_normalisation,87.57049330475357,90.34149293193902,4,4.0,True,1.000023365020752
,2024-07-19 10:08:14,sub_112,3,distance,cathedral,spatial_unmasking,3,91,0,0,_eight_,talker-p248_sex-f_text-_eight_.wav,p248,f,5,9,4.0,7.0,RX81,6,0.0,0.0,7.0,78.34149293193902,babble-reversed_n13_p256-four-p229-eight-p307-five-p248-three-p245-one-p284-two.wav,2,RX81,3,0.0,0.0,4.0,87.57049330475355,mgb_normalisation,87.57049330475357,90.34149293193902,8,3.0,False,1.1250252723693848
,2024-07-19 10:08:17,sub_112,3,distance,cathedral,spatial_unmasking,3,92,0,0,_five_,talker-p248_sex-f_text-_five_.wav,p248,f,5,10,4.0,7.0,RX81,6,0.0,0.0,7.0,79.341492931939,babble-reversed_n13_p229-eight-p256-nine-p318-four-p245-three-p268-five-p284-two.wav,2,RX81,3,0.0,0.0,4.0,87.57049330475355,mgb_normalisation,87.57049330475357,90.34149293193902,5,5.0,True,0.8125174045562744
,2024-07-19 10:08:20,sub_112,3,distance,cathedral,spatial_unmasking,3,93,0,0,_five_,talker-p248_sex-f_text-_five_.wav,p248,f,5,11,4.0,7.0,RX81,6,0.0,0.0,7.0,79.341492931939,babble-reversed_n13_p318-five-p229-four-p256-eight-p284-one-p245-three-p248-two.wav,2,RX81,3,0.0,0.0,4.0,87.57049330475357,mgb_normalisation,87.57049330475357,90.34149293193902,5,5.0,True,0.7500171661376953
,2024-07-19 10:08:24,sub_112,3,distance,cathedral,spatial_unmasking,3,94,0,0,_nine_,talker-p248_sex-f_text-_nine_.wav,p248,f,5,12,4.0,7.0,RX81,6,0.0,0.0,7.0,78.34149293193902,babble-reversed_n13_p229-nine-p307-five-p256-two-p248-three-p245-one-p268-eight.wav,2,RX81,3,0.0,0.0,4.0,87.57049330475357,mgb_normalisation,87.57049330475357,90.34149293193902,9,3.0,False,1.1875269412994385
,2024-07-19 10:08:27,sub_112,3,distance,cathedral,spatial_unmasking,3,95,0,0,_three_,talker-p248_sex-f_text-_three_.wav,p248,f,5,13,4.0,7.0,RX81,6,0.0,0.0,7.0,79.341492931939,babble-reversed_n13_p307-four-p318-three-p256-eight-p284-two-p245-nine-p248-five.wav,2,RX81,3,0.0,0.0,4.0,87.57049330475355,mgb_normalisation,87.57049330475357,90.34149293193902,3,3.0,True,1.0000638961791992
,2024-07-19 10:08:31,sub_112,3,distance,cathedral,spatial_unmasking,3,96,0,0,_four_,talker-p248_sex-f_text-_four_.wav,p248,f,5,14,4.0,7.0,RX81,6,0.0,0.0,7.0,79.341492931939,babble-reversed_n13_p307-one-p318-five-p229-four-p268-eight-p284-two-p245-three.wav,2,RX81,3,0.0,0.0,4.0,87.57049330475355,mgb_normalisation,87.57049330475357,90.34149293193902,4,4.0,True,1.187535285949707
,2024-07-19 10:08:34,sub_112,3,distance,cathedral,spatial_unmasking,3,97,0,0,_three_,talker-p248_sex-f_text-_three_.wav,p248,f,5,15,4.0,7.0,RX81,6,0.0,0.0,7.0,78.34149293193902,babble-reversed_n13_p307-nine-p318-two-p256-one-p245-three-p268-four-p248-eight.wav,2,RX81,3,0.0,0.0,4.0,87.57049330475355,mgb_normalisation,87.57049330475357,90.34149293193902,3,3.0,True,1.3750958442687988
,2024-07-19 10:08:38,sub_112,3,distance,cathedral,spatial_unmasking,3,98,0,0,_five_,talker-p248_sex-f_text-_five_.wav,p248,f,5,16,4.0,7.0,RX81,6,0.0,0.0,7.0,78.341492931939,babble-reversed_n13_p318-five-p256-nine-p307-two-p245-eight-p248-one-p284-four.wav,2,RX81,3,0.0,0.0,4.0,87.57049330475357,mgb_normalisation,87.57049330475357,90.34149293193902,5,5.0,True,0.8749756813049316
,2024-07-19 10:08:41,sub_112,3,distance,cathedral,spatial_unmasking,3,99,0,0,_five_,talker-p248_sex-f_text-_five_.wav,p248,f,5,17,4.0,7.0,RX81,6,0.0,0.0,7.0,77.341492931939,babble-reversed_n13_p307-one-p318-five-p229-four-p268-eight-p284-two-p245-three.wav,2,RX81,3,0.0,0.0,4.0,87.57049330475355,mgb_normalisation,87.57049330475357,90.34149293193902,5,5.0,True,0.9374959468841552
,2024-07-19 10:08:44,sub_112,3,distance,cathedral,spatial_unmasking,3,100,0,0,_three_,talker-p248_sex-f_text-_three_.wav,p248,f,5,18,4.0,7.0,RX81,6,0.0,0.0,7.0,77.34149293193902,babble-reversed_n13_p307-nine-p229-one-p256-eight-p248-four-p284-two-p268-three.wav,2,RX81,3,0.0,0.0,4.0,87.57049330475357,mgb_normalisation,87.57049330475357,90.34149293193902,3,3.0,True,1.0000474452972412
,2024-07-19 10:08:48,sub_112,3,distance,cathedral,spatial_unmasking,3,101,0,0,_two_,talker-p248_sex-f_text-_two_.wav,p248,f,5,19,4.0,7.0,RX81,6,0.0,0.0,7.0,76.34149293193902,babble-reversed_n13_p229-five-p318-three-p307-two-p245-four-p284-nine-p248-eight.wav,2,RX81,3,0.0,0.0,4.0,87.57049330475357,mgb_normalisation,87.57049330475357,90.34149293193902,2,4.0,False,1.1875269412994385
,2024-07-19 10:08:51,sub_112,3,distance,cathedral,spatial_unmasking,3,102,0,0,_eight_,talker-p248_sex-f_text-_eight_.wav,p248,f,5,20,4.0,7.0,RX81,6,0.0,0.0,7.0,77.34149293193903,babble-reversed_n13_p256-four-p307-eight-p318-two-p248-three-p284-nine-p268-one.wav,2,RX81,3,0.0,0.0,4.0,87.57049330475357,mgb_normalisation,87.57049330475357,90.34149293193902,8,3.0,False,1.062523365020752
,2024-07-19 10:08:55,sub_112,3,distance,cathedral,spatial_unmasking,3,103,0,0,_two_,talker-p248_sex-f_text-_two_.wav,p248,f,5,21,4.0,7.0,RX81,6,0.0,0.0,7.0,78.34149293193902,babble-reversed_n13_p318-five-p256-nine-p307-eight-p248-two-p245-four-p284-three.wav,2,RX81,3,0.0,0.0,4.0,87.57049330475357,mgb_normalisation,87.57049330475357,90.34149293193902,2,2.0,True,0.8125178813934326
,2024-07-19 10:08:59,sub_112,3,distance,cathedral,spatial_unmasking,3,104,0,0,_eight_,talker-p248_sex-f_text-_eight_.wav,p248,f,5,22,4.0,7.0,RX81,6,0.0,0.0,7.0,78.34149293193902,babble-reversed_n13_p307-four-p318-three-p256-eight-p284-two-p245-nine-p248-five.wav,2,RX81,3,0.0,0.0,4.0,87.57049330475355,mgb_normalisation,87.57049330475357,90.34149293193902,8,1.0,False,2.4375550746917725
,2024-07-19 10:09:03,sub_112,3,distance,cathedral,spatial_unmasking,3,105,0,0,_three_,talker-p248_sex-f_text-_three_.wav,p248,f,5,23,4.0,7.0,RX81,6,0.0,0.0,7.0,79.341492931939,babble-reversed_n13_p307-one-p318-five-p229-four-p268-eight-p284-two-p245-three.wav,2,RX81,3,0.0,0.0,4.0,87.57049330475355,mgb_normalisation,87.57049330475357,90.34149293193902,3,3.0,True,1.1250252723693848
,2024-07-19 10:09:07,sub_112,3,distance,cathedral,spatial_unmasking,3,106,0,0,_eight_,talker-p248_sex-f_text-_eight_.wav,p248,f,5,24,4.0,7.0,RX81,6,0.0,0.0,7.0,79.34149293193902,babble-reversed_n13_p229-eight-p256-nine-p318-four-p245-three-p268-five-p284-two.wav,2,RX81,3,0.0,0.0,4.0,87.57049330475355,mgb_normalisation,87.57049330475357,90.34149293193902,8,2.0,False,1.3125293254852295
,2024-07-19 10:09:10,sub_112,3,distance,cathedral,spatial_unmasking,3,107,0,0,_five_,talker-p248_sex-f_text-_five_.wav,p248,f,5,25,4.0,7.0,RX81,6,0.0,0.0,7.0,80.341492931939,babble-reversed_n13_p307-nine-p318-two-p256-one-p245-three-p268-four-p248-eight.wav,2,RX81,3,0.0,0.0,4.0,87.57049330475355,mgb_normalisation,87.57049330475357,90.34149293193902,5,5.0,True,0.9375207424163818
,2024-07-19 10:09:13,sub_112,3,distance,cathedral,spatial_unmasking,3,108,0,0,_six_,talker-p248_sex-f_text-_six_.wav,p248,f,5,26,4.0,7.0,RX81,6,0.0,0.0,7.0,80.34149293193903,babble-reversed_n13_p307-two-p256-four-p318-three-p284-eight-p248-five-p245-nine.wav,2,RX81,3,0.0,0.0,4.0,87.57049330475357,mgb_normalisation,87.57049330475357,90.34149293193902,6,6.0,True,0.625014066696167
,2024-07-19 10:09:18,sub_112,3,distance,cathedral,spatial_unmasking,3,109,0,0,_five_,talker-p248_sex-f_text-_five_.wav,p248,f,5,27,4.0,7.0,RX81,6,0.0,0.0,7.0,79.341492931939,babble-reversed_n13_p229-nine-p307-five-p256-two-p248-three-p245-one-p268-eight.wav,2,RX81,3,0.0,0.0,4.0,87.57049330475357,mgb_normalisation,87.57049330475357,90.34149293193902,5,5.0,True,2.3750529289245605
,2024-07-19 10:09:22,sub_112,3,distance,cathedral,spatial_unmasking,3,110,0,0,_four_,talker-p248_sex-f_text-_four_.wav,p248,f,5,28,4.0,7.0,RX81,6,0.0,0.0,7.0,79.341492931939,babble-reversed_n13_p307-five-p229-two-p318-four-p248-three-p245-nine-p268-eight.wav,2,RX81,3,0.0,0.0,4.0,87.57049330475355,mgb_normalisation,87.57049330475357,90.34149293193902,4,3.0,False,1.4375317096710205
,2024-07-19 10:09:25,sub_112,3,distance,cathedral,spatial_unmasking,3,111,0,0,_three_,talker-p248_sex-f_text-_three_.wav,p248,f,5,29,4.0,7.0,RX81,6,0.0,0.0,7.0,80.341492931939,babble-reversed_n13_p307-nine-p318-two-p256-one-p245-three-p268-four-p248-eight.wav,2,RX81,3,0.0,0.0,4.0,87.57049330475355,mgb_normalisation,87.57049330475357,90.34149293193902,3,3.0,True,0.9375247955322266
,2024-07-19 10:09:28,sub_112,3,distance,cathedral,spatial_unmasking,3,112,0,0,_nine_,talker-p248_sex-f_text-_nine_.wav,p248,f,5,30,4.0,7.0,RX81,6,0.0,0.0,7.0,80.341492931939,babble-reversed_n13_p307-two-p256-four-p318-three-p284-eight-p248-five-p245-nine.wav,2,RX81,3,0.0,0.0,4.0,87.57049330475357,mgb_normalisation,87.57049330475357,90.34149293193902,9,3.0,False,0.93752121925354
,2024-07-19 10:09:33,sub_112,3,distance,cathedral,spatial_unmasking,3,113,0,0,_eight_,talker-p248_sex-f_text-_eight_.wav,p248,f,5,31,4.0,7.0,RX81,6,0.0,0.0,7.0,81.34149293193902,babble-reversed_n13_p318-nine-p256-five-p307-eight-p268-three-p248-one-p245-four.wav,2,RX81,3,0.0,0.0,4.0,87.57049330475357,mgb_normalisation,87.57049330475357,90.34149293193902,8,4.0,False,2.1250720024108887
,2024-07-19 10:09:36,sub_112,3,distance,cathedral,spatial_unmasking,3,114,0,0,_five_,talker-p248_sex-f_text-_five_.wav,p248,f,5,32,4.0,7.0,RX81,6,0.0,0.0,7.0,82.341492931939,babble-reversed_n13_p307-two-p229-one-p256-five-p248-nine-p284-three-p268-eight.wav,2,RX81,3,0.0,0.0,4.0,87.57049330475357,mgb_normalisation,87.57049330475357,90.34149293193902,5,5.0,True,1.1250252723693848
,2024-07-19 10:09:39,sub_112,3,distance,cathedral,spatial_unmasking,3,115,0,0,_five_,talker-p248_sex-f_text-_five_.wav,p248,f,5,33,4.0,7.0,RX81,6,0.0,0.0,7.0,82.341492931939,babble-reversed_n13_p229-three-p256-one-p307-two-p284-eight-p268-five-p248-nine.wav,2,RX81,3,0.0,0.0,4.0,87.57049330475357,mgb_normalisation,87.57049330475357,90.34149293193902,5,5.0,True,0.6875150203704834
,2024-07-19 10:09:43,sub_112,3,distance,cathedral,spatial_unmasking,3,116,0,0,_six_,talker-p248_sex-f_text-_six_.wav,p248,f,5,34,4.0,7.0,RX81,6,0.0,0.0,7.0,81.34149293193902,babble-reversed_n13_p318-nine-p256-five-p307-eight-p268-three-p248-one-p245-four.wav,2,RX81,3,0.0,0.0,4.0,87.57049330475357,mgb_normalisation,87.57049330475357,90.34149293193902,6,6.0,True,1.0625240802764893
,2024-07-19 10:09:46,sub_112,3,distance,cathedral,spatial_unmasking,3,117,0,0,_six_,talker-p248_sex-f_text-_six_.wav,p248,f,5,35,4.0,7.0,RX81,6,0.0,0.0,7.0,81.34149293193902,babble-reversed_n13_p229-two-p307-five-p318-four-p284-one-p248-nine-p268-eight.wav,2,RX81,3,0.0,0.0,4.0,87.57049330475357,mgb_normalisation,87.57049330475357,90.34149293193902,6,6.0,True,0.8125467300415039
,2024-07-19 10:09:49,sub_112,3,distance,cathedral,spatial_unmasking,3,118,0,0,_nine_,talker-p248_sex-f_text-_nine_.wav,p248,f,5,36,4.0,7.0,RX81,6,0.0,0.0,7.0,80.341492931939,babble-reversed_n13_p256-nine-p307-four-p229-one-p284-three-p248-two-p245-five.wav,2,RX81,3,0.0,0.0,4.0,87.57049330475357,mgb_normalisation,87.57049330475357,90.34149293193902,9,9.0,True,1.0625901222229004
,2024-07-19 10:09:53,sub_112,3,distance,cathedral,spatial_unmasking,3,119,0,0,_five_,talker-p248_sex-f_text-_five_.wav,p248,f,5,37,4.0,7.0,RX81,6,0.0,0.0,7.0,80.341492931939,babble-reversed_n13_p307-two-p229-one-p256-five-p248-nine-p284-three-p268-eight.wav,2,RX81,3,0.0,0.0,4.0,87.57049330475357,mgb_normalisation,87.57049330475357,90.34149293193902,5,5.0,True,1.1875264644622805
,2024-07-19 10:09:57,sub_112,3,distance,cathedral,spatial_unmasking,3,120,0,0,_five_,talker-p248_sex-f_text-_five_.wav,p248,f,5,38,4.0,7.0,RX81,6,0.0,0.0,7.0,79.341492931939,babble-reversed_n13_p318-nine-p307-eight-p229-two-p284-one-p248-three-p245-five.wav,2,RX81,3,0.0,0.0,4.0,87.57049330475357,mgb_normalisation,87.57049330475357,90.34149293193902,5,3.0,False,1.500078201293945
,2024-07-19 10:10:02,sub_112,3,distance,cathedral,spatial_unmasking,3,121,0,0,_nine_,talker-p248_sex-f_text-_nine_.wav,p248,f,5,39,4.0,7.0,RX81,6,0.0,0.0,7.0,80.341492931939,babble-reversed_n13_p229-nine-p256-four-p318-three-p268-eight-p248-two-p284-five.wav,2,RX81,3,0.0,0.0,4.0,87.57049330475357,mgb_normalisation,87.57049330475357,90.34149293193902,9,9.0,True,2.5625345706939697
,2024-07-19 10:10:05,sub_112,3,distance,cathedral,spatial_unmasking,3,122,0,0,_six_,talker-p248_sex-f_text-_six_.wav,p248,f,5,40,4.0,7.0,RX81,6,0.0,0.0,7.0,80.34149293193903,babble-reversed_n13_p229-two-p307-five-p318-four-p284-one-p248-nine-p268-eight.wav,2,RX81,3,0.0,0.0,4.0,87.57049330475357,mgb_normalisation,87.57049330475357,90.34149293193902,6,6.0,True,0.93752121925354
,2024-07-19 10:11:17,sub_112,3,distance,cathedral,spatial_unmasking,4,123,0,0,_five_,talker-p248_sex-f_text-_five_.wav,p248,f,5,1,7.0,7.0,RX81,6,0.0,0.0,7.0,92.34149293193902,babble-reversed_n13_p307-nine-p229-one-p256-eight-p248-four-p284-two-p268-three.wav,5,RX81,6,0.0,0.0,7.0,90.34149293193904,mgb_normalisation,90.34149293193902,90.34149293193902,5,5.0,True,1.1250250339508057
,2024-07-19 10:11:20,sub_112,3,distance,cathedral,spatial_unmasking,4,124,0,0,_three_,talker-p248_sex-f_text-_three_.wav,p248,f,5,2,7.0,7.0,RX81,6,0.0,0.0,7.0,88.34149293193902,babble-reversed_n13_p229-nine-p318-one-p307-two-p248-eight-p245-five-p284-four.wav,5,RX81,6,0.0,0.0,7.0,90.34149293193904,mgb_normalisation,90.34149293193902,90.34149293193902,3,3.0,True,0.8750190734863281
,2024-07-19 10:11:25,sub_112,3,distance,cathedral,spatial_unmasking,4,125,0,0,_eight_,talker-p248_sex-f_text-_eight_.wav,p248,f,5,3,7.0,7.0,RX81,6,0.0,0.0,7.0,84.34149293193903,babble-reversed_n13_p229-five-p318-two-p307-eight-p268-three-p248-four-p245-one.wav,5,RX81,6,0.0,0.0,7.0,90.34149293193904,mgb_normalisation,90.34149293193902,90.34149293193902,8,4.0,False,2.3125476837158203
,2024-07-19 10:11:28,sub_112,3,distance,cathedral,spatial_unmasking,4,126,0,0,_nine_,talker-p248_sex-f_text-_nine_.wav,p248,f,5,4,7.0,7.0,RX81,6,0.0,0.0,7.0,86.34149293193902,babble-reversed_n13_p318-four-p256-five-p229-three-p284-one-p245-eight-p248-nine.wav,5,RX81,6,0.0,0.0,7.0,90.34149293193904,mgb_normalisation,90.34149293193902,90.34149293193902,9,9.0,True,0.9375200271606444
,2024-07-19 10:11:31,sub_112,3,distance,cathedral,spatial_unmasking,4,127,0,0,_four_,talker-p248_sex-f_text-_four_.wav,p248,f,5,5,7.0,7.0,RX81,6,0.0,0.0,7.0,86.341492931939,babble-reversed_n13_p318-three-p229-one-p256-eight-p245-five-p248-four-p284-nine.wav,5,RX81,6,0.0,0.0,7.0,90.34149293193904,mgb_normalisation,90.34149293193902,90.34149293193902,4,4.0,True,1.0625238418579102
,2024-07-19 10:11:34,sub_112,3,distance,cathedral,spatial_unmasking,4,128,0,0,_five_,talker-p248_sex-f_text-_five_.wav,p248,f,5,6,7.0,7.0,RX81,6,0.0,0.0,7.0,84.341492931939,babble-reversed_n13_p318-four-p256-five-p229-three-p284-one-p245-eight-p248-nine.wav,5,RX81,6,0.0,0.0,7.0,90.34149293193904,mgb_normalisation,90.34149293193902,90.34149293193902,5,9.0,False,0.8750174045562744
,2024-07-19 10:11:38,sub_112,3,distance,cathedral,spatial_unmasking,4,129,0,0,_four_,talker-p248_sex-f_text-_four_.wav,p248,f,5,7,7.0,7.0,RX81,6,0.0,0.0,7.0,85.341492931939,babble-reversed_n13_p307-four-p318-three-p256-eight-p284-two-p245-nine-p248-five.wav,5,RX81,6,0.0,0.0,7.0,90.341492931939,mgb_normalisation,90.34149293193902,90.34149293193902,4,4.0,True,1.562551975250244
,2024-07-19 10:11:41,sub_112,3,distance,cathedral,spatial_unmasking,4,130,0,0,_four_,talker-p248_sex-f_text-_four_.wav,p248,f,5,8,7.0,7.0,RX81,6,0.0,0.0,7.0,85.341492931939,babble-reversed_n13_p318-five-p229-four-p256-eight-p284-one-p245-three-p248-two.wav,5,RX81,6,0.0,0.0,7.0,90.34149293193904,mgb_normalisation,90.34149293193902,90.34149293193902,4,4.0,True,1.0000219345092771
,2024-07-19 10:11:45,sub_112,3,distance,cathedral,spatial_unmasking,4,131,0,0,_one_,talker-p248_sex-f_text-_one_.wav,p248,f,5,9,7.0,7.0,RX81,6,0.0,0.0,7.0,84.34149293193903,babble-reversed_n13_p307-five-p229-three-p318-nine-p245-four-p268-eight-p284-two.wav,5,RX81,6,0.0,0.0,7.0,90.341492931939,mgb_normalisation,90.34149293193902,90.34149293193902,1,1.0,True,0.93752121925354
,2024-07-19 10:11:48,sub_112,3,distance,cathedral,spatial_unmasking,4,132,0,0,_four_,talker-p248_sex-f_text-_four_.wav,p248,f,5,10,7.0,7.0,RX81,6,0.0,0.0,7.0,84.341492931939,babble-reversed_n13_p307-five-p229-three-p318-nine-p245-four-p268-eight-p284-two.wav,5,RX81,6,0.0,0.0,7.0,90.341492931939,mgb_normalisation,90.34149293193902,90.34149293193902,4,4.0,True,0.9375209808349608
,2024-07-19 10:11:51,sub_112,3,distance,cathedral,spatial_unmasking,4,133,0,0,_four_,talker-p248_sex-f_text-_four_.wav,p248,f,5,11,7.0,7.0,RX81,6,0.0,0.0,7.0,83.34149293193902,babble-reversed_n13_p318-nine-p256-five-p307-eight-p268-three-p248-one-p245-four.wav,5,RX81,6,0.0,0.0,7.0,90.34149293193904,mgb_normalisation,90.34149293193902,90.34149293193902,4,4.0,True,1.0000216960906982
,2024-07-19 10:11:55,sub_112,3,distance,cathedral,spatial_unmasking,4,134,0,0,_three_,talker-p248_sex-f_text-_three_.wav,p248,f,5,12,7.0,7.0,RX81,6,0.0,0.0,7.0,83.34149293193902,babble-reversed_n13_p256-five-p307-nine-p318-three-p284-eight-p268-one-p248-two.wav,5,RX81,6,0.0,0.0,7.0,90.34149293193904,mgb_normalisation,90.34149293193902,90.34149293193902,3,3.0,True,1.500033617019653
,2024-07-19 10:11:58,sub_112,3,distance,cathedral,spatial_unmasking,4,135,0,0,_three_,talker-p248_sex-f_text-_three_.wav,p248,f,5,13,7.0,7.0,RX81,6,0.0,0.0,7.0,82.34149293193902,babble-reversed_n13_p318-five-p229-four-p256-eight-p284-one-p245-three-p248-two.wav,5,RX81,6,0.0,0.0,7.0,90.34149293193904,mgb_normalisation,90.34149293193902,90.34149293193902,3,3.0,True,0.8750205039978027
,2024-07-19 10:12:01,sub_112,3,distance,cathedral,spatial_unmasking,4,136,0,0,_six_,talker-p248_sex-f_text-_six_.wav,p248,f,5,14,7.0,7.0,RX81,6,0.0,0.0,7.0,82.34149293193902,babble-reversed_n13_p229-five-p256-one-p318-three-p248-nine-p268-four-p284-eight.wav,5,RX81,6,0.0,0.0,7.0,90.341492931939,mgb_normalisation,90.34149293193902,90.34149293193902,6,6.0,True,0.9375214576721193
,2024-07-19 10:12:04,sub_112,3,distance,cathedral,spatial_unmasking,4,137,0,0,_nine_,talker-p248_sex-f_text-_nine_.wav,p248,f,5,15,7.0,7.0,RX81,6,0.0,0.0,7.0,81.34149293193902,babble-reversed_n13_p229-three-p256-one-p307-two-p284-eight-p268-five-p248-nine.wav,5,RX81,6,0.0,0.0,7.0,90.34149293193904,mgb_normalisation,90.34149293193902,90.34149293193902,9,9.0,True,0.8750193119049072
,2024-07-19 10:12:08,sub_112,3,distance,cathedral,spatial_unmasking,4,138,0,0,_six_,talker-p248_sex-f_text-_six_.wav,p248,f,5,16,7.0,7.0,RX81,6,0.0,0.0,7.0,81.34149293193902,babble-reversed_n13_p256-nine-p307-four-p229-one-p284-three-p248-two-p245-five.wav,5,RX81,6,0.0,0.0,7.0,90.34149293193904,mgb_normalisation,90.34149293193902,90.34149293193902,6,6.0,True,0.8125183582305908
,2024-07-19 10:12:11,sub_112,3,distance,cathedral,spatial_unmasking,4,139,0,0,_six_,talker-p248_sex-f_text-_six_.wav,p248,f,5,17,7.0,7.0,RX81,6,0.0,0.0,7.0,80.34149293193903,babble-reversed_n13_p229-two-p256-three-p318-eight-p284-five-p268-four-p245-one.wav,5,RX81,6,0.0,0.0,7.0,90.34149293193904,mgb_normalisation,90.34149293193902,90.34149293193902,6,6.0,True,1.0625250339508057
,2024-07-19 10:12:15,sub_112,3,distance,cathedral,spatial_unmasking,4,140,0,0,_five_,talker-p248_sex-f_text-_five_.wav,p248,f,5,18,7.0,7.0,RX81,6,0.0,0.0,7.0,80.341492931939,babble-reversed_n13_p307-two-p229-one-p256-five-p248-nine-p284-three-p268-eight.wav,5,RX81,6,0.0,0.0,7.0,90.34149293193904,mgb_normalisation,90.34149293193902,90.34149293193902,5,5.0,True,1.4375295639038086
,2024-07-19 10:12:18,sub_112,3,distance,cathedral,spatial_unmasking,4,141,0,0,_two_,talker-p248_sex-f_text-_two_.wav,p248,f,5,19,7.0,7.0,RX81,6,0.0,0.0,7.0,79.34149293193902,babble-reversed_n13_p307-two-p229-one-p256-five-p248-nine-p284-three-p268-eight.wav,5,RX81,6,0.0,0.0,7.0,90.34149293193904,mgb_normalisation,90.34149293193902,90.34149293193902,2,2.0,True,1.1875288486480713
,2024-07-19 10:12:21,sub_112,3,distance,cathedral,spatial_unmasking,4,142,0,0,_four_,talker-p248_sex-f_text-_four_.wav,p248,f,5,20,7.0,7.0,RX81,6,0.0,0.0,7.0,79.341492931939,babble-reversed_n13_p229-one-p318-eight-p256-three-p268-nine-p248-five-p284-four.wav,5,RX81,6,0.0,0.0,7.0,90.341492931939,mgb_normalisation,90.34149293193902,90.34149293193902,4,1.0,False,0.8750381469726562
,2024-07-19 10:12:25,sub_112,3,distance,cathedral,spatial_unmasking,4,143,0,0,_six_,talker-p248_sex-f_text-_six_.wav,p248,f,5,21,7.0,7.0,RX81,6,0.0,0.0,7.0,80.34149293193903,babble-reversed_n13_p229-five-p256-three-p318-nine-p248-two-p284-four-p268-one.wav,5,RX81,6,0.0,0.0,7.0,90.34149293193904,mgb_normalisation,90.34149293193902,90.34149293193902,6,6.0,True,1.0625240802764893
,2024-07-19 10:12:28,sub_112,3,distance,cathedral,spatial_unmasking,4,144,0,0,_four_,talker-p248_sex-f_text-_four_.wav,p248,f,5,22,7.0,7.0,RX81,6,0.0,0.0,7.0,80.341492931939,babble-reversed_n13_p318-three-p307-one-p256-five-p248-nine-p245-two-p284-eight.wav,5,RX81,6,0.0,0.0,7.0,90.34149293193904,mgb_normalisation,90.34149293193902,90.34149293193902,4,3.0,False,1.1250240802764893
,2024-07-19 10:12:32,sub_112,3,distance,cathedral,spatial_unmasking,4,145,0,0,_nine_,talker-p248_sex-f_text-_nine_.wav,p248,f,5,23,7.0,7.0,RX81,6,0.0,0.0,7.0,81.34149293193902,babble-reversed_n13_p229-five-p256-one-p318-three-p248-nine-p268-four-p284-eight.wav,5,RX81,6,0.0,0.0,7.0,90.341492931939,mgb_normalisation,90.34149293193902,90.34149293193902,9,9.0,True,1.1875264644622805
,2024-07-19 10:12:35,sub_112,3,distance,cathedral,spatial_unmasking,4,146,0,0,_two_,talker-p248_sex-f_text-_two_.wav,p248,f,5,24,7.0,7.0,RX81,6,0.0,0.0,7.0,81.34149293193902,babble-reversed_n13_p256-eight-p318-two-p307-five-p245-four-p268-nine-p284-one.wav,5,RX81,6,0.0,0.0,7.0,90.34149293193904,mgb_normalisation,90.34149293193902,90.34149293193902,2,2.0,True,1.2500269412994385
,2024-07-19 10:12:39,sub_112,3,distance,cathedral,spatial_unmasking,4,147,0,0,_eight_,talker-p248_sex-f_text-_eight_.wav,p248,f,5,25,7.0,7.0,RX81,6,0.0,0.0,7.0,80.34149293193903,babble-reversed_n13_p229-nine-p256-four-p318-three-p268-eight-p248-two-p284-five.wav,5,RX81,6,0.0,0.0,7.0,90.34149293193904,mgb_normalisation,90.34149293193902,90.34149293193902,8,3.0,False,1.1250245571136477
,2024-07-19 10:12:42,sub_112,3,distance,cathedral,spatial_unmasking,4,148,0,0,_eight_,talker-p248_sex-f_text-_eight_.wav,p248,f,5,26,7.0,7.0,RX81,6,0.0,0.0,7.0,81.34149293193902,babble-reversed_n13_p318-five-p229-three-p256-four-p268-eight-p248-one-p245-nine.wav,5,RX81,6,0.0,0.0,7.0,90.34149293193904,mgb_normalisation,90.34149293193902,90.34149293193902,8,1.0,False,1.6250360012054443
,2024-07-19 10:12:46,sub_112,3,distance,cathedral,spatial_unmasking,4,149,0,0,_eight_,talker-p248_sex-f_text-_eight_.wav,p248,f,5,27,7.0,7.0,RX81,6,0.0,0.0,7.0,82.34149293193902,babble-reversed_n13_p318-five-p229-four-p256-eight-p284-one-p245-three-p248-two.wav,5,RX81,6,0.0,0.0,7.0,90.34149293193904,mgb_normalisation,90.34149293193902,90.34149293193902,8,2.0,False,1.250028133392334
,2024-07-19 10:12:49,sub_112,3,distance,cathedral,spatial_unmasking,4,150,0,0,_six_,talker-p248_sex-f_text-_six_.wav,p248,f,5,28,7.0,7.0,RX81,6,0.0,0.0,7.0,83.34149293193902,babble-reversed_n13_p229-one-p318-eight-p256-three-p268-nine-p248-five-p284-four.wav,5,RX81,6,0.0,0.0,7.0,90.341492931939,mgb_normalisation,90.34149293193902,90.34149293193902,6,6.0,True,0.9374947547912598
,2024-07-19 10:12:53,sub_112,3,distance,cathedral,spatial_unmasking,4,151,0,0,_five_,talker-p248_sex-f_text-_five_.wav,p248,f,5,29,7.0,7.0,RX81,6,0.0,0.0,7.0,83.34149293193902,babble-reversed_n13_p229-two-p307-five-p318-four-p284-one-p248-nine-p268-eight.wav,5,RX81,6,0.0,0.0,7.0,90.34149293193904,mgb_normalisation,90.34149293193902,90.34149293193902,5,5.0,True,1.1250317096710205
,2024-07-19 10:12:56,sub_112,3,distance,cathedral,spatial_unmasking,4,152,0,0,_five_,talker-p248_sex-f_text-_five_.wav,p248,f,5,30,7.0,7.0,RX81,6,0.0,0.0,7.0,82.341492931939,babble-reversed_n13_p307-four-p318-three-p256-eight-p284-two-p245-nine-p248-five.wav,5,RX81,6,0.0,0.0,7.0,90.341492931939,mgb_normalisation,90.34149293193902,90.34149293193902,5,5.0,True,0.875072717666626
,2024-07-19 10:12:59,sub_112,3,distance,cathedral,spatial_unmasking,4,153,0,0,_five_,talker-p248_sex-f_text-_five_.wav,p248,f,5,31,7.0,7.0,RX81,6,0.0,0.0,7.0,82.341492931939,babble-reversed_n13_p256-five-p307-nine-p318-three-p284-eight-p268-one-p248-two.wav,5,RX81,6,0.0,0.0,7.0,90.34149293193904,mgb_normalisation,90.34149293193902,90.34149293193902,5,5.0,True,0.8750848770141602
,2024-07-19 10:13:02,sub_112,3,distance,cathedral,spatial_unmasking,4,154,0,0,_nine_,talker-p248_sex-f_text-_nine_.wav,p248,f,5,32,7.0,7.0,RX81,6,0.0,0.0,7.0,81.34149293193902,babble-reversed_n13_p307-two-p229-one-p256-five-p248-nine-p284-three-p268-eight.wav,5,RX81,6,0.0,0.0,7.0,90.34149293193904,mgb_normalisation,90.34149293193902,90.34149293193902,9,9.0,True,0.8750205039978027
,2024-07-19 10:13:06,sub_112,3,distance,cathedral,spatial_unmasking,4,155,0,0,_two_,talker-p248_sex-f_text-_two_.wav,p248,f,5,33,7.0,7.0,RX81,6,0.0,0.0,7.0,81.34149293193902,babble-reversed_n13_p229-two-p307-five-p318-four-p284-one-p248-nine-p268-eight.wav,5,RX81,6,0.0,0.0,7.0,90.34149293193904,mgb_normalisation,90.34149293193902,90.34149293193902,2,1.0,False,1.6875624656677246
,2024-07-19 10:13:10,sub_112,3,distance,cathedral,spatial_unmasking,4,156,0,0,_four_,talker-p248_sex-f_text-_four_.wav,p248,f,5,34,7.0,7.0,RX81,6,0.0,0.0,7.0,82.34149293193902,babble-reversed_n13_p229-five-p318-two-p307-eight-p268-three-p248-four-p245-one.wav,5,RX81,6,0.0,0.0,7.0,90.34149293193904,mgb_normalisation,90.34149293193902,90.34149293193902,4,1.0,False,1.3125290870666504
,2024-07-19 10:13:13,sub_112,3,distance,cathedral,spatial_unmasking,4,157,0,0,_six_,talker-p248_sex-f_text-_six_.wav,p248,f,5,35,7.0,7.0,RX81,6,0.0,0.0,7.0,83.34149293193902,babble-reversed_n13_p229-nine-p256-four-p318-three-p268-eight-p248-two-p284-five.wav,5,RX81,6,0.0,0.0,7.0,90.34149293193904,mgb_normalisation,90.34149293193902,90.34149293193902,6,6.0,True,1.0000219345092771
,2024-07-19 10:13:17,sub_112,3,distance,cathedral,spatial_unmasking,4,158,0,0,_five_,talker-p248_sex-f_text-_five_.wav,p248,f,5,36,7.0,7.0,RX81,6,0.0,0.0,7.0,83.34149293193902,babble-reversed_n13_p318-four-p256-five-p229-three-p284-one-p245-eight-p248-nine.wav,5,RX81,6,0.0,0.0,7.0,90.34149293193904,mgb_normalisation,90.34149293193902,90.34149293193902,5,5.0,True,1.2500278949737549
,2024-07-19 10:13:20,sub_112,3,distance,cathedral,spatial_unmasking,4,159,0,0,_six_,talker-p248_sex-f_text-_six_.wav,p248,f,5,37,7.0,7.0,RX81,6,0.0,0.0,7.0,82.34149293193902,babble-reversed_n13_p256-two-p307-five-p318-nine-p248-eight-p245-four-p284-one.wav,5,RX81,6,0.0,0.0,7.0,90.34149293193904,mgb_normalisation,90.34149293193902,90.34149293193902,6,6.0,True,0.8124916553497314
,2024-07-19 10:13:23,sub_112,3,distance,cathedral,spatial_unmasking,4,160,0,0,_nine_,talker-p248_sex-f_text-_nine_.wav,p248,f,5,38,7.0,7.0,RX81,6,0.0,0.0,7.0,82.34149293193902,babble-reversed_n13_p229-five-p318-two-p307-eight-p268-three-p248-four-p245-one.wav,5,RX81,6,0.0,0.0,7.0,90.34149293193904,mgb_normalisation,90.34149293193902,90.34149293193902,9,9.0,True,1.1250057220458984
,2024-07-19 10:13:27,sub_112,3,distance,cathedral,spatial_unmasking,4,161,0,0,_three_,talker-p248_sex-f_text-_three_.wav,p248,f,5,39,7.0,7.0,RX81,6,0.0,0.0,7.0,81.34149293193902,babble-reversed_n13_p307-two-p256-four-p318-three-p284-eight-p248-five-p245-nine.wav,5,RX81,6,0.0,0.0,7.0,90.34149293193904,mgb_normalisation,90.34149293193902,90.34149293193902,3,3.0,True,1.4687824249267578
,2024-07-19 10:13:31,sub_112,3,distance,cathedral,spatial_unmasking,4,162,0,0,_eight_,talker-p248_sex-f_text-_eight_.wav,p248,f,5,40,7.0,7.0,RX81,6,0.0,0.0,7.0,81.34149293193902,babble-reversed_n13_p307-one-p318-five-p229-four-p268-eight-p284-two-p245-three.wav,5,RX81,6,0.0,0.0,7.0,90.341492931939,mgb_normalisation,90.34149293193902,90.34149293193902,8,4.0,False,1.3749661445617676
,2024-07-19 10:13:34,sub_112,3,distance,cathedral,spatial_unmasking,4,163,0,0,_four_,talker-p248_sex-f_text-_four_.wav,p248,f,5,41,7.0,7.0,RX81,6,0.0,0.0,7.0,82.34149293193902,babble-reversed_n13_p256-eight-p318-two-p307-five-p245-four-p268-nine-p284-one.wav,5,RX81,6,0.0,0.0,7.0,90.34149293193904,mgb_normalisation,90.34149293193902,90.34149293193902,4,1.0,False,1.3125967979431152
,2024-07-19 10:13:38,sub_112,3,distance,cathedral,spatial_unmasking,4,164,0,0,_three_,talker-p248_sex-f_text-_three_.wav,p248,f,5,42,7.0,7.0,RX81,6,0.0,0.0,7.0,83.34149293193902,babble-reversed_n13_p307-five-p229-three-p318-nine-p245-four-p268-eight-p284-two.wav,5,RX81,6,0.0,0.0,7.0,90.341492931939,mgb_normalisation,90.34149293193902,90.34149293193902,3,3.0,True,1.5000338554382324
,2024-07-19 10:13:41,sub_112,3,distance,cathedral,spatial_unmasking,4,165,0,0,_two_,talker-p248_sex-f_text-_two_.wav,p248,f,5,43,7.0,7.0,RX81,6,0.0,0.0,7.0,83.34149293193903,babble-reversed_n13_p307-nine-p318-two-p256-one-p245-three-p268-four-p248-eight.wav,5,RX81,6,0.0,0.0,7.0,90.341492931939,mgb_normalisation,90.34149293193902,90.34149293193902,2,2.0,True,1.0000226497650146
,2024-07-19 10:14:32,sub_112,3,distance,cathedral,spatial_unmasking,5,166,0,0,_nine_,talker-p248_sex-f_text-_nine_.wav,p248,f,5,1,10.0,7.0,RX81,6,0.0,0.0,7.0,92.34149293193902,babble-reversed_n13_p307-two-p256-four-p318-three-p284-eight-p248-five-p245-nine.wav,8,RX81,9,0.0,0.0,10.0,92.0152836843556,mgb_normalisation,92.0152836843556,90.34149293193902,9,9.0,True,1.3124940395355225
,2024-07-19 10:14:35,sub_112,3,distance,cathedral,spatial_unmasking,5,167,0,0,_four_,talker-p248_sex-f_text-_four_.wav,p248,f,5,2,10.0,7.0,RX81,6,0.0,0.0,7.0,88.34149293193902,babble-reversed_n13_p318-five-p229-four-p256-eight-p284-one-p245-three-p248-two.wav,8,RX81,9,0.0,0.0,10.0,92.0152836843556,mgb_normalisation,92.0152836843556,90.34149293193902,4,4.0,True,1.0624959468841553
,2024-07-19 10:14:39,sub_112,3,distance,cathedral,spatial_unmasking,5,168,0,0,_one_,talker-p248_sex-f_text-_one_.wav,p248,f,5,3,10.0,7.0,RX81,6,0.0,0.0,7.0,84.34149293193903,babble-reversed_n13_p256-three-p318-two-p229-nine-p248-four-p284-one-p268-eight.wav,8,RX81,9,0.0,0.0,10.0,92.0152836843556,mgb_normalisation,92.0152836843556,90.34149293193902,1,1.0,True,0.9374306201934814
,2024-07-19 10:14:44,sub_112,3,distance,cathedral,spatial_unmasking,5,169,0,0,_four_,talker-p248_sex-f_text-_four_.wav,p248,f,5,4,10.0,7.0,RX81,6,0.0,0.0,7.0,80.341492931939,babble-reversed_n13_p256-four-p229-two-p318-five-p268-one-p248-eight-p245-three.wav,8,RX81,9,0.0,0.0,10.0,92.0152836843556,mgb_normalisation,92.0152836843556,90.34149293193902,4,3.0,False,2.624988555908203
,2024-07-19 10:14:48,sub_112,3,distance,cathedral,spatial_unmasking,5,170,0,0,_eight_,talker-p248_sex-f_text-_eight_.wav,p248,f,5,5,10.0,7.0,RX81,6,0.0,0.0,7.0,82.34149293193902,babble-reversed_n13_p307-one-p318-five-p229-four-p268-eight-p284-two-p245-three.wav,8,RX81,9,0.0,0.0,10.0,92.0152836843556,mgb_normalisation,92.0152836843556,90.34149293193902,8,3.0,False,1.8749504089355469
,2024-07-19 10:14:51,sub_112,3,distance,cathedral,spatial_unmasking,5,171,0,0,_three_,talker-p248_sex-f_text-_three_.wav,p248,f,5,6,10.0,7.0,RX81,6,0.0,0.0,7.0,84.341492931939,babble-reversed_n13_p256-five-p307-nine-p318-three-p284-eight-p268-one-p248-two.wav,8,RX81,9,0.0,0.0,10.0,92.0152836843556,mgb_normalisation,92.0152836843556,90.34149293193902,3,3.0,True,0.8750631809234619
,2024-07-19 10:14:55,sub_112,3,distance,cathedral,spatial_unmasking,5,172,0,0,_five_,talker-p248_sex-f_text-_five_.wav,p248,f,5,7,10.0,7.0,RX81,6,0.0,0.0,7.0,84.341492931939,babble-reversed_n13_p256-eight-p318-two-p307-five-p245-four-p268-nine-p284-one.wav,8,RX81,9,0.0,0.0,10.0,92.0152836843556,mgb_normalisation,92.0152836843556,90.34149293193902,5,5.0,True,1.0000414848327637
,2024-07-19 10:14:58,sub_112,3,distance,cathedral,spatial_unmasking,5,173,0,0,_one_,talker-p248_sex-f_text-_one_.wav,p248,f,5,8,10.0,7.0,RX81,6,0.0,0.0,7.0,82.34149293193902,babble-reversed_n13_p256-three-p318-one-p307-two-p284-nine-p268-four-p245-eight.wav,8,RX81,9,0.0,0.0,10.0,92.0152836843556,mgb_normalisation,92.0152836843556,90.34149293193902,1,1.0,True,1.062495470046997
,2024-07-19 10:15:02,sub_112,3,distance,cathedral,spatial_unmasking,5,174,0,0,_three_,talker-p248_sex-f_text-_three_.wav,p248,f,5,9,10.0,7.0,RX81,6,0.0,0.0,7.0,82.34149293193902,babble-reversed_n13_p318-five-p256-nine-p307-two-p245-eight-p248-one-p284-four.wav,8,RX81,9,0.0,0.0,10.0,92.0152836843556,mgb_normalisation,92.0152836843556,90.34149293193902,3,3.0,True,1.1249959468841553
,2024-07-19 10:15:05,sub_112,3,distance,cathedral,spatial_unmasking,5,175,0,0,_five_,talker-p248_sex-f_text-_five_.wav,p248,f,5,10,10.0,7.0,RX81,6,0.0,0.0,7.0,80.341492931939,babble-reversed_n13_p229-five-p318-two-p307-eight-p268-three-p248-four-p245-one.wav,8,RX81,9,0.0,0.0,10.0,92.0152836843556,mgb_normalisation,92.0152836843556,90.34149293193902,5,5.0,True,0.9999959468841552
,2024-07-19 10:15:09,sub_112,3,distance,cathedral,spatial_unmasking,5,176,0,0,_two_,talker-p248_sex-f_text-_two_.wav,p248,f,5,11,10.0,7.0,RX81,6,0.0,0.0,7.0,80.34149293193903,babble-reversed_n13_p256-four-p307-eight-p318-two-p248-three-p284-nine-p268-one.wav,8,RX81,9,0.0,0.0,10.0,92.0152836843556,mgb_normalisation,92.0152836843556,90.34149293193902,2,3.0,False,1.5
,2024-07-19 10:15:12,sub_112,3,distance,cathedral,spatial_unmasking,5,177,0,0,_five_,talker-p248_sex-f_text-_five_.wav,p248,f,5,12,10.0,7.0,RX81,6,0.0,0.0,7.0,81.341492931939,babble-reversed_n13_p307-two-p229-one-p256-five-p248-nine-p284-three-p268-eight.wav,8,RX81,9,0.0,0.0,10.0,92.0152836843556,mgb_normalisation,92.0152836843556,90.34149293193902,5,5.0,True,0.749997615814209
,2024-07-19 10:15:15,sub_112,3,distance,cathedral,spatial_unmasking,5,178,0,0,_nine_,talker-p248_sex-f_text-_nine_.wav,p248,f,5,13,10.0,7.0,RX81,6,0.0,0.0,7.0,81.34149293193902,babble-reversed_n13_p318-five-p256-nine-p307-two-p245-eight-p248-one-p284-four.wav,8,RX81,9,0.0,0.0,10.0,92.0152836843556,mgb_normalisation,92.0152836843556,90.34149293193902,9,9.0,True,1.0624949932098389
,2024-07-19 10:15:19,sub_112,3,distance,cathedral,spatial_unmasking,5,179,0,0,_nine_,talker-p248_sex-f_text-_nine_.wav,p248,f,5,14,10.0,7.0,RX81,6,0.0,0.0,7.0,80.341492931939,babble-reversed_n13_p229-three-p307-one-p318-two-p245-eight-p268-five-p284-four.wav,8,RX81,9,0.0,0.0,10.0,92.0152836843556,mgb_normalisation,92.0152836843556,90.34149293193902,9,5.0,False,1.4375555515289309
,2024-07-19 10:15:23,sub_112,3,distance,cathedral,spatial_unmasking,5,180,0,0,_four_,talker-p248_sex-f_text-_four_.wav,p248,f,5,15,10.0,7.0,RX81,6,0.0,0.0,7.0,81.341492931939,babble-reversed_n13_p229-three-p307-one-p318-two-p245-eight-p268-five-p284-four.wav,8,RX81,9,0.0,0.0,10.0,92.0152836843556,mgb_normalisation,92.0152836843556,90.34149293193902,4,4.0,True,1.3749334812164309
,2024-07-19 10:15:27,sub_112,3,distance,cathedral,spatial_unmasking,5,181,0,0,_four_,talker-p248_sex-f_text-_four_.wav,p248,f,5,16,10.0,7.0,RX81,6,0.0,0.0,7.0,81.341492931939,babble-reversed_n13_p307-two-p256-four-p318-three-p284-eight-p248-five-p245-nine.wav,8,RX81,9,0.0,0.0,10.0,92.0152836843556,mgb_normalisation,92.0152836843556,90.34149293193902,4,3.0,False,1.2499942779541016
,2024-07-19 10:15:30,sub_112,3,distance,cathedral,spatial_unmasking,5,182,0,0,_five_,talker-p248_sex-f_text-_five_.wav,p248,f,5,17,10.0,7.0,RX81,6,0.0,0.0,7.0,82.341492931939,babble-reversed_n13_p307-nine-p318-two-p256-one-p245-three-p268-four-p248-eight.wav,8,RX81,9,0.0,0.0,10.0,92.0152836843556,mgb_normalisation,92.0152836843556,90.34149293193902,5,5.0,True,1.1249949932098389
,2024-07-19 10:15:34,sub_112,3,distance,cathedral,spatial_unmasking,5,183,0,0,_four_,talker-p248_sex-f_text-_four_.wav,p248,f,5,18,10.0,7.0,RX81,6,0.0,0.0,7.0,82.34149293193902,babble-reversed_n13_p307-two-p256-four-p318-three-p284-eight-p248-five-p245-nine.wav,8,RX81,9,0.0,0.0,10.0,92.0152836843556,mgb_normalisation,92.0152836843556,90.34149293193902,4,4.0,True,1.812492847442627
,2024-07-19 10:15:38,sub_112,3,distance,cathedral,spatial_unmasking,5,184,0,0,_five_,talker-p248_sex-f_text-_five_.wav,p248,f,5,19,10.0,7.0,RX81,6,0.0,0.0,7.0,81.341492931939,babble-reversed_n13_p229-two-p256-three-p318-eight-p284-five-p268-four-p245-one.wav,8,RX81,9,0.0,0.0,10.0,92.0152836843556,mgb_normalisation,92.0152836843556,90.34149293193902,5,5.0,True,1.0625176429748535
,2024-07-19 10:15:41,sub_112,3,distance,cathedral,spatial_unmasking,5,185,0,0,_six_,talker-p248_sex-f_text-_six_.wav,p248,f,5,20,10.0,7.0,RX81,6,0.0,0.0,7.0,81.34149293193902,babble-reversed_n13_p229-two-p256-three-p318-eight-p284-five-p268-four-p245-one.wav,8,RX81,9,0.0,0.0,10.0,92.0152836843556,mgb_normalisation,92.0152836843556,90.34149293193902,6,6.0,True,0.8124966621398926
,2024-07-19 10:15:46,sub_112,3,distance,cathedral,spatial_unmasking,5,186,0,0,_eight_,talker-p248_sex-f_text-_eight_.wav,p248,f,5,21,10.0,7.0,RX81,6,0.0,0.0,7.0,80.34149293193903,babble-reversed_n13_p229-three-p307-one-p318-two-p245-eight-p268-five-p284-four.wav,8,RX81,9,0.0,0.0,10.0,92.0152836843556,mgb_normalisation,92.0152836843556,90.34149293193902,8,1.0,False,2.9374887943267822
,2024-07-19 10:15:50,sub_112,3,distance,cathedral,spatial_unmasking,5,187,0,0,_two_,talker-p248_sex-f_text-_two_.wav,p248,f,5,22,10.0,7.0,RX81,6,0.0,0.0,7.0,81.34149293193902,babble-reversed_n13_p256-eight-p318-two-p307-five-p245-four-p268-nine-p284-one.wav,8,RX81,9,0.0,0.0,10.0,92.0152836843556,mgb_normalisation,92.0152836843556,90.34149293193902,2,2.0,True,0.9374992847442628
,2024-07-19 10:15:54,sub_112,3,distance,cathedral,spatial_unmasking,5,188,0,0,_one_,talker-p248_sex-f_text-_one_.wav,p248,f,5,23,10.0,7.0,RX81,6,0.0,0.0,7.0,81.34149293193902,babble-reversed_n13_p307-nine-p318-two-p256-one-p245-three-p268-four-p248-eight.wav,8,RX81,9,0.0,0.0,10.0,92.0152836843556,mgb_normalisation,92.0152836843556,90.34149293193902,1,1.0,True,1.5624935626983645
,2024-07-19 10:15:57,sub_112,3,distance,cathedral,spatial_unmasking,5,189,0,0,_six_,talker-p248_sex-f_text-_six_.wav,p248,f,5,24,10.0,7.0,RX81,6,0.0,0.0,7.0,80.34149293193903,babble-reversed_n13_p229-one-p318-nine-p256-four-p284-eight-p268-five-p245-two.wav,8,RX81,9,0.0,0.0,10.0,92.0152836843556,mgb_normalisation,92.0152836843556,90.34149293193902,6,6.0,True,0.812497615814209
,2024-07-19 10:16:00,sub_112,3,distance,cathedral,spatial_unmasking,5,190,0,0,_five_,talker-p248_sex-f_text-_five_.wav,p248,f,5,25,10.0,7.0,RX81,6,0.0,0.0,7.0,80.341492931939,babble-reversed_n13_p229-three-p307-one-p318-two-p245-eight-p268-five-p284-four.wav,8,RX81,9,0.0,0.0,10.0,92.0152836843556,mgb_normalisation,92.0152836843556,90.34149293193902,5,5.0,True,1.187495231628418
,2024-07-19 10:16:04,sub_112,3,distance,cathedral,spatial_unmasking,5,191,0,0,_nine_,talker-p248_sex-f_text-_nine_.wav,p248,f,5,26,10.0,7.0,RX81,6,0.0,0.0,7.0,79.341492931939,babble-reversed_n13_p229-one-p318-eight-p256-three-p268-nine-p248-five-p284-four.wav,8,RX81,9,0.0,0.0,10.0,92.0152836843556,mgb_normalisation,92.0152836843556,90.34149293193902,9,9.0,True,0.9374961853027344
,2024-07-19 10:16:07,sub_112,3,distance,cathedral,spatial_unmasking,5,192,0,0,_six_,talker-p248_sex-f_text-_six_.wav,p248,f,5,27,10.0,7.0,RX81,6,0.0,0.0,7.0,79.34149293193902,babble-reversed_n13_p256-four-p307-eight-p318-two-p248-three-p284-nine-p268-one.wav,8,RX81,9,0.0,0.0,10.0,92.0152836843556,mgb_normalisation,92.0152836843556,90.34149293193902,6,6.0,True,0.9374964237213136
,2024-07-19 10:16:10,sub_112,3,distance,cathedral,spatial_unmasking,5,193,0,0,_two_,talker-p248_sex-f_text-_two_.wav,p248,f,5,28,10.0,7.0,RX81,6,0.0,0.0,7.0,78.34149293193902,babble-reversed_n13_p318-nine-p307-eight-p229-two-p284-one-p248-three-p245-five.wav,8,RX81,9,0.0,0.0,10.0,92.0152836843556,mgb_normalisation,92.0152836843556,90.34149293193902,2,2.0,True,0.9374966621398926
,2024-07-19 10:16:14,sub_112,3,distance,cathedral,spatial_unmasking,5,194,0,0,_eight_,talker-p248_sex-f_text-_eight_.wav,p248,f,5,29,10.0,7.0,RX81,6,0.0,0.0,7.0,78.34149293193902,babble-reversed_n13_p256-eight-p318-two-p307-five-p245-four-p268-nine-p284-one.wav,8,RX81,9,0.0,0.0,10.0,92.0152836843556,mgb_normalisation,92.0152836843556,90.34149293193902,8,1.0,False,1.062495470046997
,2024-07-19 10:16:17,sub_112,3,distance,cathedral,spatial_unmasking,5,195,0,0,_one_,talker-p248_sex-f_text-_one_.wav,p248,f,5,30,10.0,7.0,RX81,6,0.0,0.0,7.0,79.34149293193902,babble-reversed_n13_p307-nine-p229-one-p256-eight-p248-four-p284-two-p268-three.wav,8,RX81,9,0.0,0.0,10.0,92.0152836843556,mgb_normalisation,92.0152836843556,90.34149293193902,1,3.0,False,0.8749964237213135
,2024-07-19 10:16:20,sub_112,3,distance,cathedral,spatial_unmasking,5,196,0,0,_five_,talker-p248_sex-f_text-_five_.wav,p248,f,5,31,10.0,7.0,RX81,6,0.0,0.0,7.0,80.341492931939,babble-reversed_n13_p256-eight-p318-five-p307-four-p245-three-p268-one-p284-nine.wav,8,RX81,9,0.0,0.0,10.0,92.0152836843556,mgb_normalisation,92.0152836843556,90.34149293193902,5,5.0,True,0.6874971389770508
,2024-07-19 10:16:25,sub_112,3,distance,cathedral,spatial_unmasking,5,197,0,0,_eight_,talker-p248_sex-f_text-_eight_.wav,p248,f,5,32,10.0,7.0,RX81,6,0.0,0.0,7.0,80.34149293193903,babble-reversed_n13_p229-eight-p256-nine-p318-four-p245-three-p268-five-p284-two.wav,8,RX81,9,0.0,0.0,10.0,92.0152836843556,mgb_normalisation,92.0152836843556,90.34149293193902,8,2.0,False,2.124990463256836
,2024-07-19 10:16:29,sub_112,3,distance,cathedral,spatial_unmasking,5,198,0,0,_nine_,talker-p248_sex-f_text-_nine_.wav,p248,f,5,33,10.0,7.0,RX81,6,0.0,0.0,7.0,81.34149293193902,babble-reversed_n13_p307-two-p256-four-p318-three-p284-eight-p248-five-p245-nine.wav,8,RX81,9,0.0,0.0,10.0,92.0152836843556,mgb_normalisation,92.0152836843556,90.34149293193902,9,3.0,False,1.3749752044677734
,2024-07-19 10:16:32,sub_112,3,distance,cathedral,spatial_unmasking,5,199,0,0,_five_,talker-p248_sex-f_text-_five_.wav,p248,f,5,34,10.0,7.0,RX81,6,0.0,0.0,7.0,82.341492931939,babble-reversed_n13_p256-five-p307-nine-p318-three-p284-eight-p268-one-p248-two.wav,8,RX81,9,0.0,0.0,10.0,92.0152836843556,mgb_normalisation,92.0152836843556,90.34149293193902,5,5.0,True,0.9374964237213136
,2024-07-19 10:16:36,sub_112,3,distance,cathedral,spatial_unmasking,5,200,0,0,_eight_,talker-p248_sex-f_text-_eight_.wav,p248,f,5,35,10.0,7.0,RX81,6,0.0,0.0,7.0,82.34149293193902,babble-reversed_n13_p256-eight-p318-five-p307-four-p245-three-p268-one-p284-nine.wav,8,RX81,9,0.0,0.0,10.0,92.0152836843556,mgb_normalisation,92.0152836843556,90.34149293193902,8,2.0,False,1.812492847442627
,2024-07-19 10:16:40,sub_112,3,distance,cathedral,spatial_unmasking,5,201,0,0,_one_,talker-p248_sex-f_text-_one_.wav,p248,f,5,36,10.0,7.0,RX81,6,0.0,0.0,7.0,83.34149293193903,babble-reversed_n13_p318-five-p229-three-p256-four-p268-eight-p248-one-p245-nine.wav,8,RX81,9,0.0,0.0,10.0,92.0152836843556,mgb_normalisation,92.0152836843556,90.34149293193902,1,1.0,True,1.187495231628418
,2024-07-19 10:16:43,sub_112,3,distance,cathedral,spatial_unmasking,5,202,0,0,_four_,talker-p248_sex-f_text-_four_.wav,p248,f,5,37,10.0,7.0,RX81,6,0.0,0.0,7.0,83.34149293193902,babble-reversed_n13_p256-five-p229-one-p318-three-p248-nine-p284-eight-p268-two.wav,8,RX81,9,0.0,0.0,10.0,92.0152836843556,mgb_normalisation,92.0152836843556,90.34149293193902,4,4.0,True,1.125020980834961
,2024-07-19 10:16:47,sub_112,3,distance,cathedral,spatial_unmasking,5,203,0,0,_five_,talker-p248_sex-f_text-_five_.wav,p248,f,5,38,10.0,7.0,RX81,6,0.0,0.0,7.0,82.341492931939,babble-reversed_n13_p318-five-p256-nine-p307-two-p245-eight-p248-one-p284-four.wav,8,RX81,9,0.0,0.0,10.0,92.0152836843556,mgb_normalisation,92.0152836843556,90.34149293193902,5,5.0,True,0.9999303817749025
,2024-07-19 10:16:50,sub_112,3,distance,cathedral,spatial_unmasking,5,204,0,0,_eight_,talker-p248_sex-f_text-_eight_.wav,p248,f,5,39,10.0,7.0,RX81,6,0.0,0.0,7.0,82.34149293193902,babble-reversed_n13_p229-one-p318-eight-p256-three-p268-two-p245-five-p248-nine.wav,8,RX81,9,0.0,0.0,10.0,92.0152836843556,mgb_normalisation,92.0152836843556,90.34149293193902,8,2.0,False,1.5156261920928955
,2024-07-19 10:16:54,sub_112,3,distance,cathedral,spatial_unmasking,5,205,0,0,_eight_,talker-p248_sex-f_text-_eight_.wav,p248,f,5,40,10.0,7.0,RX81,6,0.0,0.0,7.0,83.34149293193902,babble-reversed_n13_p229-three-p256-nine-p318-five-p248-one-p245-eight-p284-two.wav,8,RX81,9,0.0,0.0,10.0,92.0152836843556,mgb_normalisation,92.0152836843556,90.34149293193902,8,9.0,False,1.2500033378601074
,2024-07-19 10:16:58,sub_112,3,distance,cathedral,spatial_unmasking,5,206,0,0,_eight_,talker-p248_sex-f_text-_eight_.wav,p248,f,5,41,10.0,7.0,RX81,6,0.0,0.0,7.0,84.34149293193903,babble-reversed_n13_p318-five-p229-four-p256-eight-p284-one-p245-three-p248-two.wav,8,RX81,9,0.0,0.0,10.0,92.0152836843556,mgb_normalisation,92.0152836843556,90.34149293193902,8,3.0,False,1.1250195503234863
,2024-07-19 10:17:01,sub_112,3,distance,cathedral,spatial_unmasking,5,207,0,0,_one_,talker-p248_sex-f_text-_one_.wav,p248,f,5,42,10.0,7.0,RX81,6,0.0,0.0,7.0,85.34149293193903,babble-reversed_n13_p256-five-p229-one-p318-three-p248-nine-p284-eight-p268-two.wav,8,RX81,9,0.0,0.0,10.0,92.0152836843556,mgb_normalisation,92.0152836843556,90.34149293193902,1,1.0,True,1.1874949932098389
,2024-07-19 10:17:05,sub_112,3,distance,cathedral,spatial_unmasking,5,208,0,0,_six_,talker-p248_sex-f_text-_six_.wav,p248,f,5,43,10.0,7.0,RX81,6,0.0,0.0,7.0,85.34149293193903,babble-reversed_n13_p307-five-p229-three-p318-nine-p245-four-p268-eight-p284-two.wav,8,RX81,9,0.0,0.0,10.0,92.0152836843556,mgb_normalisation,92.0152836843556,90.34149293193902,6,6.0,True,0.9999959468841552
,2024-07-19 10:18:56,sub_112,3,distance,cathedral,spatial_unmasking,6,209,0,0,_five_,talker-p248_sex-f_text-_five_.wav,p248,f,5,1,2.0,7.0,RX81,6,0.0,0.0,7.0,92.34149293193902,babble-reversed_n13_p318-four-p256-five-p229-three-p284-one-p245-eight-p248-nine.wav,0,RX81,1,0.0,0.0,2.0,84.40078082039427,mgb_normalisation,84.40078082039426,90.34149293193902,5,5.0,True,1.312549114227295
,2024-07-19 10:19:00,sub_112,3,distance,cathedral,spatial_unmasking,6,210,0,0,_four_,talker-p248_sex-f_text-_four_.wav,p248,f,5,2,2.0,7.0,RX81,6,0.0,0.0,7.0,88.34149293193902,babble-reversed_n13_p318-nine-p256-five-p307-eight-p268-three-p248-one-p245-four.wav,0,RX81,1,0.0,0.0,2.0,84.40078082039426,mgb_normalisation,84.40078082039426,90.34149293193902,4,4.0,True,0.8124690055847168
,2024-07-19 10:19:03,sub_112,3,distance,cathedral,spatial_unmasking,6,211,0,0,_four_,talker-p248_sex-f_text-_four_.wav,p248,f,5,3,2.0,7.0,RX81,6,0.0,0.0,7.0,84.341492931939,babble-reversed_n13_p256-eight-p318-five-p307-four-p245-three-p268-one-p284-nine.wav,0,RX81,1,0.0,0.0,2.0,84.40078082039426,mgb_normalisation,84.40078082039426,90.34149293193902,4,4.0,True,0.8749964237213135
,2024-07-19 10:19:07,sub_112,3,distance,cathedral,spatial_unmasking,6,212,0,0,_four_,talker-p248_sex-f_text-_four_.wav,p248,f,5,4,2.0,7.0,RX81,6,0.0,0.0,7.0,80.341492931939,babble-reversed_n13_p229-five-p256-one-p318-three-p248-nine-p268-four-p284-eight.wav,0,RX81,1,0.0,0.0,2.0,84.40078082039426,mgb_normalisation,84.40078082039426,90.34149293193902,4,1.0,False,1.3749942779541016
,2024-07-19 10:19:10,sub_112,3,distance,cathedral,spatial_unmasking,6,213,0,0,_five_,talker-p248_sex-f_text-_five_.wav,p248,f,5,5,2.0,7.0,RX81,6,0.0,0.0,7.0,82.341492931939,babble-reversed_n13_p318-nine-p307-eight-p229-two-p284-one-p248-three-p245-five.wav,0,RX81,1,0.0,0.0,2.0,84.40078082039426,mgb_normalisation,84.40078082039426,90.34149293193902,5,5.0,True,1.2499942779541016
,2024-07-19 10:19:13,sub_112,3,distance,cathedral,spatial_unmasking,6,214,0,0,_six_,talker-p248_sex-f_text-_six_.wav,p248,f,5,6,2.0,7.0,RX81,6,0.0,0.0,7.0,82.34149293193902,babble-reversed_n13_p229-eight-p256-nine-p318-four-p245-three-p268-five-p284-two.wav,0,RX81,1,0.0,0.0,2.0,84.40078082039426,mgb_normalisation,84.40078082039426,90.34149293193902,6,6.0,True,0.812497615814209
,2024-07-19 10:19:17,sub_112,3,distance,cathedral,spatial_unmasking,6,215,0,0,_six_,talker-p248_sex-f_text-_six_.wav,p248,f,5,7,2.0,7.0,RX81,6,0.0,0.0,7.0,80.34149293193903,babble-reversed_n13_p229-three-p256-nine-p318-five-p248-one-p245-eight-p284-two.wav,0,RX81,1,0.0,0.0,2.0,84.40078082039426,mgb_normalisation,84.40078082039426,90.34149293193902,6,6.0,True,0.8124735355377197
,2024-07-19 10:19:20,sub_112,3,distance,cathedral,spatial_unmasking,6,216,0,0,_six_,talker-p248_sex-f_text-_six_.wav,p248,f,5,8,2.0,7.0,RX81,6,0.0,0.0,7.0,80.34149293193903,babble-reversed_n13_p229-one-p318-nine-p256-four-p284-eight-p268-five-p245-two.wav,0,RX81,1,0.0,0.0,2.0,84.40078082039426,mgb_normalisation,84.40078082039426,90.34149293193902,6,6.0,True,0.8124969005584717
,2024-07-19 10:19:23,sub_112,3,distance,cathedral,spatial_unmasking,6,217,0,0,_two_,talker-p248_sex-f_text-_two_.wav,p248,f,5,9,2.0,7.0,RX81,6,0.0,0.0,7.0,78.34149293193902,babble-reversed_n13_p256-eight-p318-two-p307-five-p245-four-p268-nine-p284-one.wav,0,RX81,1,0.0,0.0,2.0,84.40078082039426,mgb_normalisation,84.40078082039426,90.34149293193902,2,2.0,True,1.1249949932098389
,2024-07-19 10:19:27,sub_112,3,distance,cathedral,spatial_unmasking,6,218,0,0,_two_,talker-p248_sex-f_text-_two_.wav,p248,f,5,10,2.0,7.0,RX81,6,0.0,0.0,7.0,78.34149293193902,babble-reversed_n13_p229-two-p307-five-p318-four-p284-one-p248-nine-p268-eight.wav,0,RX81,1,0.0,0.0,2.0,84.40078082039426,mgb_normalisation,84.40078082039426,90.34149293193902,2,1.0,False,1.3124947547912598
,2024-07-19 10:19:31,sub_112,3,distance,cathedral,spatial_unmasking,6,219,0,0,_nine_,talker-p248_sex-f_text-_nine_.wav,p248,f,5,11,2.0,7.0,RX81,6,0.0,0.0,7.0,79.341492931939,babble-reversed_n13_p229-two-p318-eight-p256-three-p268-one-p248-nine-p284-five.wav,0,RX81,1,0.0,0.0,2.0,84.40078082039426,mgb_normalisation,84.40078082039426,90.34149293193902,9,9.0,True,0.9999971389770508
,2024-07-19 10:19:34,sub_112,3,distance,cathedral,spatial_unmasking,6,220,0,0,_one_,talker-p248_sex-f_text-_one_.wav,p248,f,5,12,2.0,7.0,RX81,6,0.0,0.0,7.0,79.34149293193902,babble-reversed_n13_p256-two-p307-five-p318-nine-p248-eight-p245-four-p284-one.wav,0,RX81,1,0.0,0.0,2.0,84.40078082039426,mgb_normalisation,84.40078082039426,90.34149293193902,1,1.0,True,1.3124945163726809
,2024-07-19 10:19:38,sub_112,3,distance,cathedral,spatial_unmasking,6,221,0,0,_two_,talker-p248_sex-f_text-_two_.wav,p248,f,5,13,2.0,7.0,RX81,6,0.0,0.0,7.0,78.34149293193902,babble-reversed_n13_p229-one-p318-eight-p256-three-p268-nine-p248-five-p284-four.wav,0,RX81,1,0.0,0.0,2.0,84.40078082039426,mgb_normalisation,84.40078082039426,90.34149293193902,2,2.0,True,0.9374957084655762
,2024-07-19 10:19:41,sub_112,3,distance,cathedral,spatial_unmasking,6,222,0,0,_five_,talker-p248_sex-f_text-_five_.wav,p248,f,5,14,2.0,7.0,RX81,6,0.0,0.0,7.0,78.341492931939,babble-reversed_n13_p229-one-p318-eight-p256-three-p268-nine-p248-five-p284-four.wav,0,RX81,1,0.0,0.0,2.0,84.40078082039426,mgb_normalisation,84.40078082039426,90.34149293193902,5,5.0,True,0.8749964237213135
,2024-07-19 10:19:44,sub_112,3,distance,cathedral,spatial_unmasking,6,223,0,0,_one_,talker-p248_sex-f_text-_one_.wav,p248,f,5,15,2.0,7.0,RX81,6,0.0,0.0,7.0,77.34149293193903,babble-reversed_n13_p229-five-p318-three-p307-two-p245-four-p284-nine-p248-eight.wav,0,RX81,1,0.0,0.0,2.0,84.40078082039426,mgb_normalisation,84.40078082039426,90.34149293193902,1,1.0,True,0.9999940395355223
,2024-07-19 10:19:48,sub_112,3,distance,cathedral,spatial_unmasking,6,224,0,0,_two_,talker-p248_sex-f_text-_two_.wav,p248,f,5,16,2.0,7.0,RX81,6,0.0,0.0,7.0,77.34149293193903,babble-reversed_n13_p307-four-p318-three-p256-eight-p284-two-p245-nine-p248-five.wav,0,RX81,1,0.0,0.0,2.0,84.40078082039426,mgb_normalisation,84.40078082039426,90.34149293193902,2,3.0,False,0.9374947547912598
,2024-07-19 10:19:51,sub_112,3,distance,cathedral,spatial_unmasking,6,225,0,0,_nine_,talker-p248_sex-f_text-_nine_.wav,p248,f,5,17,2.0,7.0,RX81,6,0.0,0.0,7.0,78.34149293193902,babble-reversed_n13_p318-five-p256-nine-p307-eight-p248-two-p245-four-p284-three.wav,0,RX81,1,0.0,0.0,2.0,84.40078082039426,mgb_normalisation,84.40078082039426,90.34149293193902,9,5.0,False,0.9374961853027344
,2024-07-19 10:19:54,sub_112,3,distance,cathedral,spatial_unmasking,6,226,0,0,_one_,talker-p248_sex-f_text-_one_.wav,p248,f,5,18,2.0,7.0,RX81,6,0.0,0.0,7.0,79.34149293193902,babble-reversed_n13_p256-eight-p229-three-p307-nine-p245-five-p248-four-p268-two.wav,0,RX81,1,0.0,0.0,2.0,84.40078082039426,mgb_normalisation,84.40078082039426,90.34149293193902,1,1.0,True,1.1250605583190918
,2024-07-19 10:19:58,sub_112,3,distance,cathedral,spatial_unmasking,6,227,0,0,_one_,talker-p248_sex-f_text-_one_.wav,p248,f,5,19,2.0,7.0,RX81,6,0.0,0.0,7.0,79.34149293193902,babble-reversed_n13_p256-nine-p307-four-p229-one-p284-three-p248-two-p245-five.wav,0,RX81,1,0.0,0.0,2.0,84.40078082039427,mgb_normalisation,84.40078082039426,90.34149293193902,1,1.0,True,1.062497854232788
,2024-07-19 10:20:01,sub_112,3,distance,cathedral,spatial_unmasking,6,228,0,0,_two_,talker-p248_sex-f_text-_two_.wav,p248,f,5,20,2.0,7.0,RX81,6,0.0,0.0,7.0,78.34149293193902,babble-reversed_n13_p229-five-p318-three-p307-two-p245-four-p284-nine-p248-eight.wav,0,RX81,1,0.0,0.0,2.0,84.40078082039426,mgb_normalisation,84.40078082039426,90.34149293193902,2,2.0,True,0.9999949932098388
,2024-07-19 10:20:05,sub_112,3,distance,cathedral,spatial_unmasking,6,229,0,0,_eight_,talker-p248_sex-f_text-_eight_.wav,p248,f,5,21,2.0,7.0,RX81,6,0.0,0.0,7.0,78.34149293193902,babble-reversed_n13_p229-nine-p318-one-p307-two-p248-eight-p245-five-p284-four.wav,0,RX81,1,0.0,0.0,2.0,84.40078082039426,mgb_normalisation,84.40078082039426,90.34149293193902,8,3.0,False,1.0624966621398926
,2024-07-19 10:20:08,sub_112,3,distance,cathedral,spatial_unmasking,6,230,0,0,_five_,talker-p248_sex-f_text-_five_.wav,p248,f,5,22,2.0,7.0,RX81,6,0.0,0.0,7.0,79.341492931939,babble-reversed_n13_p256-eight-p318-five-p307-four-p245-three-p268-one-p284-nine.wav,0,RX81,1,0.0,0.0,2.0,84.40078082039426,mgb_normalisation,84.40078082039426,90.34149293193902,5,5.0,True,1.187495231628418
,2024-07-19 10:20:12,sub_112,3,distance,cathedral,spatial_unmasking,6,231,0,0,_nine_,talker-p248_sex-f_text-_nine_.wav,p248,f,5,23,2.0,7.0,RX81,6,0.0,0.0,7.0,79.341492931939,babble-reversed_n13_p307-five-p229-three-p318-nine-p245-four-p268-eight-p284-two.wav,0,RX81,1,0.0,0.0,2.0,84.40078082039426,mgb_normalisation,84.40078082039426,90.34149293193902,9,9.0,True,0.8749957084655762
,2024-07-19 10:20:15,sub_112,3,distance,cathedral,spatial_unmasking,6,232,0,0,_two_,talker-p248_sex-f_text-_two_.wav,p248,f,5,24,2.0,7.0,RX81,6,0.0,0.0,7.0,78.34149293193902,babble-reversed_n13_p229-five-p318-three-p307-two-p245-four-p284-nine-p248-eight.wav,0,RX81,1,0.0,0.0,2.0,84.40078082039426,mgb_normalisation,84.40078082039426,90.34149293193902,2,2.0,True,1.3124940395355225
,2024-07-19 10:20:19,sub_112,3,distance,cathedral,spatial_unmasking,6,233,0,0,_eight_,talker-p248_sex-f_text-_eight_.wav,p248,f,5,25,2.0,7.0,RX81,6,0.0,0.0,7.0,78.34149293193902,babble-reversed_n13_p307-nine-p229-one-p256-eight-p248-four-p284-two-p268-three.wav,0,RX81,1,0.0,0.0,2.0,84.40078082039426,mgb_normalisation,84.40078082039426,90.34149293193902,8,3.0,False,0.9374954700469972
,2024-07-19 10:20:22,sub_112,3,distance,cathedral,spatial_unmasking,6,234,0,0,_five_,talker-p248_sex-f_text-_five_.wav,p248,f,5,26,2.0,7.0,RX81,6,0.0,0.0,7.0,79.341492931939,babble-reversed_n13_p256-two-p307-five-p318-nine-p248-eight-p245-four-p284-one.wav,0,RX81,1,0.0,0.0,2.0,84.40078082039426,mgb_normalisation,84.40078082039426,90.34149293193902,5,5.0,True,1.2499947547912598
,2024-07-19 10:20:26,sub_112,3,distance,cathedral,spatial_unmasking,6,235,0,0,_three_,talker-p248_sex-f_text-_three_.wav,p248,f,5,27,2.0,7.0,RX81,6,0.0,0.0,7.0,79.341492931939,babble-reversed_n13_p307-two-p229-one-p256-five-p248-nine-p284-three-p268-eight.wav,0,RX81,1,0.0,0.0,2.0,84.40078082039427,mgb_normalisation,84.40078082039426,90.34149293193902,3,3.0,True,1.1875205039978027
,2024-07-19 10:20:29,sub_112,3,distance,cathedral,spatial_unmasking,6,236,0,0,_three_,talker-p248_sex-f_text-_three_.wav,p248,f,5,28,2.0,7.0,RX81,6,0.0,0.0,7.0,78.34149293193902,babble-reversed_n13_p256-five-p307-nine-p318-three-p284-eight-p268-one-p248-two.wav,0,RX81,1,0.0,0.0,2.0,84.40078082039426,mgb_normalisation,84.40078082039426,90.34149293193902,3,3.0,True,0.9374959468841552
,2024-07-19 10:20:33,sub_112,3,distance,cathedral,spatial_unmasking,6,237,0,0,_one_,talker-p248_sex-f_text-_one_.wav,p248,f,5,29,2.0,7.0,RX81,6,0.0,0.0,7.0,78.34149293193902,babble-reversed_n13_p318-five-p229-three-p256-four-p268-eight-p248-one-p245-nine.wav,0,RX81,1,0.0,0.0,2.0,84.40078082039426,mgb_normalisation,84.40078082039426,90.34149293193902,1,1.0,True,0.874997615814209
,2024-07-19 10:20:36,sub_112,3,distance,cathedral,spatial_unmasking,6,238,0,0,_one_,talker-p248_sex-f_text-_one_.wav,p248,f,5,30,2.0,7.0,RX81,6,0.0,0.0,7.0,77.34149293193903,babble-reversed_n13_p229-two-p307-five-p318-four-p284-one-p248-nine-p268-eight.wav,0,RX81,1,0.0,0.0,2.0,84.40078082039426,mgb_normalisation,84.40078082039426,90.34149293193902,1,1.0,True,1.1249947547912598
,2024-07-19 10:20:40,sub_112,3,distance,cathedral,spatial_unmasking,6,239,0,0,_nine_,talker-p248_sex-f_text-_nine_.wav,p248,f,5,31,2.0,7.0,RX81,6,0.0,0.0,7.0,77.34149293193902,babble-reversed_n13_p318-five-p256-nine-p307-eight-p248-two-p245-four-p284-three.wav,0,RX81,1,0.0,0.0,2.0,84.40078082039426,mgb_normalisation,84.40078082039426,90.34149293193902,9,9.0,True,1.1249959468841553
,2024-07-19 10:20:43,sub_112,3,distance,cathedral,spatial_unmasking,6,240,0,0,_two_,talker-p248_sex-f_text-_two_.wav,p248,f,5,32,2.0,7.0,RX81,6,0.0,0.0,7.0,76.34149293193902,babble-reversed_n13_p256-four-p307-eight-p318-two-p248-three-p284-nine-p268-one.wav,0,RX81,1,0.0,0.0,2.0,84.40078082039427,mgb_normalisation,84.40078082039426,90.34149293193902,2,3.0,False,0.9999966621398926
,2024-07-19 10:20:47,sub_112,3,distance,cathedral,spatial_unmasking,6,241,0,0,_four_,talker-p248_sex-f_text-_four_.wav,p248,f,5,33,2.0,7.0,RX81,6,0.0,0.0,7.0,77.341492931939,babble-reversed_n13_p318-five-p256-nine-p307-eight-p248-two-p245-four-p284-three.wav,0,RX81,1,0.0,0.0,2.0,84.40078082039426,mgb_normalisation,84.40078082039426,90.34149293193902,4,2.0,False,1.1249947547912598
,2024-07-19 10:20:51,sub_112,3,distance,cathedral,spatial_unmasking,6,242,0,0,_eight_,talker-p248_sex-f_text-_eight_.wav,p248,f,5,34,2.0,7.0,RX81,6,0.0,0.0,7.0,78.34149293193902,babble-reversed_n13_p229-five-p318-three-p307-two-p245-four-p284-nine-p248-eight.wav,0,RX81,1,0.0,0.0,2.0,84.40078082039426,mgb_normalisation,84.40078082039426,90.34149293193902,8,1.0,False,1.687492847442627
,2024-07-19 10:20:54,sub_112,3,distance,cathedral,spatial_unmasking,6,243,0,0,_nine_,talker-p248_sex-f_text-_nine_.wav,p248,f,5,35,2.0,7.0,RX81,6,0.0,0.0,7.0,79.341492931939,babble-reversed_n13_p256-three-p318-one-p307-two-p284-nine-p268-four-p245-eight.wav,0,RX81,1,0.0,0.0,2.0,84.40078082039426,mgb_normalisation,84.40078082039426,90.34149293193902,9,9.0,True,1.18752121925354
,2024-07-19 10:20:58,sub_112,3,distance,cathedral,spatial_unmasking,6,244,0,0,_five_,talker-p248_sex-f_text-_five_.wav,p248,f,5,36,2.0,7.0,RX81,6,0.0,0.0,7.0,79.341492931939,babble-reversed_n13_p256-eight-p229-three-p307-nine-p245-five-p248-four-p268-two.wav,0,RX81,1,0.0,0.0,2.0,84.40078082039426,mgb_normalisation,84.40078082039426,90.34149293193902,5,1.0,False,1.312495470046997
,2024-07-19 10:21:03,sub_112,3,distance,cathedral,spatial_unmasking,6,245,0,0,_four_,talker-p248_sex-f_text-_four_.wav,p248,f,5,37,2.0,7.0,RX81,6,0.0,0.0,7.0,80.341492931939,babble-reversed_n13_p229-five-p318-two-p307-eight-p268-three-p248-four-p245-one.wav,0,RX81,1,0.0,0.0,2.0,84.40078082039427,mgb_normalisation,84.40078082039426,90.34149293193902,4,4.0,True,2.4374899864196777
,2024-07-19 10:21:06,sub_112,3,distance,cathedral,spatial_unmasking,6,246,0,0,_one_,talker-p248_sex-f_text-_one_.wav,p248,f,5,38,2.0,7.0,RX81,6,0.0,0.0,7.0,80.34149293193903,babble-reversed_n13_p307-nine-p318-two-p256-one-p245-three-p268-four-p248-eight.wav,0,RX81,1,0.0,0.0,2.0,84.40078082039426,mgb_normalisation,84.40078082039426,90.34149293193902,1,1.0,True,1.0624957084655762
,2024-07-19 10:22:20,sub_112,3,distance,cathedral,spatial_unmasking,7,247,0,0,_six_,talker-p248_sex-f_text-_six_.wav,p248,f,5,1,12.0,7.0,RX81,6,0.0,0.0,7.0,92.34149293193902,babble-reversed_n13_p307-two-p256-four-p318-three-p284-eight-p248-five-p245-nine.wav,10,RX81,11,0.0,0.0,12.0,93.00003341222718,mgb_normalisation,93.00003341222715,90.34149293193902,6,6.0,True,0.9374876022338868
,2024-07-19 10:22:23,sub_112,3,distance,cathedral,spatial_unmasking,7,248,0,0,_six_,talker-p248_sex-f_text-_six_.wav,p248,f,5,2,12.0,7.0,RX81,6,0.0,0.0,7.0,88.34149293193902,babble-reversed_n13_p256-four-p229-eight-p307-five-p248-three-p245-one-p284-two.wav,10,RX81,11,0.0,0.0,12.0,93.00003341222715,mgb_normalisation,93.00003341222715,90.34149293193902,6,6.0,True,0.7499971389770508
,2024-07-19 10:22:26,sub_112,3,distance,cathedral,spatial_unmasking,7,249,0,0,_nine_,talker-p248_sex-f_text-_nine_.wav,p248,f,5,3,12.0,7.0,RX81,6,0.0,0.0,7.0,84.341492931939,babble-reversed_n13_p256-eight-p318-five-p307-four-p245-three-p268-one-p284-nine.wav,10,RX81,11,0.0,0.0,12.0,93.00003341222715,mgb_normalisation,93.00003341222715,90.34149293193902,9,9.0,True,0.8124966621398926
,2024-07-19 10:22:30,sub_112,3,distance,cathedral,spatial_unmasking,7,250,0,0,_six_,talker-p248_sex-f_text-_six_.wav,p248,f,5,4,12.0,7.0,RX81,6,0.0,0.0,7.0,80.34149293193903,babble-reversed_n13_p229-three-p256-nine-p318-five-p248-one-p245-eight-p284-two.wav,10,RX81,11,0.0,0.0,12.0,93.00003341222718,mgb_normalisation,93.00003341222715,90.34149293193902,6,9.0,False,0.8124988079071045
,2024-07-19 10:22:34,sub_112,3,distance,cathedral,spatial_unmasking,7,251,0,0,_eight_,talker-p248_sex-f_text-_eight_.wav,p248,f,5,5,12.0,7.0,RX81,6,0.0,0.0,7.0,82.34149293193902,babble-reversed_n13_p229-one-p318-eight-p256-three-p268-two-p245-five-p248-nine.wav,10,RX81,11,0.0,0.0,12.0,93.00003341222715,mgb_normalisation,93.00003341222715,90.34149293193902,8,2.0,False,2.4374899864196777
,2024-07-19 10:22:38,sub_112,3,distance,cathedral,spatial_unmasking,7,252,0,0,_three_,talker-p248_sex-f_text-_three_.wav,p248,f,5,6,12.0,7.0,RX81,6,0.0,0.0,7.0,84.341492931939,babble-reversed_n13_p307-five-p229-three-p318-nine-p245-four-p268-eight-p284-two.wav,10,RX81,11,0.0,0.0,12.0,93.00003341222715,mgb_normalisation,93.00003341222715,90.34149293193902,3,3.0,True,0.8750488758087158
,2024-07-19 10:22:41,sub_112,3,distance,cathedral,spatial_unmasking,7,253,0,0,_five_,talker-p248_sex-f_text-_five_.wav,p248,f,5,7,12.0,7.0,RX81,6,0.0,0.0,7.0,84.341492931939,babble-reversed_n13_p318-five-p256-nine-p307-eight-p248-two-p245-four-p284-three.wav,10,RX81,11,0.0,0.0,12.0,93.00003341222718,mgb_normalisation,93.00003341222715,90.34149293193902,5,5.0,True,1.0624947547912598
,2024-07-19 10:22:45,sub_112,3,distance,cathedral,spatial_unmasking,7,254,0,0,_six_,talker-p248_sex-f_text-_six_.wav,p248,f,5,8,12.0,7.0,RX81,6,0.0,0.0,7.0,82.34149293193902,babble-reversed_n13_p318-nine-p307-eight-p229-two-p284-one-p248-three-p245-five.wav,10,RX81,11,0.0,0.0,12.0,93.00003341222718,mgb_normalisation,93.00003341222715,90.34149293193902,6,6.0,True,0.9374964237213136
,2024-07-19 10:22:48,sub_112,3,distance,cathedral,spatial_unmasking,7,255,0,0,_three_,talker-p248_sex-f_text-_three_.wav,p248,f,5,9,12.0,7.0,RX81,6,0.0,0.0,7.0,82.34149293193902,babble-reversed_n13_p229-five-p256-three-p318-nine-p248-two-p284-four-p268-one.wav,10,RX81,11,0.0,0.0,12.0,93.00003341222718,mgb_normalisation,93.00003341222715,90.34149293193902,3,3.0,True,0.8749940395355225
,2024-07-19 10:22:52,sub_112,3,distance,cathedral,spatial_unmasking,7,256,0,0,_three_,talker-p248_sex-f_text-_three_.wav,p248,f,5,10,12.0,7.0,RX81,6,0.0,0.0,7.0,80.341492931939,babble-reversed_n13_p318-four-p256-five-p229-three-p284-one-p245-eight-p248-nine.wav,10,RX81,11,0.0,0.0,12.0,93.00003341222718,mgb_normalisation,93.00003341222715,90.34149293193902,3,3.0,True,1.4374938011169434
,2024-07-19 10:22:55,sub_112,3,distance,cathedral,spatial_unmasking,7,257,0,0,_two_,talker-p248_sex-f_text-_two_.wav,p248,f,5,11,12.0,7.0,RX81,6,0.0,0.0,7.0,80.34149293193903,babble-reversed_n13_p229-five-p256-three-p318-nine-p248-two-p284-four-p268-one.wav,10,RX81,11,0.0,0.0,12.0,93.00003341222718,mgb_normalisation,93.00003341222715,90.34149293193902,2,2.0,True,0.8124978542327881
,2024-07-19 10:22:59,sub_112,3,distance,cathedral,spatial_unmasking,7,258,0,0,_two_,talker-p248_sex-f_text-_two_.wav,p248,f,5,12,12.0,7.0,RX81,6,0.0,0.0,7.0,78.34149293193902,babble-reversed_n13_p229-one-p318-nine-p256-four-p284-eight-p268-five-p245-two.wav,10,RX81,11,0.0,0.0,12.0,93.00003341222715,mgb_normalisation,93.00003341222715,90.34149293193902,2,3.0,False,1.249995470046997
,2024-07-19 10:23:02,sub_112,3,distance,cathedral,spatial_unmasking,7,259,0,0,_six_,talker-p248_sex-f_text-_six_.wav,p248,f,5,13,12.0,7.0,RX81,6,0.0,0.0,7.0,79.34149293193902,babble-reversed_n13_p229-five-p318-two-p307-eight-p268-three-p248-four-p245-one.wav,10,RX81,11,0.0,0.0,12.0,93.00003341222718,mgb_normalisation,93.00003341222715,90.34149293193902,6,6.0,True,0.8749973773956299
