event_id,timestamp,subject_id,session_index,plane,setup,task,block,trial_index,headpose_offset_azi,headpose_offset_ele,target_number,target_filename,target_talker,target_sex,target_speaker_id,step_number:,distance_masker,distance_target,target_speaker_proc,target_speaker_chan,target_speaker_azi,target_speaker_ele,target_speaker_dist,target_stim_level,masker_filename,masker_speaker_id,masker_speaker_proc,masker_speaker_chan,masker_speaker_azi,masker_speaker_ele,masker_speaker_dist,masker_stim_level,normalisation_method,normalisation_level_masker,normalisation_level_target,played_number,resp_number,is_correct,reaction_time
,2024-06-26 11:47:48,sub_105,3,distance,cathedral,spatial_unmasking,1,0,0,0,_two_,talker-p245_sex-f_text-_two_.wav,p245,f,5,1,7.0,7.0,RX81,6,0.0,0.0,7.0,92.341492931939,babble-reversed_n13_p229-five-p318-two-p307-eight-p268-three-p248-four-p245-one.wav,5,RX81,6,0.0,0.0,7.0,90.34149293193904,mgb_normalisation,90.34149293193902,90.34149293193902,2,2.0,True,1.2499513626098633
,2024-06-26 11:47:51,sub_105,3,distance,cathedral,spatial_unmasking,1,1,0,0,_one_,talker-p245_sex-f_text-_one_.wav,p245,f,5,2,7.0,7.0,RX81,6,0.0,0.0,7.0,88.34149293193902,babble-reversed_n13_p256-five-p307-nine-p318-three-p284-eight-p268-one-p248-two.wav,5,RX81,6,0.0,0.0,7.0,90.34149293193904,mgb_normalisation,90.34149293193902,90.34149293193902,1,1.0,True,0.6874446868896484
,2024-06-26 11:47:54,sub_105,3,distance,cathedral,spatial_unmasking,1,2,0,0,_two_,talker-p245_sex-f_text-_two_.wav,p245,f,5,3,7.0,7.0,RX81,6,0.0,0.0,7.0,84.341492931939,babble-reversed_n13_p307-nine-p318-two-p256-one-p245-three-p268-four-p248-eight.wav,5,RX81,6,0.0,0.0,7.0,90.341492931939,mgb_normalisation,90.34149293193902,90.34149293193902,2,2.0,True,0.8124616146087646
,2024-06-26 11:47:58,sub_105,3,distance,cathedral,spatial_unmasking,1,3,0,0,_one_,talker-p245_sex-f_text-_one_.wav,p245,f,5,4,7.0,7.0,RX81,6,0.0,0.0,7.0,80.341492931939,babble-reversed_n13_p229-nine-p256-four-p318-three-p268-eight-p248-two-p284-five.wav,5,RX81,6,0.0,0.0,7.0,90.34149293193904,mgb_normalisation,90.34149293193902,90.34149293193902,1,4.0,False,1.062413454055786
,2024-06-26 11:48:00,sub_105,3,distance,cathedral,spatial_unmasking,1,4,0,0,_two_,talker-p245_sex-f_text-_two_.wav,p245,f,5,5,7.0,7.0,RX81,6,0.0,0.0,7.0,82.341492931939,babble-reversed_n13_p318-three-p229-one-p256-eight-p245-five-p248-four-p284-nine.wav,5,RX81,6,0.0,0.0,7.0,90.34149293193904,mgb_normalisation,90.34149293193902,90.34149293193902,2,2.0,True,0.6874451637268066
,2024-06-26 11:48:04,sub_105,3,distance,cathedral,spatial_unmasking,1,5,0,0,_three_,talker-p245_sex-f_text-_three_.wav,p245,f,5,6,7.0,7.0,RX81,6,0.0,0.0,7.0,80.34149293193903,babble-reversed_n13_p307-nine-p229-one-p256-eight-p248-four-p284-two-p268-three.wav,5,RX81,6,0.0,0.0,7.0,90.34149293193904,mgb_normalisation,90.34149293193902,90.34149293193902,3,3.0,True,1.1249103546142578
,2024-06-26 11:48:07,sub_105,3,distance,cathedral,spatial_unmasking,1,6,0,0,_one_,talker-p245_sex-f_text-_one_.wav,p245,f,5,7,7.0,7.0,RX81,6,0.0,0.0,7.0,78.341492931939,babble-reversed_n13_p256-eight-p318-two-p307-five-p245-four-p268-nine-p284-one.wav,5,RX81,6,0.0,0.0,7.0,90.34149293193904,mgb_normalisation,90.34149293193902,90.34149293193902,1,1.0,True,1.1249094009399414
,2024-06-26 11:48:11,sub_105,3,distance,cathedral,spatial_unmasking,1,7,0,0,_four_,talker-p245_sex-f_text-_four_.wav,p245,f,5,8,7.0,7.0,RX81,6,0.0,0.0,7.0,76.34149293193903,babble-reversed_n13_p229-one-p318-nine-p256-four-p284-eight-p268-five-p245-two.wav,5,RX81,6,0.0,0.0,7.0,90.34149293193904,mgb_normalisation,90.34149293193902,90.34149293193902,4,4.0,True,1.3748893737792969
,2024-06-26 11:48:14,sub_105,3,distance,cathedral,spatial_unmasking,1,8,0,0,_two_,talker-p245_sex-f_text-_two_.wav,p245,f,5,9,7.0,7.0,RX81,6,0.0,0.0,7.0,74.341492931939,babble-reversed_n13_p318-three-p229-one-p256-eight-p245-five-p248-four-p284-nine.wav,5,RX81,6,0.0,0.0,7.0,90.34149293193904,mgb_normalisation,90.34149293193902,90.34149293193902,2,4.0,False,1.187405347824097
,2024-06-26 11:48:20,sub_105,3,distance,cathedral,spatial_unmasking,1,9,0,0,_three_,talker-p245_sex-f_text-_three_.wav,p245,f,5,10,7.0,7.0,RX81,6,0.0,0.0,7.0,75.34149293193903,babble-reversed_n13_p307-five-p229-two-p318-four-p248-three-p245-nine-p268-eight.wav,5,RX81,6,0.0,0.0,7.0,90.341492931939,mgb_normalisation,90.34149293193902,90.34149293193902,3,2.0,False,3.7497036457061768
,2024-06-26 11:48:27,sub_105,3,distance,cathedral,spatial_unmasking,1,10,0,0,_four_,talker-p245_sex-f_text-_four_.wav,p245,f,5,11,7.0,7.0,RX81,6,0.0,0.0,7.0,76.34149293193903,babble-reversed_n13_p307-one-p318-five-p229-four-p268-eight-p284-two-p245-three.wav,5,RX81,6,0.0,0.0,7.0,90.341492931939,mgb_normalisation,90.34149293193902,90.34149293193902,4,3.0,False,4.499639987945557
,2024-06-26 11:48:31,sub_105,3,distance,cathedral,spatial_unmasking,1,11,0,0,_one_,talker-p245_sex-f_text-_one_.wav,p245,f,5,12,7.0,7.0,RX81,6,0.0,0.0,7.0,77.341492931939,babble-reversed_n13_p307-two-p229-one-p256-five-p248-nine-p284-three-p268-eight.wav,5,RX81,6,0.0,0.0,7.0,90.34149293193904,mgb_normalisation,90.34149293193902,90.34149293193902,1,5.0,False,1.7498595714569092
,2024-06-26 11:48:35,sub_105,3,distance,cathedral,spatial_unmasking,1,12,0,0,_four_,talker-p245_sex-f_text-_four_.wav,p245,f,5,13,7.0,7.0,RX81,6,0.0,0.0,7.0,78.34149293193902,babble-reversed_n13_p318-one-p307-two-p256-eight-p284-three-p248-five-p245-four.wav,5,RX81,6,0.0,0.0,7.0,90.34149293193904,mgb_normalisation,90.34149293193902,90.34149293193902,4,4.0,True,1.4373836517333984
,2024-06-26 11:48:38,sub_105,3,distance,cathedral,spatial_unmasking,1,13,0,0,_four_,talker-p245_sex-f_text-_four_.wav,p245,f,5,14,7.0,7.0,RX81,6,0.0,0.0,7.0,77.34149293193903,babble-reversed_n13_p307-nine-p229-one-p256-eight-p248-four-p284-two-p268-three.wav,5,RX81,6,0.0,0.0,7.0,90.34149293193904,mgb_normalisation,90.34149293193902,90.34149293193902,4,3.0,False,0.99992036819458
,2024-06-26 11:48:42,sub_105,3,distance,cathedral,spatial_unmasking,1,14,0,0,_five_,talker-p245_sex-f_text-_five_.wav,p245,f,5,15,7.0,7.0,RX81,6,0.0,0.0,7.0,78.34149293193902,babble-reversed_n13_p307-nine-p229-one-p256-eight-p248-four-p284-two-p268-three.wav,5,RX81,6,0.0,0.0,7.0,90.34149293193904,mgb_normalisation,90.34149293193902,90.34149293193902,5,5.0,True,1.3123953342437744
,2024-06-26 11:48:47,sub_105,3,distance,cathedral,spatial_unmasking,1,15,0,0,_five_,talker-p245_sex-f_text-_five_.wav,p245,f,5,16,7.0,7.0,RX81,6,0.0,0.0,7.0,77.34149293193902,babble-reversed_n13_p307-one-p318-five-p229-four-p268-eight-p284-two-p245-three.wav,5,RX81,6,0.0,0.0,7.0,90.341492931939,mgb_normalisation,90.34149293193902,90.34149293193902,5,5.0,True,2.374809741973877
,2024-06-26 11:48:50,sub_105,3,distance,cathedral,spatial_unmasking,1,16,0,0,_two_,talker-p245_sex-f_text-_two_.wav,p245,f,5,17,7.0,7.0,RX81,6,0.0,0.0,7.0,76.341492931939,babble-reversed_n13_p256-three-p318-one-p307-two-p284-nine-p268-four-p245-eight.wav,5,RX81,6,0.0,0.0,7.0,90.34149293193904,mgb_normalisation,90.34149293193902,90.34149293193902,2,1.0,False,0.8124384880065918
,2024-06-26 11:48:53,sub_105,3,distance,cathedral,spatial_unmasking,1,17,0,0,_five_,talker-p245_sex-f_text-_five_.wav,p245,f,5,18,7.0,7.0,RX81,6,0.0,0.0,7.0,77.34149293193902,babble-reversed_n13_p318-one-p307-two-p256-eight-p284-three-p248-five-p245-four.wav,5,RX81,6,0.0,0.0,7.0,90.34149293193904,mgb_normalisation,90.34149293193902,90.34149293193902,5,5.0,True,0.8749287128448486
,2024-06-26 11:48:59,sub_105,3,distance,cathedral,spatial_unmasking,1,18,0,0,_four_,talker-p245_sex-f_text-_four_.wav,p245,f,5,19,7.0,7.0,RX81,6,0.0,0.0,7.0,76.34149293193903,babble-reversed_n13_p229-two-p307-five-p318-four-p284-one-p248-nine-p268-eight.wav,5,RX81,6,0.0,0.0,7.0,90.34149293193904,mgb_normalisation,90.34149293193902,90.34149293193902,4,3.0,False,3.874664783477783
,2024-06-26 11:49:05,sub_105,3,distance,cathedral,spatial_unmasking,1,19,0,0,_four_,talker-p245_sex-f_text-_four_.wav,p245,f,5,20,7.0,7.0,RX81,6,0.0,0.0,7.0,77.34149293193903,babble-reversed_n13_p318-five-p229-three-p256-four-p268-eight-p248-one-p245-nine.wav,5,RX81,6,0.0,0.0,7.0,90.34149293193904,mgb_normalisation,90.34149293193902,90.34149293193902,4,4.0,True,3.812195062637329
,2024-06-26 11:49:09,sub_105,3,distance,cathedral,spatial_unmasking,1,20,0,0,_three_,talker-p245_sex-f_text-_three_.wav,p245,f,5,21,7.0,7.0,RX81,6,0.0,0.0,7.0,76.34149293193902,babble-reversed_n13_p256-four-p229-eight-p307-five-p248-three-p245-one-p284-two.wav,5,RX81,6,0.0,0.0,7.0,90.341492931939,mgb_normalisation,90.34149293193902,90.34149293193902,3,3.0,True,1.1249101161956787
,2024-06-26 11:49:12,sub_105,3,distance,cathedral,spatial_unmasking,1,21,0,0,_one_,talker-p245_sex-f_text-_one_.wav,p245,f,5,22,7.0,7.0,RX81,6,0.0,0.0,7.0,75.341492931939,babble-reversed_n13_p229-three-p256-nine-p318-five-p248-one-p245-eight-p284-two.wav,5,RX81,6,0.0,0.0,7.0,90.34149293193904,mgb_normalisation,90.34149293193902,90.34149293193902,1,1.0,True,1.374889612197876
,2024-06-26 11:49:20,sub_105,3,distance,cathedral,spatial_unmasking,1,22,0,0,_five_,talker-p245_sex-f_text-_five_.wav,p245,f,5,23,7.0,7.0,RX81,6,0.0,0.0,7.0,74.34149293193902,babble-reversed_n13_p307-five-p229-three-p318-nine-p245-four-p268-eight-p284-two.wav,5,RX81,6,0.0,0.0,7.0,90.341492931939,mgb_normalisation,90.34149293193902,90.34149293193902,5,3.0,False,5.499559164047241
,2024-06-26 11:49:28,sub_105,3,distance,cathedral,spatial_unmasking,1,23,0,0,_one_,talker-p245_sex-f_text-_one_.wav,p245,f,5,24,7.0,7.0,RX81,6,0.0,0.0,7.0,75.341492931939,babble-reversed_n13_p318-five-p229-three-p256-four-p268-eight-p248-one-p245-nine.wav,5,RX81,6,0.0,0.0,7.0,90.34149293193904,mgb_normalisation,90.34149293193902,90.34149293193902,1,4.0,False,6.062014579772949
,2024-06-26 11:49:33,sub_105,3,distance,cathedral,spatial_unmasking,1,24,0,0,_one_,talker-p245_sex-f_text-_one_.wav,p245,f,5,25,7.0,7.0,RX81,6,0.0,0.0,7.0,76.34149293193902,babble-reversed_n13_p229-five-p318-three-p307-two-p245-four-p284-nine-p248-eight.wav,5,RX81,6,0.0,0.0,7.0,90.34149293193904,mgb_normalisation,90.34149293193902,90.34149293193902,1,4.0,False,1.9373445510864256
,2024-06-26 11:49:37,sub_105,3,distance,cathedral,spatial_unmasking,1,25,0,0,_four_,talker-p245_sex-f_text-_four_.wav,p245,f,5,26,7.0,7.0,RX81,6,0.0,0.0,7.0,77.34149293193903,babble-reversed_n13_p256-five-p229-one-p318-three-p248-nine-p284-eight-p268-two.wav,5,RX81,6,0.0,0.0,7.0,90.34149293193904,mgb_normalisation,90.34149293193902,90.34149293193902,4,4.0,True,2.3123152256011963
,2024-06-26 11:49:41,sub_105,3,distance,cathedral,spatial_unmasking,1,26,0,0,_five_,talker-p245_sex-f_text-_five_.wav,p245,f,5,27,7.0,7.0,RX81,6,0.0,0.0,7.0,76.34149293193902,babble-reversed_n13_p256-four-p307-eight-p318-two-p248-three-p284-nine-p268-one.wav,5,RX81,6,0.0,0.0,7.0,90.34149293193904,mgb_normalisation,90.34149293193902,90.34149293193902,5,5.0,True,1.2499001026153564
,2024-06-26 11:49:44,sub_105,3,distance,cathedral,spatial_unmasking,1,27,0,0,_three_,talker-p245_sex-f_text-_three_.wav,p245,f,5,28,7.0,7.0,RX81,6,0.0,0.0,7.0,75.34149293193903,babble-reversed_n13_p229-three-p256-nine-p318-five-p248-one-p245-eight-p284-two.wav,5,RX81,6,0.0,0.0,7.0,90.34149293193904,mgb_normalisation,90.34149293193902,90.34149293193902,3,3.0,True,1.0624144077301023
,2024-06-26 11:49:49,sub_105,3,distance,cathedral,spatial_unmasking,1,28,0,0,_five_,talker-p245_sex-f_text-_five_.wav,p245,f,5,29,7.0,7.0,RX81,6,0.0,0.0,7.0,74.34149293193902,babble-reversed_n13_p229-nine-p256-four-p318-three-p268-eight-p248-two-p284-five.wav,5,RX81,6,0.0,0.0,7.0,90.34149293193904,mgb_normalisation,90.34149293193902,90.34149293193902,5,1.0,False,3.1247708797454834
,2024-06-26 11:49:54,sub_105,3,distance,cathedral,spatial_unmasking,1,29,0,0,_five_,talker-p245_sex-f_text-_five_.wav,p245,f,5,30,7.0,7.0,RX81,6,0.0,0.0,7.0,75.34149293193902,babble-reversed_n13_p229-two-p318-eight-p256-three-p268-one-p248-nine-p284-five.wav,5,RX81,6,0.0,0.0,7.0,90.341492931939,mgb_normalisation,90.34149293193902,90.34149293193902,5,5.0,True,2.6247894763946533
,2024-06-26 11:50:00,sub_105,3,distance,cathedral,spatial_unmasking,1,30,0,0,_three_,talker-p245_sex-f_text-_three_.wav,p245,f,5,31,7.0,7.0,RX81,6,0.0,0.0,7.0,74.34149293193902,babble-reversed_n13_p229-two-p318-eight-p256-three-p268-one-p248-nine-p284-five.wav,5,RX81,6,0.0,0.0,7.0,90.341492931939,mgb_normalisation,90.34149293193902,90.34149293193902,3,3.0,True,3.6247098445892334
,2024-06-26 11:50:06,sub_105,3,distance,cathedral,spatial_unmasking,1,31,0,0,_two_,talker-p245_sex-f_text-_two_.wav,p245,f,5,32,7.0,7.0,RX81,6,0.0,0.0,7.0,73.341492931939,babble-reversed_n13_p229-one-p318-eight-p256-three-p268-nine-p248-five-p284-four.wav,5,RX81,6,0.0,0.0,7.0,90.341492931939,mgb_normalisation,90.34149293193902,90.34149293193902,2,5.0,False,3.499719619750977
,2024-06-26 11:50:10,sub_105,3,distance,cathedral,spatial_unmasking,1,32,0,0,_two_,talker-p245_sex-f_text-_two_.wav,p245,f,5,33,7.0,7.0,RX81,6,0.0,0.0,7.0,74.341492931939,babble-reversed_n13_p229-one-p318-nine-p256-four-p284-eight-p268-five-p245-two.wav,5,RX81,6,0.0,0.0,7.0,90.34149293193904,mgb_normalisation,90.34149293193902,90.34149293193902,2,1.0,False,1.312394618988037
,2024-06-26 11:50:13,sub_105,3,distance,cathedral,spatial_unmasking,1,33,0,0,_two_,talker-p245_sex-f_text-_two_.wav,p245,f,5,34,7.0,7.0,RX81,6,0.0,0.0,7.0,75.341492931939,babble-reversed_n13_p229-nine-p318-one-p307-two-p248-eight-p245-five-p284-four.wav,5,RX81,6,0.0,0.0,7.0,90.34149293193904,mgb_normalisation,90.34149293193902,90.34149293193902,2,2.0,True,1.3748903274536133
,2024-06-26 11:51:36,sub_105,3,distance,cathedral,spatial_unmasking,2,34,0,0,_four_,talker-p245_sex-f_text-_four_.wav,p245,f,5,1,8.0,7.0,RX81,6,0.0,0.0,7.0,92.34149293193904,babble-reversed_n13_p229-five-p256-one-p318-three-p248-nine-p268-four-p284-eight.wav,6,RX81,7,0.0,0.0,8.0,91.58892582949886,mgb_normalisation,91.58892582949886,90.34149293193902,4,4.0,True,1.0624163150787354
,2024-06-26 11:51:39,sub_105,3,distance,cathedral,spatial_unmasking,2,35,0,0,_three_,talker-p245_sex-f_text-_three_.wav,p245,f,5,2,8.0,7.0,RX81,6,0.0,0.0,7.0,88.34149293193903,babble-reversed_n13_p318-five-p256-nine-p307-two-p245-eight-p248-one-p284-four.wav,6,RX81,7,0.0,0.0,8.0,91.58892582949888,mgb_normalisation,91.58892582949886,90.34149293193902,3,3.0,True,0.74993896484375
,2024-06-26 11:51:43,sub_105,3,distance,cathedral,spatial_unmasking,2,36,0,0,_five_,talker-p245_sex-f_text-_five_.wav,p245,f,5,3,8.0,7.0,RX81,6,0.0,0.0,7.0,84.341492931939,babble-reversed_n13_p318-five-p229-three-p256-four-p268-eight-p248-one-p245-nine.wav,6,RX81,7,0.0,0.0,8.0,91.58892582949888,mgb_normalisation,91.58892582949886,90.34149293193902,5,5.0,True,1.1874077320098877
,2024-06-26 11:51:49,sub_105,3,distance,cathedral,spatial_unmasking,2,37,0,0,_three_,talker-p245_sex-f_text-_three_.wav,p245,f,5,4,8.0,7.0,RX81,6,0.0,0.0,7.0,80.34149293193903,babble-reversed_n13_p229-one-p318-eight-p256-three-p268-nine-p248-five-p284-four.wav,6,RX81,7,0.0,0.0,8.0,91.58892582949886,mgb_normalisation,91.58892582949886,90.34149293193902,3,2.0,False,4.374650001525879
,2024-06-26 11:51:53,sub_105,3,distance,cathedral,spatial_unmasking,2,38,0,0,_five_,talker-p245_sex-f_text-_five_.wav,p245,f,5,5,8.0,7.0,RX81,6,0.0,0.0,7.0,82.34149293193902,babble-reversed_n13_p229-three-p307-one-p318-two-p245-eight-p268-five-p284-four.wav,6,RX81,7,0.0,0.0,8.0,91.58892582949888,mgb_normalisation,91.58892582949886,90.34149293193902,5,5.0,True,1.1874041557312012
,2024-06-26 11:51:59,sub_105,3,distance,cathedral,spatial_unmasking,2,39,0,0,_two_,talker-p245_sex-f_text-_two_.wav,p245,f,5,6,8.0,7.0,RX81,6,0.0,0.0,7.0,80.341492931939,babble-reversed_n13_p229-two-p256-three-p318-eight-p284-five-p268-four-p245-one.wav,6,RX81,7,0.0,0.0,8.0,91.58892582949888,mgb_normalisation,91.58892582949886,90.34149293193902,2,1.0,False,3.752718448638916
,2024-06-26 11:52:03,sub_105,3,distance,cathedral,spatial_unmasking,2,40,0,0,_three_,talker-p245_sex-f_text-_three_.wav,p245,f,5,7,8.0,7.0,RX81,6,0.0,0.0,7.0,81.34149293193902,babble-reversed_n13_p307-four-p318-three-p256-eight-p284-two-p245-nine-p248-five.wav,6,RX81,7,0.0,0.0,8.0,91.58892582949886,mgb_normalisation,91.58892582949886,90.34149293193902,3,3.0,True,1.4373571872711182
,2024-06-26 11:52:06,sub_105,3,distance,cathedral,spatial_unmasking,2,41,0,0,_five_,talker-p245_sex-f_text-_five_.wav,p245,f,5,8,8.0,7.0,RX81,6,0.0,0.0,7.0,80.34149293193903,babble-reversed_n13_p229-three-p307-one-p318-two-p245-eight-p268-five-p284-four.wav,6,RX81,7,0.0,0.0,8.0,91.58892582949888,mgb_normalisation,91.58892582949886,90.34149293193902,5,5.0,True,1.1874043941497805
,2024-06-26 11:52:10,sub_105,3,distance,cathedral,spatial_unmasking,2,42,0,0,_one_,talker-p245_sex-f_text-_one_.wav,p245,f,5,9,8.0,7.0,RX81,6,0.0,0.0,7.0,79.341492931939,babble-reversed_n13_p256-four-p229-eight-p307-five-p248-three-p245-one-p284-two.wav,6,RX81,7,0.0,0.0,8.0,91.58892582949886,mgb_normalisation,91.58892582949886,90.34149293193902,1,1.0,True,1.1874041557312012
,2024-06-26 11:52:14,sub_105,3,distance,cathedral,spatial_unmasking,2,43,0,0,_three_,talker-p245_sex-f_text-_three_.wav,p245,f,5,10,8.0,7.0,RX81,6,0.0,0.0,7.0,78.34149293193902,babble-reversed_n13_p229-one-p318-eight-p256-three-p268-nine-p248-five-p284-four.wav,6,RX81,7,0.0,0.0,8.0,91.58892582949886,mgb_normalisation,91.58892582949886,90.34149293193902,3,3.0,True,1.1874046325683594
,2024-06-26 11:52:18,sub_105,3,distance,cathedral,spatial_unmasking,2,44,0,0,_three_,talker-p245_sex-f_text-_three_.wav,p245,f,5,11,8.0,7.0,RX81,6,0.0,0.0,7.0,77.34149293193903,babble-reversed_n13_p229-two-p256-three-p318-eight-p284-five-p268-four-p245-one.wav,6,RX81,7,0.0,0.0,8.0,91.58892582949888,mgb_normalisation,91.58892582949886,90.34149293193902,3,2.0,False,2.187324523925781
,2024-06-26 11:52:22,sub_105,3,distance,cathedral,spatial_unmasking,2,45,0,0,_three_,talker-p245_sex-f_text-_three_.wav,p245,f,5,12,8.0,7.0,RX81,6,0.0,0.0,7.0,78.34149293193902,babble-reversed_n13_p307-two-p229-one-p256-five-p248-nine-p284-three-p268-eight.wav,6,RX81,7,0.0,0.0,8.0,91.58892582949888,mgb_normalisation,91.58892582949886,90.34149293193902,3,3.0,True,1.6248419284820557
,2024-06-26 11:52:26,sub_105,3,distance,cathedral,spatial_unmasking,2,46,0,0,_one_,talker-p245_sex-f_text-_one_.wav,p245,f,5,13,8.0,7.0,RX81,6,0.0,0.0,7.0,77.341492931939,babble-reversed_n13_p229-two-p318-eight-p256-three-p268-one-p248-nine-p284-five.wav,6,RX81,7,0.0,0.0,8.0,91.58892582949886,mgb_normalisation,91.58892582949886,90.34149293193902,1,1.0,True,1.3748931884765625
,2024-06-26 11:52:30,sub_105,3,distance,cathedral,spatial_unmasking,2,47,0,0,_two_,talker-p245_sex-f_text-_two_.wav,p245,f,5,14,8.0,7.0,RX81,6,0.0,0.0,7.0,76.341492931939,babble-reversed_n13_p229-one-p318-eight-p256-three-p268-nine-p248-five-p284-four.wav,6,RX81,7,0.0,0.0,8.0,91.58892582949886,mgb_normalisation,91.58892582949886,90.34149293193902,2,4.0,False,1.6873643398284912
,2024-06-26 11:52:34,sub_105,3,distance,cathedral,spatial_unmasking,2,48,0,0,_one_,talker-p245_sex-f_text-_one_.wav,p245,f,5,15,8.0,7.0,RX81,6,0.0,0.0,7.0,77.341492931939,babble-reversed_n13_p229-one-p318-eight-p256-three-p268-nine-p248-five-p284-four.wav,6,RX81,7,0.0,0.0,8.0,91.58892582949886,mgb_normalisation,91.58892582949886,90.34149293193902,1,1.0,True,1.2498469352722168
,2024-06-26 11:52:37,sub_105,3,distance,cathedral,spatial_unmasking,2,49,0,0,_four_,talker-p245_sex-f_text-_four_.wav,p245,f,5,16,8.0,7.0,RX81,6,0.0,0.0,7.0,76.34149293193903,babble-reversed_n13_p256-five-p229-one-p318-three-p248-nine-p284-eight-p268-two.wav,6,RX81,7,0.0,0.0,8.0,91.58892582949888,mgb_normalisation,91.58892582949886,90.34149293193902,4,4.0,True,1.0624783039093018
,2024-06-26 11:52:42,sub_105,3,distance,cathedral,spatial_unmasking,2,50,0,0,_three_,talker-p245_sex-f_text-_three_.wav,p245,f,5,17,8.0,7.0,RX81,6,0.0,0.0,7.0,75.34149293193903,babble-reversed_n13_p256-five-p307-nine-p318-three-p284-eight-p268-one-p248-two.wav,6,RX81,7,0.0,0.0,8.0,91.58892582949886,mgb_normalisation,91.58892582949886,90.34149293193902,3,2.0,False,2.6247897148132324
,2024-06-26 11:52:47,sub_105,3,distance,cathedral,spatial_unmasking,2,51,0,0,_four_,talker-p245_sex-f_text-_four_.wav,p245,f,5,18,8.0,7.0,RX81,6,0.0,0.0,7.0,76.34149293193903,babble-reversed_n13_p256-eight-p318-two-p307-five-p245-four-p268-nine-p284-one.wav,6,RX81,7,0.0,0.0,8.0,91.58892582949888,mgb_normalisation,91.58892582949886,90.34149293193902,4,4.0,True,2.874769926071167
,2024-06-26 11:52:52,sub_105,3,distance,cathedral,spatial_unmasking,2,52,0,0,_three_,talker-p245_sex-f_text-_three_.wav,p245,f,5,19,8.0,7.0,RX81,6,0.0,0.0,7.0,75.34149293193903,babble-reversed_n13_p256-nine-p307-four-p229-one-p284-three-p248-two-p245-five.wav,6,RX81,7,0.0,0.0,8.0,91.58892582949888,mgb_normalisation,91.58892582949886,90.34149293193902,3,1.0,False,2.6872849464416504
,2024-06-26 11:52:57,sub_105,3,distance,cathedral,spatial_unmasking,2,53,0,0,_five_,talker-p245_sex-f_text-_five_.wav,p245,f,5,20,8.0,7.0,RX81,6,0.0,0.0,7.0,76.34149293193902,babble-reversed_n13_p256-four-p229-eight-p307-five-p248-three-p245-one-p284-two.wav,6,RX81,7,0.0,0.0,8.0,91.58892582949886,mgb_normalisation,91.58892582949886,90.34149293193902,5,3.0,False,2.0623350143432617
,2024-06-26 11:53:01,sub_105,3,distance,cathedral,spatial_unmasking,2,54,0,0,_three_,talker-p245_sex-f_text-_three_.wav,p245,f,5,21,8.0,7.0,RX81,6,0.0,0.0,7.0,77.34149293193903,babble-reversed_n13_p229-eight-p256-nine-p318-four-p245-three-p268-five-p284-two.wav,6,RX81,7,0.0,0.0,8.0,91.58892582949886,mgb_normalisation,91.58892582949886,90.34149293193902,3,3.0,True,1.2499005794525146
,2024-06-26 11:53:05,sub_105,3,distance,cathedral,spatial_unmasking,2,55,0,0,_two_,talker-p245_sex-f_text-_two_.wav,p245,f,5,22,8.0,7.0,RX81,6,0.0,0.0,7.0,76.341492931939,babble-reversed_n13_p307-one-p318-five-p229-four-p268-eight-p284-two-p245-three.wav,6,RX81,7,0.0,0.0,8.0,91.58892582949886,mgb_normalisation,91.58892582949886,90.34149293193902,2,3.0,False,2.187324523925781
,2024-06-26 11:53:11,sub_105,3,distance,cathedral,spatial_unmasking,2,56,0,0,_two_,talker-p245_sex-f_text-_two_.wav,p245,f,5,23,8.0,7.0,RX81,6,0.0,0.0,7.0,77.341492931939,babble-reversed_n13_p229-nine-p307-five-p256-two-p248-three-p245-one-p268-eight.wav,6,RX81,7,0.0,0.0,8.0,91.58892582949886,mgb_normalisation,91.58892582949886,90.34149293193902,2,2.0,True,3.812197208404541
,2024-06-26 11:53:15,sub_105,3,distance,cathedral,spatial_unmasking,2,57,0,0,_three_,talker-p245_sex-f_text-_three_.wav,p245,f,5,24,8.0,7.0,RX81,6,0.0,0.0,7.0,76.34149293193902,babble-reversed_n13_p318-five-p256-nine-p307-two-p245-eight-p248-one-p284-four.wav,6,RX81,7,0.0,0.0,8.0,91.58892582949888,mgb_normalisation,91.58892582949886,90.34149293193902,3,1.0,False,1.5623743534088137
,2024-06-26 11:53:20,sub_105,3,distance,cathedral,spatial_unmasking,2,58,0,0,_four_,talker-p245_sex-f_text-_four_.wav,p245,f,5,25,8.0,7.0,RX81,6,0.0,0.0,7.0,77.34149293193903,babble-reversed_n13_p229-five-p318-two-p307-eight-p268-three-p248-four-p245-one.wav,6,RX81,7,0.0,0.0,8.0,91.58892582949888,mgb_normalisation,91.58892582949886,90.34149293193902,4,3.0,False,1.8748753070831297
,2024-06-26 11:53:24,sub_105,3,distance,cathedral,spatial_unmasking,2,59,0,0,_five_,talker-p245_sex-f_text-_five_.wav,p245,f,5,26,8.0,7.0,RX81,6,0.0,0.0,7.0,78.34149293193902,babble-reversed_n13_p256-four-p229-eight-p307-five-p248-three-p245-one-p284-two.wav,6,RX81,7,0.0,0.0,8.0,91.58892582949886,mgb_normalisation,91.58892582949886,90.34149293193902,5,3.0,False,1.8123555183410645
,2024-06-26 11:53:28,sub_105,3,distance,cathedral,spatial_unmasking,2,60,0,0,_three_,talker-p245_sex-f_text-_three_.wav,p245,f,5,27,8.0,7.0,RX81,6,0.0,0.0,7.0,79.34149293193902,babble-reversed_n13_p307-four-p318-three-p256-eight-p284-two-p245-nine-p248-five.wav,6,RX81,7,0.0,0.0,8.0,91.58892582949886,mgb_normalisation,91.58892582949886,90.34149293193902,3,5.0,False,1.874850273132324
,2024-06-26 11:53:32,sub_105,3,distance,cathedral,spatial_unmasking,2,61,0,0,_three_,talker-p245_sex-f_text-_three_.wav,p245,f,5,28,8.0,7.0,RX81,6,0.0,0.0,7.0,80.34149293193903,babble-reversed_n13_p307-five-p229-three-p318-nine-p245-four-p268-eight-p284-two.wav,6,RX81,7,0.0,0.0,8.0,91.58892582949886,mgb_normalisation,91.58892582949886,90.34149293193902,3,3.0,True,1.187403917312622
,2024-06-26 11:55:15,sub_105,3,distance,cathedral,spatial_unmasking,3,62,0,0,_one_,talker-p245_sex-f_text-_one_.wav,p245,f,5,1,2.0,7.0,RX81,6,0.0,0.0,7.0,92.341492931939,babble-reversed_n13_p318-five-p229-four-p256-eight-p284-one-p245-three-p248-two.wav,0,RX81,1,0.0,0.0,2.0,84.40078082039426,mgb_normalisation,84.40078082039426,90.34149293193902,1,1.0,True,0.9374265670776368
,2024-06-26 11:55:18,sub_105,3,distance,cathedral,spatial_unmasking,3,63,0,0,_four_,talker-p245_sex-f_text-_four_.wav,p245,f,5,2,2.0,7.0,RX81,6,0.0,0.0,7.0,88.34149293193903,babble-reversed_n13_p229-three-p256-nine-p318-five-p248-one-p245-eight-p284-two.wav,0,RX81,1,0.0,0.0,2.0,84.40078082039426,mgb_normalisation,84.40078082039426,90.34149293193902,4,4.0,True,1.2810883522033691
,2024-06-26 11:55:22,sub_105,3,distance,cathedral,spatial_unmasking,3,64,0,0,_one_,talker-p245_sex-f_text-_one_.wav,p245,f,5,3,2.0,7.0,RX81,6,0.0,0.0,7.0,84.341492931939,babble-reversed_n13_p307-nine-p229-one-p256-eight-p248-four-p284-two-p268-three.wav,0,RX81,1,0.0,0.0,2.0,84.40078082039426,mgb_normalisation,84.40078082039426,90.34149293193902,1,1.0,True,1.0624163150787354
,2024-06-26 11:55:29,sub_105,3,distance,cathedral,spatial_unmasking,3,65,0,0,_one_,talker-p245_sex-f_text-_one_.wav,p245,f,5,4,2.0,7.0,RX81,6,0.0,0.0,7.0,80.341492931939,babble-reversed_n13_p229-two-p318-eight-p256-three-p268-one-p248-nine-p284-five.wav,0,RX81,1,0.0,0.0,2.0,84.40078082039426,mgb_normalisation,84.40078082039426,90.34149293193902,1,4.0,False,4.937077283859253
,2024-06-26 11:55:33,sub_105,3,distance,cathedral,spatial_unmasking,3,66,0,0,_three_,talker-p245_sex-f_text-_three_.wav,p245,f,5,5,2.0,7.0,RX81,6,0.0,0.0,7.0,82.34149293193902,babble-reversed_n13_p318-nine-p307-eight-p229-two-p284-one-p248-three-p245-five.wav,0,RX81,1,0.0,0.0,2.0,84.40078082039426,mgb_normalisation,84.40078082039426,90.34149293193902,3,3.0,True,1.0624148845672607
,2024-06-26 11:55:37,sub_105,3,distance,cathedral,spatial_unmasking,3,67,0,0,_three_,talker-p245_sex-f_text-_three_.wav,p245,f,5,6,2.0,7.0,RX81,6,0.0,0.0,7.0,80.34149293193903,babble-reversed_n13_p229-five-p318-three-p307-two-p245-four-p284-nine-p248-eight.wav,0,RX81,1,0.0,0.0,2.0,84.40078082039426,mgb_normalisation,84.40078082039426,90.34149293193902,3,4.0,False,1.624871015548706
,2024-06-26 11:55:40,sub_105,3,distance,cathedral,spatial_unmasking,3,68,0,0,_one_,talker-p245_sex-f_text-_one_.wav,p245,f,5,7,2.0,7.0,RX81,6,0.0,0.0,7.0,81.341492931939,babble-reversed_n13_p307-two-p229-one-p256-five-p248-nine-p284-three-p268-eight.wav,0,RX81,1,0.0,0.0,2.0,84.40078082039427,mgb_normalisation,84.40078082039426,90.34149293193902,1,4.0,False,1.3749468326568604
,2024-06-26 11:55:44,sub_105,3,distance,cathedral,spatial_unmasking,3,69,0,0,_three_,talker-p245_sex-f_text-_three_.wav,p245,f,5,8,2.0,7.0,RX81,6,0.0,0.0,7.0,82.34149293193902,babble-reversed_n13_p229-two-p256-three-p318-eight-p284-five-p268-four-p245-one.wav,0,RX81,1,0.0,0.0,2.0,84.40078082039426,mgb_normalisation,84.40078082039426,90.34149293193902,3,3.0,True,1.0624144077301023
,2024-06-26 11:55:47,sub_105,3,distance,cathedral,spatial_unmasking,3,70,0,0,_three_,talker-p245_sex-f_text-_three_.wav,p245,f,5,9,2.0,7.0,RX81,6,0.0,0.0,7.0,81.34149293193902,babble-reversed_n13_p318-one-p307-two-p256-eight-p284-three-p248-five-p245-four.wav,0,RX81,1,0.0,0.0,2.0,84.40078082039427,mgb_normalisation,84.40078082039426,90.34149293193902,3,3.0,True,0.9374241828918456
,2024-06-26 11:55:50,sub_105,3,distance,cathedral,spatial_unmasking,3,71,0,0,_one_,talker-p245_sex-f_text-_one_.wav,p245,f,5,10,2.0,7.0,RX81,6,0.0,0.0,7.0,80.341492931939,babble-reversed_n13_p256-three-p318-one-p307-two-p284-nine-p268-four-p245-eight.wav,0,RX81,1,0.0,0.0,2.0,84.40078082039426,mgb_normalisation,84.40078082039426,90.34149293193902,1,4.0,False,0.9374244213104248
,2024-06-26 11:55:56,sub_105,3,distance,cathedral,spatial_unmasking,3,72,0,0,_two_,talker-p245_sex-f_text-_two_.wav,p245,f,5,11,2.0,7.0,RX81,6,0.0,0.0,7.0,81.341492931939,babble-reversed_n13_p256-eight-p318-five-p307-four-p245-three-p268-one-p284-nine.wav,0,RX81,1,0.0,0.0,2.0,84.40078082039426,mgb_normalisation,84.40078082039426,90.34149293193902,2,2.0,True,2.687285661697388
,2024-06-26 11:55:59,sub_105,3,distance,cathedral,spatial_unmasking,3,73,0,0,_five_,talker-p245_sex-f_text-_five_.wav,p245,f,5,12,2.0,7.0,RX81,6,0.0,0.0,7.0,80.34149293193903,babble-reversed_n13_p229-one-p318-eight-p256-three-p268-two-p245-five-p248-nine.wav,0,RX81,1,0.0,0.0,2.0,84.40078082039426,mgb_normalisation,84.40078082039426,90.34149293193902,5,1.0,False,1.062415361404419
,2024-06-26 11:56:03,sub_105,3,distance,cathedral,spatial_unmasking,3,74,0,0,_one_,talker-p245_sex-f_text-_one_.wav,p245,f,5,13,2.0,7.0,RX81,6,0.0,0.0,7.0,81.341492931939,babble-reversed_n13_p229-one-p318-eight-p256-three-p268-two-p245-five-p248-nine.wav,0,RX81,1,0.0,0.0,2.0,84.40078082039426,mgb_normalisation,84.40078082039426,90.34149293193902,1,1.0,True,1.37491774559021
,2024-06-26 11:56:06,sub_105,3,distance,cathedral,spatial_unmasking,3,75,0,0,_two_,talker-p245_sex-f_text-_two_.wav,p245,f,5,14,2.0,7.0,RX81,6,0.0,0.0,7.0,80.341492931939,babble-reversed_n13_p229-three-p256-nine-p318-five-p248-one-p245-eight-p284-two.wav,0,RX81,1,0.0,0.0,2.0,84.40078082039426,mgb_normalisation,84.40078082039426,90.34149293193902,2,3.0,False,1.1249101161956787
,2024-06-26 11:56:10,sub_105,3,distance,cathedral,spatial_unmasking,3,76,0,0,_one_,talker-p245_sex-f_text-_one_.wav,p245,f,5,15,2.0,7.0,RX81,6,0.0,0.0,7.0,81.341492931939,babble-reversed_n13_p307-nine-p318-two-p256-one-p245-three-p268-four-p248-eight.wav,0,RX81,1,0.0,0.0,2.0,84.40078082039426,mgb_normalisation,84.40078082039426,90.34149293193902,1,1.0,True,1.0624110698699951
,2024-06-26 11:56:16,sub_105,3,distance,cathedral,spatial_unmasking,3,77,0,0,_four_,talker-p245_sex-f_text-_four_.wav,p245,f,5,16,2.0,7.0,RX81,6,0.0,0.0,7.0,80.34149293193903,babble-reversed_n13_p229-one-p318-eight-p256-three-p268-two-p245-five-p248-nine.wav,0,RX81,1,0.0,0.0,2.0,84.40078082039426,mgb_normalisation,84.40078082039426,90.34149293193902,4,4.0,True,4.312180519104004
,2024-06-26 11:56:20,sub_105,3,distance,cathedral,spatial_unmasking,3,78,0,0,_two_,talker-p245_sex-f_text-_two_.wav,p245,f,5,17,2.0,7.0,RX81,6,0.0,0.0,7.0,79.341492931939,babble-reversed_n13_p307-nine-p229-one-p256-eight-p248-four-p284-two-p268-three.wav,0,RX81,1,0.0,0.0,2.0,84.40078082039426,mgb_normalisation,84.40078082039426,90.34149293193902,2,3.0,False,1.3124027252197266
,2024-06-26 11:56:24,sub_105,3,distance,cathedral,spatial_unmasking,3,79,0,0,_three_,talker-p245_sex-f_text-_three_.wav,p245,f,5,18,2.0,7.0,RX81,6,0.0,0.0,7.0,80.34149293193903,babble-reversed_n13_p229-three-p256-nine-p318-five-p248-one-p245-eight-p284-two.wav,0,RX81,1,0.0,0.0,2.0,84.40078082039426,mgb_normalisation,84.40078082039426,90.34149293193902,3,3.0,True,1.062415361404419
,2024-06-26 11:56:28,sub_105,3,distance,cathedral,spatial_unmasking,3,80,0,0,_three_,talker-p245_sex-f_text-_three_.wav,p245,f,5,19,2.0,7.0,RX81,6,0.0,0.0,7.0,79.34149293193902,babble-reversed_n13_p256-eight-p318-five-p307-four-p245-three-p268-one-p284-nine.wav,0,RX81,1,0.0,0.0,2.0,84.40078082039426,mgb_normalisation,84.40078082039426,90.34149293193902,3,2.0,False,2.2498104572296143
,2024-06-26 11:56:32,sub_105,3,distance,cathedral,spatial_unmasking,3,81,0,0,_one_,talker-p245_sex-f_text-_one_.wav,p245,f,5,20,2.0,7.0,RX81,6,0.0,0.0,7.0,80.341492931939,babble-reversed_n13_p229-five-p318-three-p307-two-p245-four-p284-nine-p248-eight.wav,0,RX81,1,0.0,0.0,2.0,84.40078082039426,mgb_normalisation,84.40078082039426,90.34149293193902,1,1.0,True,0.8749301433563232
,2024-06-26 11:56:35,sub_105,3,distance,cathedral,spatial_unmasking,3,82,0,0,_one_,talker-p245_sex-f_text-_one_.wav,p245,f,5,21,2.0,7.0,RX81,6,0.0,0.0,7.0,79.341492931939,babble-reversed_n13_p318-three-p307-one-p256-five-p248-nine-p245-two-p284-eight.wav,0,RX81,1,0.0,0.0,2.0,84.40078082039426,mgb_normalisation,84.40078082039426,90.34149293193902,1,1.0,True,1.0623512268066406
,2024-06-26 11:56:43,sub_105,3,distance,cathedral,spatial_unmasking,3,83,0,0,_five_,talker-p245_sex-f_text-_five_.wav,p245,f,5,22,2.0,7.0,RX81,6,0.0,0.0,7.0,78.34149293193902,babble-reversed_n13_p229-five-p318-two-p307-eight-p268-three-p248-four-p245-one.wav,0,RX81,1,0.0,0.0,2.0,84.40078082039427,mgb_normalisation,84.40078082039426,90.34149293193902,5,4.0,False,5.249578475952148
,2024-06-26 11:56:50,sub_105,3,distance,cathedral,spatial_unmasking,3,84,0,0,_two_,talker-p245_sex-f_text-_two_.wav,p245,f,5,23,2.0,7.0,RX81,6,0.0,0.0,7.0,79.341492931939,babble-reversed_n13_p229-five-p318-two-p307-eight-p268-three-p248-four-p245-one.wav,0,RX81,1,0.0,0.0,2.0,84.40078082039427,mgb_normalisation,84.40078082039426,90.34149293193902,2,3.0,False,4.562134981155396
,2024-06-26 11:56:53,sub_105,3,distance,cathedral,spatial_unmasking,3,85,0,0,_five_,talker-p245_sex-f_text-_five_.wav,p245,f,5,24,2.0,7.0,RX81,6,0.0,0.0,7.0,80.34149293193903,babble-reversed_n13_p318-five-p229-four-p256-eight-p284-one-p245-three-p248-two.wav,0,RX81,1,0.0,0.0,2.0,84.40078082039426,mgb_normalisation,84.40078082039426,90.34149293193902,5,5.0,True,1.0624451637268066
,2024-06-26 11:57:58,sub_105,3,distance,cathedral,spatial_unmasking,4,86,0,0,_three_,talker-p245_sex-f_text-_three_.wav,p245,f,5,1,6.0,7.0,RX81,6,0.0,0.0,7.0,92.34149293193902,babble-reversed_n13_p256-eight-p318-two-p307-five-p245-four-p268-nine-p284-one.wav,4,RX81,5,0.0,0.0,6.0,89.31368318402099,mgb_normalisation,89.31368318402099,90.34149293193902,3,3.0,True,1.624870538711548
,2024-06-26 11:58:01,sub_105,3,distance,cathedral,spatial_unmasking,4,87,0,0,_four_,talker-p245_sex-f_text-_four_.wav,p245,f,5,2,6.0,7.0,RX81,6,0.0,0.0,7.0,88.34149293193903,babble-reversed_n13_p229-five-p256-three-p318-nine-p248-two-p284-four-p268-one.wav,4,RX81,5,0.0,0.0,6.0,89.313683184021,mgb_normalisation,89.31368318402099,90.34149293193902,4,4.0,True,0.874929666519165
,2024-06-26 11:58:05,sub_105,3,distance,cathedral,spatial_unmasking,4,88,0,0,_five_,talker-p245_sex-f_text-_five_.wav,p245,f,5,3,6.0,7.0,RX81,6,0.0,0.0,7.0,84.341492931939,babble-reversed_n13_p229-three-p256-one-p307-two-p284-eight-p268-five-p248-nine.wav,4,RX81,5,0.0,0.0,6.0,89.31368318402099,mgb_normalisation,89.31368318402099,90.34149293193902,5,5.0,True,1.1874048709869385
,2024-06-26 11:58:08,sub_105,3,distance,cathedral,spatial_unmasking,4,89,0,0,_two_,talker-p245_sex-f_text-_two_.wav,p245,f,5,4,6.0,7.0,RX81,6,0.0,0.0,7.0,80.341492931939,babble-reversed_n13_p256-four-p229-two-p318-five-p268-one-p248-eight-p245-three.wav,4,RX81,5,0.0,0.0,6.0,89.31368318402099,mgb_normalisation,89.31368318402099,90.34149293193902,2,2.0,True,1.1249098777770996
,2024-06-26 11:58:13,sub_105,3,distance,cathedral,spatial_unmasking,4,90,0,0,_four_,talker-p245_sex-f_text-_four_.wav,p245,f,5,5,6.0,7.0,RX81,6,0.0,0.0,7.0,76.34149293193903,babble-reversed_n13_p318-nine-p307-eight-p229-two-p284-one-p248-three-p245-five.wav,4,RX81,5,0.0,0.0,6.0,89.31368318402099,mgb_normalisation,89.31368318402099,90.34149293193902,4,4.0,True,2.1873250007629395
,2024-06-26 11:58:17,sub_105,3,distance,cathedral,spatial_unmasking,4,91,0,0,_one_,talker-p245_sex-f_text-_one_.wav,p245,f,5,6,6.0,7.0,RX81,6,0.0,0.0,7.0,72.341492931939,babble-reversed_n13_p229-nine-p307-five-p256-two-p248-three-p245-one-p268-eight.wav,4,RX81,5,0.0,0.0,6.0,89.31368318402099,mgb_normalisation,89.31368318402099,90.34149293193902,1,1.0,True,1.1874070167541504
,2024-06-26 11:58:22,sub_105,3,distance,cathedral,spatial_unmasking,4,92,0,0,_five_,talker-p245_sex-f_text-_five_.wav,p245,f,5,7,6.0,7.0,RX81,6,0.0,0.0,7.0,68.34149293193902,babble-reversed_n13_p256-five-p229-one-p318-three-p248-nine-p284-eight-p268-two.wav,4,RX81,5,0.0,0.0,6.0,89.31368318402099,mgb_normalisation,89.31368318402099,90.34149293193902,5,1.0,False,2.624788999557495
,2024-06-26 11:58:26,sub_105,3,distance,cathedral,spatial_unmasking,4,93,0,0,_four_,talker-p245_sex-f_text-_four_.wav,p245,f,5,8,6.0,7.0,RX81,6,0.0,0.0,7.0,70.34149293193903,babble-reversed_n13_p256-five-p307-nine-p318-three-p284-eight-p268-one-p248-two.wav,4,RX81,5,0.0,0.0,6.0,89.31368318402099,mgb_normalisation,89.31368318402099,90.34149293193902,4,4.0,True,1.7498595714569092
,2024-06-26 11:58:33,sub_105,3,distance,cathedral,spatial_unmasking,4,94,0,0,_three_,talker-p245_sex-f_text-_three_.wav,p245,f,5,9,6.0,7.0,RX81,6,0.0,0.0,7.0,68.34149293193902,babble-reversed_n13_p229-two-p256-three-p318-eight-p284-five-p268-four-p245-one.wav,4,RX81,5,0.0,0.0,6.0,89.31368318402099,mgb_normalisation,89.31368318402099,90.34149293193902,3,5.0,False,4.87460994720459
,2024-06-26 11:58:37,sub_105,3,distance,cathedral,spatial_unmasking,4,95,0,0,_one_,talker-p245_sex-f_text-_one_.wav,p245,f,5,10,6.0,7.0,RX81,6,0.0,0.0,7.0,69.341492931939,babble-reversed_n13_p229-five-p318-three-p307-two-p245-four-p284-nine-p248-eight.wav,4,RX81,5,0.0,0.0,6.0,89.31368318402099,mgb_normalisation,89.31368318402099,90.34149293193902,1,4.0,False,1.1249096393585205
,2024-06-26 11:58:40,sub_105,3,distance,cathedral,spatial_unmasking,4,96,0,0,_two_,talker-p245_sex-f_text-_two_.wav,p245,f,5,11,6.0,7.0,RX81,6,0.0,0.0,7.0,70.341492931939,babble-reversed_n13_p256-four-p307-eight-p318-two-p248-three-p284-nine-p268-one.wav,4,RX81,5,0.0,0.0,6.0,89.313683184021,mgb_normalisation,89.31368318402099,90.34149293193902,2,1.0,False,0.8749299049377441
,2024-06-26 11:58:45,sub_105,3,distance,cathedral,spatial_unmasking,4,97,0,0,_three_,talker-p245_sex-f_text-_three_.wav,p245,f,5,12,6.0,7.0,RX81,6,0.0,0.0,7.0,71.34149293193902,babble-reversed_n13_p256-five-p307-nine-p318-three-p284-eight-p268-one-p248-two.wav,4,RX81,5,0.0,0.0,6.0,89.31368318402099,mgb_normalisation,89.31368318402099,90.34149293193902,3,1.0,False,3.1871840953826904
,2024-06-26 11:58:50,sub_105,3,distance,cathedral,spatial_unmasking,4,98,0,0,_four_,talker-p245_sex-f_text-_four_.wav,p245,f,5,13,6.0,7.0,RX81,6,0.0,0.0,7.0,72.34149293193903,babble-reversed_n13_p307-five-p229-three-p318-nine-p245-four-p268-eight-p284-two.wav,4,RX81,5,0.0,0.0,6.0,89.31368318402099,mgb_normalisation,89.31368318402099,90.34149293193902,4,5.0,False,2.562294244766236
,2024-06-26 11:58:56,sub_105,3,distance,cathedral,spatial_unmasking,4,99,0,0,_three_,talker-p245_sex-f_text-_three_.wav,p245,f,5,14,6.0,7.0,RX81,6,0.0,0.0,7.0,73.34149293193902,babble-reversed_n13_p229-five-p256-three-p318-nine-p248-two-p284-four-p268-one.wav,4,RX81,5,0.0,0.0,6.0,89.313683184021,mgb_normalisation,89.31368318402099,90.34149293193902,3,2.0,False,3.1247498989105225
,2024-06-26 11:59:01,sub_105,3,distance,cathedral,spatial_unmasking,4,100,0,0,_four_,talker-p245_sex-f_text-_four_.wav,p245,f,5,15,6.0,7.0,RX81,6,0.0,0.0,7.0,74.34149293193903,babble-reversed_n13_p229-two-p256-three-p318-eight-p284-five-p268-four-p245-one.wav,4,RX81,5,0.0,0.0,6.0,89.31368318402099,mgb_normalisation,89.31368318402099,90.34149293193902,4,3.0,False,2.687283515930176
,2024-06-26 11:59:08,sub_105,3,distance,cathedral,spatial_unmasking,4,101,0,0,_four_,talker-p245_sex-f_text-_four_.wav,p245,f,5,16,6.0,7.0,RX81,6,0.0,0.0,7.0,75.34149293193903,babble-reversed_n13_p256-nine-p307-four-p229-one-p284-three-p248-two-p245-five.wav,4,RX81,5,0.0,0.0,6.0,89.31368318402099,mgb_normalisation,89.31368318402099,90.34149293193902,4,2.0,False,4.812113761901856
,2024-06-26 11:59:13,sub_105,3,distance,cathedral,spatial_unmasking,4,102,0,0,_four_,talker-p245_sex-f_text-_four_.wav,p245,f,5,17,6.0,7.0,RX81,6,0.0,0.0,7.0,76.34149293193903,babble-reversed_n13_p307-two-p229-one-p256-five-p248-nine-p284-three-p268-eight.wav,4,RX81,5,0.0,0.0,6.0,89.313683184021,mgb_normalisation,89.31368318402099,90.34149293193902,4,1.0,False,2.4373035430908203
,2024-06-26 11:59:17,sub_105,3,distance,cathedral,spatial_unmasking,4,103,0,0,_two_,talker-p245_sex-f_text-_two_.wav,p245,f,5,18,6.0,7.0,RX81,6,0.0,0.0,7.0,77.341492931939,babble-reversed_n13_p256-eight-p318-five-p307-four-p245-three-p268-one-p284-nine.wav,4,RX81,5,0.0,0.0,6.0,89.31368318402099,mgb_normalisation,89.31368318402099,90.34149293193902,2,1.0,False,1.8123364448547363
,2024-06-26 11:59:21,sub_105,3,distance,cathedral,spatial_unmasking,4,104,0,0,_one_,talker-p245_sex-f_text-_one_.wav,p245,f,5,19,6.0,7.0,RX81,6,0.0,0.0,7.0,78.341492931939,babble-reversed_n13_p229-five-p256-three-p318-nine-p248-two-p284-four-p268-one.wav,4,RX81,5,0.0,0.0,6.0,89.313683184021,mgb_normalisation,89.31368318402099,90.34149293193902,1,4.0,False,1.1249098777770996
,2024-06-26 11:59:24,sub_105,3,distance,cathedral,spatial_unmasking,4,105,0,0,_five_,talker-p245_sex-f_text-_five_.wav,p245,f,5,20,6.0,7.0,RX81,6,0.0,0.0,7.0,79.34149293193902,babble-reversed_n13_p256-eight-p229-three-p307-nine-p245-five-p248-four-p268-two.wav,4,RX81,5,0.0,0.0,6.0,89.31368318402099,mgb_normalisation,89.31368318402099,90.34149293193902,5,5.0,True,1.062441110610962
,2024-06-26 11:59:28,sub_105,3,distance,cathedral,spatial_unmasking,4,106,0,0,_one_,talker-p245_sex-f_text-_one_.wav,p245,f,5,21,6.0,7.0,RX81,6,0.0,0.0,7.0,78.341492931939,babble-reversed_n13_p318-four-p256-five-p229-three-p284-one-p245-eight-p248-nine.wav,4,RX81,5,0.0,0.0,6.0,89.31368318402099,mgb_normalisation,89.31368318402099,90.34149293193902,1,4.0,False,1.1874048709869385
,2024-06-26 11:59:31,sub_105,3,distance,cathedral,spatial_unmasking,4,107,0,0,_five_,talker-p245_sex-f_text-_five_.wav,p245,f,5,22,6.0,7.0,RX81,6,0.0,0.0,7.0,79.34149293193902,babble-reversed_n13_p229-eight-p256-nine-p318-four-p245-three-p268-five-p284-two.wav,4,RX81,5,0.0,0.0,6.0,89.31368318402099,mgb_normalisation,89.31368318402099,90.34149293193902,5,5.0,True,1.1249101161956787
,2024-06-26 11:59:35,sub_105,3,distance,cathedral,spatial_unmasking,4,108,0,0,_two_,talker-p245_sex-f_text-_two_.wav,p245,f,5,23,6.0,7.0,RX81,6,0.0,0.0,7.0,78.341492931939,babble-reversed_n13_p307-four-p318-three-p256-eight-p284-two-p245-nine-p248-five.wav,4,RX81,5,0.0,0.0,6.0,89.31368318402099,mgb_normalisation,89.31368318402099,90.34149293193902,2,3.0,False,1.7498602867126465
,2024-06-26 11:59:39,sub_105,3,distance,cathedral,spatial_unmasking,4,109,0,0,_three_,talker-p245_sex-f_text-_three_.wav,p245,f,5,24,6.0,7.0,RX81,6,0.0,0.0,7.0,79.34149293193902,babble-reversed_n13_p256-three-p318-two-p229-nine-p248-four-p284-one-p268-eight.wav,4,RX81,5,0.0,0.0,6.0,89.31368318402099,mgb_normalisation,89.31368318402099,90.34149293193902,3,3.0,True,1.3123953342437744
,2024-06-26 11:59:43,sub_105,3,distance,cathedral,spatial_unmasking,4,110,0,0,_five_,talker-p245_sex-f_text-_five_.wav,p245,f,5,25,6.0,7.0,RX81,6,0.0,0.0,7.0,78.34149293193902,babble-reversed_n13_p256-four-p229-two-p318-five-p268-one-p248-eight-p245-three.wav,4,RX81,5,0.0,0.0,6.0,89.31368318402099,mgb_normalisation,89.31368318402099,90.34149293193902,5,5.0,True,1.1249094009399414
,2024-06-26 11:59:49,sub_105,3,distance,cathedral,spatial_unmasking,4,111,0,0,_five_,talker-p245_sex-f_text-_five_.wav,p245,f,5,26,6.0,7.0,RX81,6,0.0,0.0,7.0,77.34149293193902,babble-reversed_n13_p318-three-p307-one-p256-five-p248-nine-p245-two-p284-eight.wav,4,RX81,5,0.0,0.0,6.0,89.31368318402099,mgb_normalisation,89.31368318402099,90.34149293193902,5,5.0,True,3.624708890914917
,2024-06-26 11:59:52,sub_105,3,distance,cathedral,spatial_unmasking,4,112,0,0,_one_,talker-p245_sex-f_text-_one_.wav,p245,f,5,27,6.0,7.0,RX81,6,0.0,0.0,7.0,76.34149293193902,babble-reversed_n13_p229-three-p256-nine-p318-five-p248-one-p245-eight-p284-two.wav,4,RX81,5,0.0,0.0,6.0,89.31368318402099,mgb_normalisation,89.31368318402099,90.34149293193902,1,1.0,True,1.0624136924743652
,2024-06-26 11:59:56,sub_105,3,distance,cathedral,spatial_unmasking,4,113,0,0,_three_,talker-p245_sex-f_text-_three_.wav,p245,f,5,28,6.0,7.0,RX81,6,0.0,0.0,7.0,75.34149293193903,babble-reversed_n13_p318-one-p307-two-p256-eight-p284-three-p248-five-p245-four.wav,4,RX81,5,0.0,0.0,6.0,89.313683184021,mgb_normalisation,89.31368318402099,90.34149293193902,3,2.0,False,1.312394142150879
,2024-06-26 12:00:00,sub_105,3,distance,cathedral,spatial_unmasking,4,114,0,0,_three_,talker-p245_sex-f_text-_three_.wav,p245,f,5,29,6.0,7.0,RX81,6,0.0,0.0,7.0,76.34149293193902,babble-reversed_n13_p229-three-p307-one-p318-two-p245-eight-p268-five-p284-four.wav,4,RX81,5,0.0,0.0,6.0,89.31368318402099,mgb_normalisation,89.31368318402099,90.34149293193902,3,1.0,False,2.3123157024383545
,2024-06-26 12:00:06,sub_105,3,distance,cathedral,spatial_unmasking,4,115,0,0,_three_,talker-p245_sex-f_text-_three_.wav,p245,f,5,30,6.0,7.0,RX81,6,0.0,0.0,7.0,77.34149293193903,babble-reversed_n13_p318-five-p256-nine-p307-two-p245-eight-p248-one-p284-four.wav,4,RX81,5,0.0,0.0,6.0,89.313683184021,mgb_normalisation,89.31368318402099,90.34149293193902,3,3.0,True,2.812273502349853
,2024-06-26 12:00:09,sub_105,3,distance,cathedral,spatial_unmasking,4,116,0,0,_one_,talker-p245_sex-f_text-_one_.wav,p245,f,5,31,6.0,7.0,RX81,6,0.0,0.0,7.0,76.34149293193902,babble-reversed_n13_p229-one-p318-nine-p256-four-p284-eight-p268-five-p245-two.wav,4,RX81,5,0.0,0.0,6.0,89.31368318402099,mgb_normalisation,89.31368318402099,90.34149293193902,1,1.0,True,1.0624146461486816
,2024-06-26 12:00:13,sub_105,3,distance,cathedral,spatial_unmasking,4,117,0,0,_three_,talker-p245_sex-f_text-_three_.wav,p245,f,5,32,6.0,7.0,RX81,6,0.0,0.0,7.0,75.34149293193903,babble-reversed_n13_p256-four-p307-eight-p318-two-p248-three-p284-nine-p268-one.wav,4,RX81,5,0.0,0.0,6.0,89.313683184021,mgb_normalisation,89.31368318402099,90.34149293193902,3,1.0,False,1.4373843669891355
,2024-06-26 12:00:21,sub_105,3,distance,cathedral,spatial_unmasking,4,118,0,0,_two_,talker-p245_sex-f_text-_two_.wav,p245,f,5,33,6.0,7.0,RX81,6,0.0,0.0,7.0,76.341492931939,babble-reversed_n13_p229-one-p318-nine-p256-four-p284-eight-p268-five-p245-two.wav,4,RX81,5,0.0,0.0,6.0,89.31368318402099,mgb_normalisation,89.31368318402099,90.34149293193902,2,2.0,True,5.452687740325928
,2024-06-26 12:00:24,sub_105,3,distance,cathedral,spatial_unmasking,4,119,0,0,_three_,talker-p245_sex-f_text-_three_.wav,p245,f,5,34,6.0,7.0,RX81,6,0.0,0.0,7.0,75.34149293193903,babble-reversed_n13_p229-one-p318-eight-p256-three-p268-two-p245-five-p248-nine.wav,4,RX81,5,0.0,0.0,6.0,89.31368318402099,mgb_normalisation,89.31368318402099,90.34149293193902,3,1.0,False,0.9999182224273682
,2024-06-26 12:00:28,sub_105,3,distance,cathedral,spatial_unmasking,4,120,0,0,_three_,talker-p245_sex-f_text-_three_.wav,p245,f,5,35,6.0,7.0,RX81,6,0.0,0.0,7.0,76.34149293193902,babble-reversed_n13_p229-nine-p256-four-p318-three-p268-eight-p248-two-p284-five.wav,4,RX81,5,0.0,0.0,6.0,89.31368318402099,mgb_normalisation,89.31368318402099,90.34149293193902,3,3.0,True,1.4373793601989746
,2024-06-26 12:00:37,sub_105,3,distance,cathedral,spatial_unmasking,4,121,0,0,_two_,talker-p245_sex-f_text-_two_.wav,p245,f,5,36,6.0,7.0,RX81,6,0.0,0.0,7.0,75.341492931939,babble-reversed_n13_p229-nine-p307-five-p256-two-p248-three-p245-one-p268-eight.wav,4,RX81,5,0.0,0.0,6.0,89.31368318402099,mgb_normalisation,89.31368318402099,90.34149293193902,2,2.0,True,6.811954975128174
,2024-06-26 12:00:42,sub_105,3,distance,cathedral,spatial_unmasking,4,122,0,0,_five_,talker-p245_sex-f_text-_five_.wav,p245,f,5,37,6.0,7.0,RX81,6,0.0,0.0,7.0,74.34149293193902,babble-reversed_n13_p307-five-p229-two-p318-four-p248-three-p245-nine-p268-eight.wav,4,RX81,5,0.0,0.0,6.0,89.31368318402099,mgb_normalisation,89.31368318402099,90.34149293193902,5,1.0,False,2.874769926071167
,2024-06-26 12:00:46,sub_105,3,distance,cathedral,spatial_unmasking,4,123,0,0,_one_,talker-p245_sex-f_text-_one_.wav,p245,f,5,38,6.0,7.0,RX81,6,0.0,0.0,7.0,75.341492931939,babble-reversed_n13_p229-one-p318-nine-p256-four-p284-eight-p268-five-p245-two.wav,4,RX81,5,0.0,0.0,6.0,89.31368318402099,mgb_normalisation,89.31368318402099,90.34149293193902,1,1.0,True,1.4999275207519531
,2024-06-26 12:01:32,sub_105,3,distance,cathedral,spatial_unmasking,5,124,0,0,_two_,talker-p245_sex-f_text-_two_.wav,p245,f,5,1,10.0,7.0,RX81,6,0.0,0.0,7.0,92.341492931939,babble-reversed_n13_p256-eight-p318-two-p307-five-p245-four-p268-nine-p284-one.wav,8,RX81,9,0.0,0.0,10.0,92.0152836843556,mgb_normalisation,92.0152836843556,90.34149293193902,2,2.0,True,1.062413215637207
,2024-06-26 12:01:36,sub_105,3,distance,cathedral,spatial_unmasking,5,125,0,0,_three_,talker-p245_sex-f_text-_three_.wav,p245,f,5,2,10.0,7.0,RX81,6,0.0,0.0,7.0,88.34149293193903,babble-reversed_n13_p229-five-p318-three-p307-two-p245-four-p284-nine-p248-eight.wav,8,RX81,9,0.0,0.0,10.0,92.0152836843556,mgb_normalisation,92.0152836843556,90.34149293193902,3,3.0,True,0.99992036819458
,2024-06-26 12:01:39,sub_105,3,distance,cathedral,spatial_unmasking,5,126,0,0,_four_,talker-p245_sex-f_text-_four_.wav,p245,f,5,3,10.0,7.0,RX81,6,0.0,0.0,7.0,84.34149293193903,babble-reversed_n13_p318-five-p229-three-p256-four-p268-eight-p248-one-p245-nine.wav,8,RX81,9,0.0,0.0,10.0,92.0152836843556,mgb_normalisation,92.0152836843556,90.34149293193902,4,4.0,True,0.8749110698699951
,2024-06-26 12:01:42,sub_105,3,distance,cathedral,spatial_unmasking,5,127,0,0,_two_,talker-p245_sex-f_text-_two_.wav,p245,f,5,4,10.0,7.0,RX81,6,0.0,0.0,7.0,80.341492931939,babble-reversed_n13_p229-one-p318-eight-p256-three-p268-nine-p248-five-p284-four.wav,8,RX81,9,0.0,0.0,10.0,92.0152836843556,mgb_normalisation,92.0152836843556,90.34149293193902,2,2.0,True,1.0624144077301023
,2024-06-26 12:01:46,sub_105,3,distance,cathedral,spatial_unmasking,5,128,0,0,_two_,talker-p245_sex-f_text-_two_.wav,p245,f,5,5,10.0,7.0,RX81,6,0.0,0.0,7.0,76.341492931939,babble-reversed_n13_p256-eight-p229-three-p307-nine-p245-five-p248-four-p268-two.wav,8,RX81,9,0.0,0.0,10.0,92.0152836843556,mgb_normalisation,92.0152836843556,90.34149293193902,2,2.0,True,1.1249096393585205
,2024-06-26 12:01:52,sub_105,3,distance,cathedral,spatial_unmasking,5,129,0,0,_three_,talker-p245_sex-f_text-_three_.wav,p245,f,5,6,10.0,7.0,RX81,6,0.0,0.0,7.0,72.34149293193903,babble-reversed_n13_p256-three-p318-one-p307-two-p284-nine-p268-four-p245-eight.wav,8,RX81,9,0.0,0.0,10.0,92.0152836843556,mgb_normalisation,92.0152836843556,90.34149293193902,3,1.0,False,3.374730348587036
,2024-06-26 12:01:55,sub_105,3,distance,cathedral,spatial_unmasking,5,130,0,0,_four_,talker-p245_sex-f_text-_four_.wav,p245,f,5,7,10.0,7.0,RX81,6,0.0,0.0,7.0,74.34149293193903,babble-reversed_n13_p256-two-p307-five-p318-nine-p248-eight-p245-four-p284-one.wav,8,RX81,9,0.0,0.0,10.0,92.0152836843556,mgb_normalisation,92.0152836843556,90.34149293193902,4,1.0,False,0.9999189376831056
,2024-06-26 12:01:58,sub_105,3,distance,cathedral,spatial_unmasking,5,131,0,0,_two_,talker-p245_sex-f_text-_two_.wav,p245,f,5,8,10.0,7.0,RX81,6,0.0,0.0,7.0,76.341492931939,babble-reversed_n13_p307-nine-p229-one-p256-eight-p248-four-p284-two-p268-three.wav,8,RX81,9,0.0,0.0,10.0,92.0152836843556,mgb_normalisation,92.0152836843556,90.34149293193902,2,3.0,False,0.9999239444732666
,2024-06-26 12:02:02,sub_105,3,distance,cathedral,spatial_unmasking,5,132,0,0,_four_,talker-p245_sex-f_text-_four_.wav,p245,f,5,9,10.0,7.0,RX81,6,0.0,0.0,7.0,78.34149293193902,babble-reversed_n13_p318-three-p307-one-p256-five-p248-nine-p245-two-p284-eight.wav,8,RX81,9,0.0,0.0,10.0,92.0152836843556,mgb_normalisation,92.0152836843556,90.34149293193902,4,4.0,True,1.0624146461486816
,2024-06-26 12:02:07,sub_105,3,distance,cathedral,spatial_unmasking,5,133,0,0,_three_,talker-p245_sex-f_text-_three_.wav,p245,f,5,10,10.0,7.0,RX81,6,0.0,0.0,7.0,76.34149293193902,babble-reversed_n13_p318-nine-p307-eight-p229-two-p284-one-p248-three-p245-five.wav,8,RX81,9,0.0,0.0,10.0,92.0152836843556,mgb_normalisation,92.0152836843556,90.34149293193902,3,5.0,False,2.6247894763946533
,2024-06-26 12:02:11,sub_105,3,distance,cathedral,spatial_unmasking,5,134,0,0,_one_,talker-p245_sex-f_text-_one_.wav,p245,f,5,11,10.0,7.0,RX81,6,0.0,0.0,7.0,77.341492931939,babble-reversed_n13_p318-nine-p307-eight-p229-two-p284-one-p248-three-p245-five.wav,8,RX81,9,0.0,0.0,10.0,92.0152836843556,mgb_normalisation,92.0152836843556,90.34149293193902,1,1.0,True,1.374889612197876
,2024-06-26 12:02:15,sub_105,3,distance,cathedral,spatial_unmasking,5,135,0,0,_four_,talker-p245_sex-f_text-_four_.wav,p245,f,5,12,10.0,7.0,RX81,6,0.0,0.0,7.0,76.34149293193903,babble-reversed_n13_p307-two-p229-one-p256-five-p248-nine-p284-three-p268-eight.wav,8,RX81,9,0.0,0.0,10.0,92.0152836843556,mgb_normalisation,92.0152836843556,90.34149293193902,4,4.0,True,1.437385082244873
,2024-06-26 12:02:18,sub_105,3,distance,cathedral,spatial_unmasking,5,136,0,0,_two_,talker-p245_sex-f_text-_two_.wav,p245,f,5,13,10.0,7.0,RX81,6,0.0,0.0,7.0,75.341492931939,babble-reversed_n13_p318-three-p229-one-p256-eight-p245-five-p248-four-p284-nine.wav,8,RX81,9,0.0,0.0,10.0,92.0152836843556,mgb_normalisation,92.0152836843556,90.34149293193902,2,4.0,False,1.124939203262329
,2024-06-26 12:02:21,sub_105,3,distance,cathedral,spatial_unmasking,5,137,0,0,_five_,talker-p245_sex-f_text-_five_.wav,p245,f,5,14,10.0,7.0,RX81,6,0.0,0.0,7.0,76.34149293193902,babble-reversed_n13_p229-two-p256-three-p318-eight-p284-five-p268-four-p245-one.wav,8,RX81,9,0.0,0.0,10.0,92.0152836843556,mgb_normalisation,92.0152836843556,90.34149293193902,5,5.0,True,0.6249778270721436
,2024-06-26 12:02:26,sub_105,3,distance,cathedral,spatial_unmasking,5,138,0,0,_three_,talker-p245_sex-f_text-_three_.wav,p245,f,5,15,10.0,7.0,RX81,6,0.0,0.0,7.0,75.34149293193903,babble-reversed_n13_p307-two-p229-one-p256-five-p248-nine-p284-three-p268-eight.wav,8,RX81,9,0.0,0.0,10.0,92.0152836843556,mgb_normalisation,92.0152836843556,90.34149293193902,3,3.0,True,2.749779224395752
,2024-06-26 12:02:31,sub_105,3,distance,cathedral,spatial_unmasking,5,139,0,0,_two_,talker-p245_sex-f_text-_two_.wav,p245,f,5,16,10.0,7.0,RX81,6,0.0,0.0,7.0,74.341492931939,babble-reversed_n13_p256-eight-p318-five-p307-four-p245-three-p268-one-p284-nine.wav,8,RX81,9,0.0,0.0,10.0,92.0152836843556,mgb_normalisation,92.0152836843556,90.34149293193902,2,2.0,True,2.31231427192688
,2024-06-26 12:02:36,sub_105,3,distance,cathedral,spatial_unmasking,5,140,0,0,_one_,talker-p245_sex-f_text-_one_.wav,p245,f,5,17,10.0,7.0,RX81,6,0.0,0.0,7.0,73.341492931939,babble-reversed_n13_p307-nine-p318-two-p256-one-p245-three-p268-four-p248-eight.wav,8,RX81,9,0.0,0.0,10.0,92.0152836843556,mgb_normalisation,92.0152836843556,90.34149293193902,1,4.0,False,2.5623035430908203
,2024-06-26 12:02:40,sub_105,3,distance,cathedral,spatial_unmasking,5,141,0,0,_two_,talker-p245_sex-f_text-_two_.wav,p245,f,5,18,10.0,7.0,RX81,6,0.0,0.0,7.0,74.341492931939,babble-reversed_n13_p229-nine-p256-four-p318-three-p268-eight-p248-two-p284-five.wav,8,RX81,9,0.0,0.0,10.0,92.0152836843556,mgb_normalisation,92.0152836843556,90.34149293193902,2,3.0,False,1.2499043941497805
,2024-06-26 12:02:43,sub_105,3,distance,cathedral,spatial_unmasking,5,142,0,0,_five_,talker-p245_sex-f_text-_five_.wav,p245,f,5,19,10.0,7.0,RX81,6,0.0,0.0,7.0,75.34149293193902,babble-reversed_n13_p229-one-p318-nine-p256-four-p284-eight-p268-five-p245-two.wav,8,RX81,9,0.0,0.0,10.0,92.0152836843556,mgb_normalisation,92.0152836843556,90.34149293193902,5,5.0,True,0.9999232292175292
,2024-06-26 12:02:46,sub_105,3,distance,cathedral,spatial_unmasking,5,143,0,0,_five_,talker-p245_sex-f_text-_five_.wav,p245,f,5,20,10.0,7.0,RX81,6,0.0,0.0,7.0,74.34149293193902,babble-reversed_n13_p229-two-p256-three-p318-eight-p284-five-p268-four-p245-one.wav,8,RX81,9,0.0,0.0,10.0,92.0152836843556,mgb_normalisation,92.0152836843556,90.34149293193902,5,5.0,True,1.1249139308929443
,2024-06-26 12:02:51,sub_105,3,distance,cathedral,spatial_unmasking,5,144,0,0,_five_,talker-p245_sex-f_text-_five_.wav,p245,f,5,21,10.0,7.0,RX81,6,0.0,0.0,7.0,73.34149293193902,babble-reversed_n13_p229-nine-p307-five-p256-two-p248-three-p245-one-p268-eight.wav,8,RX81,9,0.0,0.0,10.0,92.0152836843556,mgb_normalisation,92.0152836843556,90.34149293193902,5,1.0,False,1.874855279922485
,2024-06-26 12:02:55,sub_105,3,distance,cathedral,spatial_unmasking,5,145,0,0,_five_,talker-p245_sex-f_text-_five_.wav,p245,f,5,22,10.0,7.0,RX81,6,0.0,0.0,7.0,74.34149293193902,babble-reversed_n13_p229-nine-p307-five-p256-two-p248-three-p245-one-p268-eight.wav,8,RX81,9,0.0,0.0,10.0,92.0152836843556,mgb_normalisation,92.0152836843556,90.34149293193902,5,1.0,False,1.8748559951782229
,2024-06-26 12:03:00,sub_105,3,distance,cathedral,spatial_unmasking,5,146,0,0,_one_,talker-p245_sex-f_text-_one_.wav,p245,f,5,23,10.0,7.0,RX81,6,0.0,0.0,7.0,75.341492931939,babble-reversed_n13_p229-nine-p318-one-p307-two-p248-eight-p245-five-p284-four.wav,8,RX81,9,0.0,0.0,10.0,92.0152836843556,mgb_normalisation,92.0152836843556,90.34149293193902,1,4.0,False,2.124835252761841
,2024-06-26 12:03:03,sub_105,3,distance,cathedral,spatial_unmasking,5,147,0,0,_five_,talker-p245_sex-f_text-_five_.wav,p245,f,5,24,10.0,7.0,RX81,6,0.0,0.0,7.0,76.34149293193902,babble-reversed_n13_p229-two-p256-three-p318-eight-p284-five-p268-four-p245-one.wav,8,RX81,9,0.0,0.0,10.0,92.0152836843556,mgb_normalisation,92.0152836843556,90.34149293193902,5,5.0,True,1.312345266342163
,2024-06-26 12:03:08,sub_105,3,distance,cathedral,spatial_unmasking,5,148,0,0,_four_,talker-p245_sex-f_text-_four_.wav,p245,f,5,25,10.0,7.0,RX81,6,0.0,0.0,7.0,75.34149293193903,babble-reversed_n13_p307-nine-p318-two-p256-one-p245-three-p268-four-p248-eight.wav,8,RX81,9,0.0,0.0,10.0,92.0152836843556,mgb_normalisation,92.0152836843556,90.34149293193902,4,4.0,True,2.5623037815093994
,2024-06-26 12:03:13,sub_105,3,distance,cathedral,spatial_unmasking,5,149,0,0,_five_,talker-p245_sex-f_text-_five_.wav,p245,f,5,26,10.0,7.0,RX81,6,0.0,0.0,7.0,74.34149293193902,babble-reversed_n13_p229-five-p318-three-p307-two-p245-four-p284-nine-p248-eight.wav,8,RX81,9,0.0,0.0,10.0,92.0152836843556,mgb_normalisation,92.0152836843556,90.34149293193902,5,1.0,False,2.187333583831787
,2024-06-26 12:03:21,sub_105,3,distance,cathedral,spatial_unmasking,5,150,0,0,_one_,talker-p245_sex-f_text-_one_.wav,p245,f,5,27,10.0,7.0,RX81,6,0.0,0.0,7.0,75.341492931939,babble-reversed_n13_p307-five-p229-two-p318-four-p248-three-p245-nine-p268-eight.wav,8,RX81,9,0.0,0.0,10.0,92.0152836843556,mgb_normalisation,92.0152836843556,90.34149293193902,1,2.0,False,6.0619730949401855
,2024-06-26 12:03:25,sub_105,3,distance,cathedral,spatial_unmasking,5,151,0,0,_four_,talker-p245_sex-f_text-_four_.wav,p245,f,5,28,10.0,7.0,RX81,6,0.0,0.0,7.0,76.34149293193903,babble-reversed_n13_p229-three-p307-one-p318-two-p245-eight-p268-five-p284-four.wav,8,RX81,9,0.0,0.0,10.0,92.0152836843556,mgb_normalisation,92.0152836843556,90.34149293193902,4,4.0,True,1.374875783920288
,2024-06-26 12:03:29,sub_105,3,distance,cathedral,spatial_unmasking,5,152,0,0,_one_,talker-p245_sex-f_text-_one_.wav,p245,f,5,29,10.0,7.0,RX81,6,0.0,0.0,7.0,75.341492931939,babble-reversed_n13_p256-eight-p229-three-p307-nine-p245-five-p248-four-p268-two.wav,8,RX81,9,0.0,0.0,10.0,92.0152836843556,mgb_normalisation,92.0152836843556,90.34149293193902,1,1.0,True,1.8748555183410645
,2024-06-26 12:03:34,sub_105,3,distance,cathedral,spatial_unmasking,5,153,0,0,_three_,talker-p245_sex-f_text-_three_.wav,p245,f,5,30,10.0,7.0,RX81,6,0.0,0.0,7.0,74.34149293193902,babble-reversed_n13_p229-nine-p307-five-p256-two-p248-three-p245-one-p268-eight.wav,8,RX81,9,0.0,0.0,10.0,92.0152836843556,mgb_normalisation,92.0152836843556,90.34149293193902,3,2.0,False,1.9998466968536377
,2024-06-26 12:03:39,sub_105,3,distance,cathedral,spatial_unmasking,5,154,0,0,_three_,talker-p245_sex-f_text-_three_.wav,p245,f,5,31,10.0,7.0,RX81,6,0.0,0.0,7.0,75.34149293193903,babble-reversed_n13_p229-two-p318-eight-p256-three-p268-one-p248-nine-p284-five.wav,8,RX81,9,0.0,0.0,10.0,92.0152836843556,mgb_normalisation,92.0152836843556,90.34149293193902,3,4.0,False,3.062264204025269
,2024-06-26 12:03:43,sub_105,3,distance,cathedral,spatial_unmasking,5,155,0,0,_five_,talker-p245_sex-f_text-_five_.wav,p245,f,5,32,10.0,7.0,RX81,6,0.0,0.0,7.0,76.34149293193902,babble-reversed_n13_p229-nine-p256-four-p318-three-p268-eight-p248-two-p284-five.wav,8,RX81,9,0.0,0.0,10.0,92.0152836843556,mgb_normalisation,92.0152836843556,90.34149293193902,5,5.0,True,1.3749117851257324
,2024-06-26 12:03:47,sub_105,3,distance,cathedral,spatial_unmasking,5,156,0,0,_one_,talker-p245_sex-f_text-_one_.wav,p245,f,5,33,10.0,7.0,RX81,6,0.0,0.0,7.0,75.341492931939,babble-reversed_n13_p256-five-p307-nine-p318-three-p284-eight-p268-one-p248-two.wav,8,RX81,9,0.0,0.0,10.0,92.0152836843556,mgb_normalisation,92.0152836843556,90.34149293193902,1,3.0,False,1.8748555183410645
,2024-06-26 12:03:51,sub_105,3,distance,cathedral,spatial_unmasking,5,157,0,0,_three_,talker-p245_sex-f_text-_three_.wav,p245,f,5,34,10.0,7.0,RX81,6,0.0,0.0,7.0,76.34149293193902,babble-reversed_n13_p256-three-p318-two-p229-nine-p248-four-p284-one-p268-eight.wav,8,RX81,9,0.0,0.0,10.0,92.0152836843556,mgb_normalisation,92.0152836843556,90.34149293193902,3,4.0,False,1.8748559951782229
,2024-06-26 12:03:55,sub_105,3,distance,cathedral,spatial_unmasking,5,158,0,0,_four_,talker-p245_sex-f_text-_four_.wav,p245,f,5,35,10.0,7.0,RX81,6,0.0,0.0,7.0,77.34149293193903,babble-reversed_n13_p229-three-p307-one-p318-two-p245-eight-p268-five-p284-four.wav,8,RX81,9,0.0,0.0,10.0,92.0152836843556,mgb_normalisation,92.0152836843556,90.34149293193902,4,4.0,True,1.0624186992645264
,2024-06-26 12:04:47,sub_105,3,distance,cathedral,spatial_unmasking,6,159,0,0,_two_,talker-p245_sex-f_text-_two_.wav,p245,f,5,1,4.0,7.0,RX81,6,0.0,0.0,7.0,92.341492931939,babble-reversed_n13_p256-five-p229-one-p318-three-p248-nine-p284-eight-p268-two.wav,2,RX81,3,0.0,0.0,4.0,87.57049330475357,mgb_normalisation,87.57049330475357,90.34149293193902,2,2.0,True,0.8124382495880127
,2024-06-26 12:04:51,sub_105,3,distance,cathedral,spatial_unmasking,6,160,0,0,_five_,talker-p245_sex-f_text-_five_.wav,p245,f,5,2,4.0,7.0,RX81,6,0.0,0.0,7.0,88.34149293193902,babble-reversed_n13_p229-three-p256-one-p307-two-p284-eight-p268-five-p248-nine.wav,2,RX81,3,0.0,0.0,4.0,87.57049330475357,mgb_normalisation,87.57049330475357,90.34149293193902,5,5.0,True,1.1249127388000488
,2024-06-26 12:04:54,sub_105,3,distance,cathedral,spatial_unmasking,6,161,0,0,_five_,talker-p245_sex-f_text-_five_.wav,p245,f,5,3,4.0,7.0,RX81,6,0.0,0.0,7.0,84.341492931939,babble-reversed_n13_p318-five-p229-four-p256-eight-p284-one-p245-three-p248-two.wav,2,RX81,3,0.0,0.0,4.0,87.57049330475357,mgb_normalisation,87.57049330475357,90.34149293193902,5,5.0,True,1.1873605251312256
,2024-06-26 12:04:59,sub_105,3,distance,cathedral,spatial_unmasking,6,162,0,0,_two_,talker-p245_sex-f_text-_two_.wav,p245,f,5,4,4.0,7.0,RX81,6,0.0,0.0,7.0,80.341492931939,babble-reversed_n13_p318-five-p256-nine-p307-eight-p248-two-p245-four-p284-three.wav,2,RX81,3,0.0,0.0,4.0,87.57049330475357,mgb_normalisation,87.57049330475357,90.34149293193902,2,2.0,True,1.9998462200164795
,2024-06-26 12:05:03,sub_105,3,distance,cathedral,spatial_unmasking,6,163,0,0,_four_,talker-p245_sex-f_text-_four_.wav,p245,f,5,5,4.0,7.0,RX81,6,0.0,0.0,7.0,76.34149293193903,babble-reversed_n13_p307-nine-p318-two-p256-one-p245-three-p268-four-p248-eight.wav,2,RX81,3,0.0,0.0,4.0,87.57049330475355,mgb_normalisation,87.57049330475357,90.34149293193902,4,4.0,True,1.3124263286590576
,2024-06-26 12:05:06,sub_105,3,distance,cathedral,spatial_unmasking,6,164,0,0,_three_,talker-p245_sex-f_text-_three_.wav,p245,f,5,6,4.0,7.0,RX81,6,0.0,0.0,7.0,72.34149293193903,babble-reversed_n13_p256-eight-p318-two-p307-five-p245-four-p268-nine-p284-one.wav,2,RX81,3,0.0,0.0,4.0,87.57049330475357,mgb_normalisation,87.57049330475357,90.34149293193902,3,1.0,False,1.4373891353607178
,2024-06-26 12:05:12,sub_105,3,distance,cathedral,spatial_unmasking,6,165,0,0,_four_,talker-p245_sex-f_text-_four_.wav,p245,f,5,7,4.0,7.0,RX81,6,0.0,0.0,7.0,74.34149293193903,babble-reversed_n13_p307-nine-p318-two-p256-one-p245-three-p268-four-p248-eight.wav,2,RX81,3,0.0,0.0,4.0,87.57049330475355,mgb_normalisation,87.57049330475357,90.34149293193902,4,1.0,False,2.937274694442749
,2024-06-26 12:05:15,sub_105,3,distance,cathedral,spatial_unmasking,6,166,0,0,_five_,talker-p245_sex-f_text-_five_.wav,p245,f,5,8,4.0,7.0,RX81,6,0.0,0.0,7.0,76.34149293193902,babble-reversed_n13_p318-three-p229-one-p256-eight-p245-five-p248-four-p284-nine.wav,2,RX81,3,0.0,0.0,4.0,87.57049330475357,mgb_normalisation,87.57049330475357,90.34149293193902,5,4.0,False,1.0624175071716309
,2024-06-26 12:05:19,sub_105,3,distance,cathedral,spatial_unmasking,6,167,0,0,_four_,talker-p245_sex-f_text-_four_.wav,p245,f,5,9,4.0,7.0,RX81,6,0.0,0.0,7.0,78.34149293193902,babble-reversed_n13_p229-one-p318-nine-p256-four-p284-eight-p268-five-p245-two.wav,2,RX81,3,0.0,0.0,4.0,87.57049330475357,mgb_normalisation,87.57049330475357,90.34149293193902,4,4.0,True,1.62487530708313
,2024-06-26 12:05:23,sub_105,3,distance,cathedral,spatial_unmasking,6,168,0,0,_one_,talker-p245_sex-f_text-_one_.wav,p245,f,5,10,4.0,7.0,RX81,6,0.0,0.0,7.0,76.34149293193902,babble-reversed_n13_p256-eight-p229-three-p307-nine-p245-five-p248-four-p268-two.wav,2,RX81,3,0.0,0.0,4.0,87.57049330475355,mgb_normalisation,87.57049330475357,90.34149293193902,1,4.0,False,1.5623795986175537
,2024-06-26 12:05:31,sub_105,3,distance,cathedral,spatial_unmasking,6,169,0,0,_four_,talker-p245_sex-f_text-_four_.wav,p245,f,5,11,4.0,7.0,RX81,6,0.0,0.0,7.0,77.34149293193903,babble-reversed_n13_p318-five-p229-three-p256-four-p268-eight-p248-one-p245-nine.wav,2,RX81,3,0.0,0.0,4.0,87.57049330475357,mgb_normalisation,87.57049330475357,90.34149293193902,4,1.0,False,5.2495951652526855
,2024-06-26 12:05:35,sub_105,3,distance,cathedral,spatial_unmasking,6,170,0,0,_five_,talker-p245_sex-f_text-_five_.wav,p245,f,5,12,4.0,7.0,RX81,6,0.0,0.0,7.0,78.34149293193902,babble-reversed_n13_p229-nine-p256-four-p318-three-p268-eight-p248-two-p284-five.wav,2,RX81,3,0.0,0.0,4.0,87.57049330475357,mgb_normalisation,87.57049330475357,90.34149293193902,5,5.0,True,1.437391757965088
,2024-06-26 12:05:41,sub_105,3,distance,cathedral,spatial_unmasking,6,171,0,0,_five_,talker-p245_sex-f_text-_five_.wav,p245,f,5,13,4.0,7.0,RX81,6,0.0,0.0,7.0,77.34149293193902,babble-reversed_n13_p318-five-p229-three-p256-four-p268-eight-p248-one-p245-nine.wav,2,RX81,3,0.0,0.0,4.0,87.57049330475357,mgb_normalisation,87.57049330475357,90.34149293193902,5,5.0,True,4.4996538162231445
,2024-06-26 12:05:45,sub_105,3,distance,cathedral,spatial_unmasking,6,172,0,0,_four_,talker-p245_sex-f_text-_four_.wav,p245,f,5,14,4.0,7.0,RX81,6,0.0,0.0,7.0,76.34149293193903,babble-reversed_n13_p318-one-p307-two-p256-eight-p284-three-p248-five-p245-four.wav,2,RX81,3,0.0,0.0,4.0,87.57049330475357,mgb_normalisation,87.57049330475357,90.34149293193902,4,4.0,True,1.4998841285705566
,2024-06-26 12:05:49,sub_105,3,distance,cathedral,spatial_unmasking,6,173,0,0,_five_,talker-p245_sex-f_text-_five_.wav,p245,f,5,15,4.0,7.0,RX81,6,0.0,0.0,7.0,75.34149293193902,babble-reversed_n13_p307-nine-p229-one-p256-eight-p248-four-p284-two-p268-three.wav,2,RX81,3,0.0,0.0,4.0,87.57049330475357,mgb_normalisation,87.57049330475357,90.34149293193902,5,3.0,False,0.8749325275421143
,2024-06-26 12:05:52,sub_105,3,distance,cathedral,spatial_unmasking,6,174,0,0,_five_,talker-p245_sex-f_text-_five_.wav,p245,f,5,16,4.0,7.0,RX81,6,0.0,0.0,7.0,76.34149293193902,babble-reversed_n13_p256-three-p318-one-p307-two-p284-nine-p268-four-p245-eight.wav,2,RX81,3,0.0,0.0,4.0,87.57049330475357,mgb_normalisation,87.57049330475357,90.34149293193902,5,4.0,False,1.1249146461486816
,2024-06-26 12:05:56,sub_105,3,distance,cathedral,spatial_unmasking,6,175,0,0,_two_,talker-p245_sex-f_text-_two_.wav,p245,f,5,17,4.0,7.0,RX81,6,0.0,0.0,7.0,77.341492931939,babble-reversed_n13_p318-five-p256-nine-p307-two-p245-eight-p248-one-p284-four.wav,2,RX81,3,0.0,0.0,4.0,87.57049330475357,mgb_normalisation,87.57049330475357,90.34149293193902,2,2.0,True,1.06241774559021
,2024-06-26 12:06:00,sub_105,3,distance,cathedral,spatial_unmasking,6,176,0,0,_three_,talker-p245_sex-f_text-_three_.wav,p245,f,5,18,4.0,7.0,RX81,6,0.0,0.0,7.0,76.34149293193902,babble-reversed_n13_p318-nine-p256-five-p307-eight-p268-three-p248-one-p245-four.wav,2,RX81,3,0.0,0.0,4.0,87.57049330475357,mgb_normalisation,87.57049330475357,90.34149293193902,3,3.0,True,1.6873693466186523
,2024-06-26 12:06:03,sub_105,3,distance,cathedral,spatial_unmasking,6,177,0,0,_four_,talker-p245_sex-f_text-_four_.wav,p245,f,5,19,4.0,7.0,RX81,6,0.0,0.0,7.0,75.34149293193903,babble-reversed_n13_p256-four-p307-eight-p318-two-p248-three-p284-nine-p268-one.wav,2,RX81,3,0.0,0.0,4.0,87.57049330475357,mgb_normalisation,87.57049330475357,90.34149293193902,4,4.0,True,1.2499008178710938
,2024-06-26 12:06:08,sub_105,3,distance,cathedral,spatial_unmasking,6,178,0,0,_three_,talker-p245_sex-f_text-_three_.wav,p245,f,5,20,4.0,7.0,RX81,6,0.0,0.0,7.0,74.34149293193902,babble-reversed_n13_p229-three-p256-one-p307-two-p284-eight-p268-five-p248-nine.wav,2,RX81,3,0.0,0.0,4.0,87.57049330475357,mgb_normalisation,87.57049330475357,90.34149293193902,3,3.0,True,1.812360763549805
,2024-06-26 12:06:12,sub_105,3,distance,cathedral,spatial_unmasking,6,179,0,0,_four_,talker-p245_sex-f_text-_four_.wav,p245,f,5,21,4.0,7.0,RX81,6,0.0,0.0,7.0,73.34149293193903,babble-reversed_n13_p307-one-p318-five-p229-four-p268-eight-p284-two-p245-three.wav,2,RX81,3,0.0,0.0,4.0,87.57049330475355,mgb_normalisation,87.57049330475357,90.34149293193902,4,3.0,False,2.374833822250366
,2024-06-26 12:06:17,sub_105,3,distance,cathedral,spatial_unmasking,6,180,0,0,_three_,talker-p245_sex-f_text-_three_.wav,p245,f,5,22,4.0,7.0,RX81,6,0.0,0.0,7.0,74.34149293193902,babble-reversed_n13_p318-nine-p256-five-p307-eight-p268-three-p248-one-p245-four.wav,2,RX81,3,0.0,0.0,4.0,87.57049330475357,mgb_normalisation,87.57049330475357,90.34149293193902,3,3.0,True,2.4373130798339844
,2024-06-26 12:06:22,sub_105,3,distance,cathedral,spatial_unmasking,6,181,0,0,_three_,talker-p245_sex-f_text-_three_.wav,p245,f,5,23,4.0,7.0,RX81,6,0.0,0.0,7.0,73.34149293193902,babble-reversed_n13_p318-nine-p307-eight-p229-two-p284-one-p248-three-p245-five.wav,2,RX81,3,0.0,0.0,4.0,87.57049330475357,mgb_normalisation,87.57049330475357,90.34149293193902,3,1.0,False,2.749788522720337
,2024-06-26 12:06:26,sub_105,3,distance,cathedral,spatial_unmasking,6,182,0,0,_one_,talker-p245_sex-f_text-_one_.wav,p245,f,5,24,4.0,7.0,RX81,6,0.0,0.0,7.0,74.341492931939,babble-reversed_n13_p256-two-p307-five-p318-nine-p248-eight-p245-four-p284-one.wav,2,RX81,3,0.0,0.0,4.0,87.57049330475357,mgb_normalisation,87.57049330475357,90.34149293193902,1,3.0,False,1.499882698059082
,2024-06-26 12:06:30,sub_105,3,distance,cathedral,spatial_unmasking,6,183,0,0,_three_,talker-p245_sex-f_text-_three_.wav,p245,f,5,25,4.0,7.0,RX81,6,0.0,0.0,7.0,75.34149293193903,babble-reversed_n13_p229-two-p318-eight-p256-three-p268-one-p248-nine-p284-five.wav,2,RX81,3,0.0,0.0,4.0,87.57049330475355,mgb_normalisation,87.57049330475357,90.34149293193902,3,2.0,False,1.062417984008789
,2024-06-26 12:06:33,sub_105,3,distance,cathedral,spatial_unmasking,6,184,0,0,_four_,talker-p245_sex-f_text-_four_.wav,p245,f,5,26,4.0,7.0,RX81,6,0.0,0.0,7.0,76.34149293193903,babble-reversed_n13_p229-five-p318-three-p307-two-p245-four-p284-nine-p248-eight.wav,2,RX81,3,0.0,0.0,4.0,87.57049330475357,mgb_normalisation,87.57049330475357,90.34149293193902,4,4.0,True,0.9374268054962158
,2024-06-26 12:06:37,sub_105,3,distance,cathedral,spatial_unmasking,6,185,0,0,_five_,talker-p245_sex-f_text-_five_.wav,p245,f,5,27,4.0,7.0,RX81,6,0.0,0.0,7.0,75.34149293193902,babble-reversed_n13_p229-two-p307-five-p318-four-p284-one-p248-nine-p268-eight.wav,2,RX81,3,0.0,0.0,4.0,87.57049330475357,mgb_normalisation,87.57049330475357,90.34149293193902,5,1.0,False,1.999849319458008
,2024-06-26 12:06:42,sub_105,3,distance,cathedral,spatial_unmasking,6,186,0,0,_one_,talker-p245_sex-f_text-_one_.wav,p245,f,5,28,4.0,7.0,RX81,6,0.0,0.0,7.0,76.34149293193902,babble-reversed_n13_p256-eight-p229-three-p307-nine-p245-five-p248-four-p268-two.wav,2,RX81,3,0.0,0.0,4.0,87.57049330475355,mgb_normalisation,87.57049330475357,90.34149293193902,1,4.0,False,2.749788284301758
,2024-06-26 12:06:47,sub_105,3,distance,cathedral,spatial_unmasking,6,187,0,0,_two_,talker-p245_sex-f_text-_two_.wav,p245,f,5,29,4.0,7.0,RX81,6,0.0,0.0,7.0,77.341492931939,babble-reversed_n13_p229-two-p318-eight-p256-three-p268-one-p248-nine-p284-five.wav,2,RX81,3,0.0,0.0,4.0,87.57049330475355,mgb_normalisation,87.57049330475357,90.34149293193902,2,2.0,True,1.6873698234558103
,2024-06-26 12:06:51,sub_105,3,distance,cathedral,spatial_unmasking,6,188,0,0,_five_,talker-p245_sex-f_text-_five_.wav,p245,f,5,30,4.0,7.0,RX81,6,0.0,0.0,7.0,76.34149293193902,babble-reversed_n13_p318-one-p307-two-p256-eight-p284-three-p248-five-p245-four.wav,2,RX81,3,0.0,0.0,4.0,87.57049330475357,mgb_normalisation,87.57049330475357,90.34149293193902,5,3.0,False,1.8436086177825928
,2024-06-26 12:06:54,sub_105,3,distance,cathedral,spatial_unmasking,6,189,0,0,_one_,talker-p245_sex-f_text-_one_.wav,p245,f,5,31,4.0,7.0,RX81,6,0.0,0.0,7.0,77.341492931939,babble-reversed_n13_p229-five-p256-three-p318-nine-p248-two-p284-four-p268-one.wav,2,RX81,3,0.0,0.0,4.0,87.57049330475357,mgb_normalisation,87.57049330475357,90.34149293193902,1,4.0,False,1.0624182224273682
,2024-06-26 12:06:58,sub_105,3,distance,cathedral,spatial_unmasking,6,190,0,0,_two_,talker-p245_sex-f_text-_two_.wav,p245,f,5,32,4.0,7.0,RX81,6,0.0,0.0,7.0,78.341492931939,babble-reversed_n13_p229-one-p318-eight-p256-three-p268-nine-p248-five-p284-four.wav,2,RX81,3,0.0,0.0,4.0,87.57049330475357,mgb_normalisation,87.57049330475357,90.34149293193902,2,2.0,True,1.2499041557312012
,2024-06-26 12:07:02,sub_105,3,distance,cathedral,spatial_unmasking,6,191,0,0,_two_,talker-p245_sex-f_text-_two_.wav,p245,f,5,33,4.0,7.0,RX81,6,0.0,0.0,7.0,77.341492931939,babble-reversed_n13_p256-three-p318-one-p307-two-p284-nine-p268-four-p245-eight.wav,2,RX81,3,0.0,0.0,4.0,87.57049330475357,mgb_normalisation,87.57049330475357,90.34149293193902,2,4.0,False,2.1248350143432617
,2024-06-26 12:07:06,sub_105,3,distance,cathedral,spatial_unmasking,6,192,0,0,_five_,talker-p245_sex-f_text-_five_.wav,p245,f,5,34,4.0,7.0,RX81,6,0.0,0.0,7.0,78.34149293193902,babble-reversed_n13_p229-nine-p256-four-p318-three-p268-eight-p248-two-p284-five.wav,2,RX81,3,0.0,0.0,4.0,87.57049330475357,mgb_normalisation,87.57049330475357,90.34149293193902,5,3.0,False,1.437389850616455
,2024-06-26 12:07:10,sub_105,3,distance,cathedral,spatial_unmasking,6,193,0,0,_three_,talker-p245_sex-f_text-_three_.wav,p245,f,5,35,4.0,7.0,RX81,6,0.0,0.0,7.0,79.34149293193902,babble-reversed_n13_p256-two-p307-five-p318-nine-p248-eight-p245-four-p284-one.wav,2,RX81,3,0.0,0.0,4.0,87.57049330475357,mgb_normalisation,87.57049330475357,90.34149293193902,3,3.0,True,1.2498559951782229
,2024-06-26 12:09:36,sub_105,3,distance,cathedral,spatial_unmasking,7,194,0,0,_four_,talker-p245_sex-f_text-_four_.wav,p245,f,5,1,12.0,7.0,RX81,6,0.0,0.0,7.0,92.34149293193904,babble-reversed_n13_p256-four-p229-two-p318-five-p268-one-p248-eight-p245-three.wav,10,RX81,11,0.0,0.0,12.0,93.00003341222715,mgb_normalisation,93.00003341222715,90.34149293193902,4,4.0,True,1.1873815059661863
,2024-06-26 12:09:39,sub_105,3,distance,cathedral,spatial_unmasking,7,195,0,0,_two_,talker-p245_sex-f_text-_two_.wav,p245,f,5,2,12.0,7.0,RX81,6,0.0,0.0,7.0,88.34149293193902,babble-reversed_n13_p256-eight-p318-two-p307-five-p245-four-p268-nine-p284-one.wav,10,RX81,11,0.0,0.0,12.0,93.00003341222718,mgb_normalisation,93.00003341222715,90.34149293193902,2,2.0,True,0.8749325275421143
,2024-06-26 12:09:43,sub_105,3,distance,cathedral,spatial_unmasking,7,196,0,0,_two_,talker-p245_sex-f_text-_two_.wav,p245,f,5,3,12.0,7.0,RX81,6,0.0,0.0,7.0,84.341492931939,babble-reversed_n13_p256-eight-p318-five-p307-four-p245-three-p268-one-p284-nine.wav,10,RX81,11,0.0,0.0,12.0,93.00003341222715,mgb_normalisation,93.00003341222715,90.34149293193902,2,2.0,True,1.4373886585235596
,2024-06-26 12:09:47,sub_105,3,distance,cathedral,spatial_unmasking,7,197,0,0,_two_,talker-p245_sex-f_text-_two_.wav,p245,f,5,4,12.0,7.0,RX81,6,0.0,0.0,7.0,80.341492931939,babble-reversed_n13_p256-eight-p318-two-p307-five-p245-four-p268-nine-p284-one.wav,10,RX81,11,0.0,0.0,12.0,93.00003341222718,mgb_normalisation,93.00003341222715,90.34149293193902,2,1.0,False,1.312427043914795
,2024-06-26 12:09:50,sub_105,3,distance,cathedral,spatial_unmasking,7,198,0,0,_four_,talker-p245_sex-f_text-_four_.wav,p245,f,5,5,12.0,7.0,RX81,6,0.0,0.0,7.0,82.34149293193902,babble-reversed_n13_p318-four-p256-five-p229-three-p284-one-p245-eight-p248-nine.wav,10,RX81,11,0.0,0.0,12.0,93.00003341222718,mgb_normalisation,93.00003341222715,90.34149293193902,4,4.0,True,0.9999244213104248
,2024-06-26 12:09:54,sub_105,3,distance,cathedral,spatial_unmasking,7,199,0,0,_three_,talker-p245_sex-f_text-_three_.wav,p245,f,5,6,12.0,7.0,RX81,6,0.0,0.0,7.0,80.34149293193903,babble-reversed_n13_p307-nine-p318-two-p256-one-p245-three-p268-four-p248-eight.wav,10,RX81,11,0.0,0.0,12.0,93.00003341222715,mgb_normalisation,93.00003341222715,90.34149293193902,3,3.0,True,1.0624208450317385
,2024-06-26 12:09:58,sub_105,3,distance,cathedral,spatial_unmasking,7,200,0,0,_one_,talker-p245_sex-f_text-_one_.wav,p245,f,5,7,12.0,7.0,RX81,6,0.0,0.0,7.0,78.341492931939,babble-reversed_n13_p256-five-p229-one-p318-three-p248-nine-p284-eight-p268-two.wav,10,RX81,11,0.0,0.0,12.0,93.00003341222718,mgb_normalisation,93.00003341222715,90.34149293193902,1,4.0,False,1.3123993873596191
,2024-06-26 12:10:02,sub_105,3,distance,cathedral,spatial_unmasking,7,201,0,0,_two_,talker-p245_sex-f_text-_two_.wav,p245,f,5,8,12.0,7.0,RX81,6,0.0,0.0,7.0,79.341492931939,babble-reversed_n13_p229-eight-p256-nine-p318-four-p245-three-p268-five-p284-two.wav,10,RX81,11,0.0,0.0,12.0,93.00003341222715,mgb_normalisation,93.00003341222715,90.34149293193902,2,2.0,True,2.062340497970581
,2024-06-26 12:10:06,sub_105,3,distance,cathedral,spatial_unmasking,7,202,0,0,_three_,talker-p245_sex-f_text-_three_.wav,p245,f,5,9,12.0,7.0,RX81,6,0.0,0.0,7.0,78.34149293193902,babble-reversed_n13_p256-four-p229-eight-p307-five-p248-three-p245-one-p284-two.wav,10,RX81,11,0.0,0.0,12.0,93.00003341222715,mgb_normalisation,93.00003341222715,90.34149293193902,3,3.0,True,1.5623526573181152
,2024-06-26 12:10:10,sub_105,3,distance,cathedral,spatial_unmasking,7,203,0,0,_two_,talker-p245_sex-f_text-_two_.wav,p245,f,5,10,12.0,7.0,RX81,6,0.0,0.0,7.0,77.341492931939,babble-reversed_n13_p307-nine-p229-one-p256-eight-p248-four-p284-two-p268-three.wav,10,RX81,11,0.0,0.0,12.0,93.00003341222718,mgb_normalisation,93.00003341222715,90.34149293193902,2,3.0,False,1.8123605251312256
,2024-06-26 12:10:15,sub_105,3,distance,cathedral,spatial_unmasking,7,204,0,0,_three_,talker-p245_sex-f_text-_three_.wav,p245,f,5,11,12.0,7.0,RX81,6,0.0,0.0,7.0,78.34149293193902,babble-reversed_n13_p318-five-p229-three-p256-four-p268-eight-p248-one-p245-nine.wav,10,RX81,11,0.0,0.0,12.0,93.00003341222718,mgb_normalisation,93.00003341222715,90.34149293193902,3,1.0,False,1.9998469352722168
,2024-06-26 12:10:18,sub_105,3,distance,cathedral,spatial_unmasking,7,205,0,0,_two_,talker-p245_sex-f_text-_two_.wav,p245,f,5,12,12.0,7.0,RX81,6,0.0,0.0,7.0,79.341492931939,babble-reversed_n13_p318-five-p229-three-p256-four-p268-eight-p248-one-p245-nine.wav,10,RX81,11,0.0,0.0,12.0,93.00003341222718,mgb_normalisation,93.00003341222715,90.34149293193902,2,2.0,True,1.5623254776000977
,2024-06-26 12:10:22,sub_105,3,distance,cathedral,spatial_unmasking,7,206,0,0,_four_,talker-p245_sex-f_text-_four_.wav,p245,f,5,13,12.0,7.0,RX81,6,0.0,0.0,7.0,78.34149293193902,babble-reversed_n13_p256-four-p229-two-p318-five-p268-one-p248-eight-p245-three.wav,10,RX81,11,0.0,0.0,12.0,93.00003341222715,mgb_normalisation,93.00003341222715,90.34149293193902,4,4.0,True,1.3123979568481443
,2024-06-26 12:10:26,sub_105,3,distance,cathedral,spatial_unmasking,7,207,0,0,_three_,talker-p245_sex-f_text-_three_.wav,p245,f,5,14,12.0,7.0,RX81,6,0.0,0.0,7.0,77.34149293193903,babble-reversed_n13_p318-three-p307-one-p256-five-p248-nine-p245-two-p284-eight.wav,10,RX81,11,0.0,0.0,12.0,93.00003341222718,mgb_normalisation,93.00003341222715,90.34149293193902,3,3.0,True,1.1874268054962158
,2024-06-26 12:10:29,sub_105,3,distance,cathedral,spatial_unmasking,7,208,0,0,_four_,talker-p245_sex-f_text-_four_.wav,p245,f,5,15,12.0,7.0,RX81,6,0.0,0.0,7.0,76.34149293193903,babble-reversed_n13_p229-three-p256-one-p307-two-p284-eight-p268-five-p248-nine.wav,10,RX81,11,0.0,0.0,12.0,93.00003341222718,mgb_normalisation,93.00003341222715,90.34149293193902,4,4.0,True,1.2499454021453855
,2024-06-26 12:10:33,sub_105,3,distance,cathedral,spatial_unmasking,7,209,0,0,_five_,talker-p245_sex-f_text-_five_.wav,p245,f,5,16,12.0,7.0,RX81,6,0.0,0.0,7.0,75.34149293193902,babble-reversed_n13_p318-nine-p307-eight-p229-two-p284-one-p248-three-p245-five.wav,10,RX81,11,0.0,0.0,12.0,93.00003341222718,mgb_normalisation,93.00003341222715,90.34149293193902,5,5.0,True,1.3123996257781982
,2024-06-26 12:10:37,sub_105,3,distance,cathedral,spatial_unmasking,7,210,0,0,_five_,talker-p245_sex-f_text-_five_.wav,p245,f,5,17,12.0,7.0,RX81,6,0.0,0.0,7.0,74.34149293193902,babble-reversed_n13_p229-three-p256-nine-p318-five-p248-one-p245-eight-p284-two.wav,10,RX81,11,0.0,0.0,12.0,93.00003341222718,mgb_normalisation,93.00003341222715,90.34149293193902,5,3.0,False,1.312398910522461
,2024-06-26 12:10:41,sub_105,3,distance,cathedral,spatial_unmasking,7,211,0,0,_five_,talker-p245_sex-f_text-_five_.wav,p245,f,5,18,12.0,7.0,RX81,6,0.0,0.0,7.0,75.34149293193902,babble-reversed_n13_p229-five-p318-two-p307-eight-p268-three-p248-four-p245-one.wav,10,RX81,11,0.0,0.0,12.0,93.00003341222718,mgb_normalisation,93.00003341222715,90.34149293193902,5,1.0,False,1.5624418258666992
,2024-06-26 12:10:45,sub_105,3,distance,cathedral,spatial_unmasking,7,212,0,0,_five_,talker-p245_sex-f_text-_five_.wav,p245,f,5,19,12.0,7.0,RX81,6,0.0,0.0,7.0,76.34149293193902,babble-reversed_n13_p307-nine-p318-two-p256-one-p245-three-p268-four-p248-eight.wav,10,RX81,11,0.0,0.0,12.0,93.00003341222715,mgb_normalisation,93.00003341222715,90.34149293193902,5,5.0,True,1.8748564720153809
,2024-06-26 12:10:49,sub_105,3,distance,cathedral,spatial_unmasking,7,213,0,0,_five_,talker-p245_sex-f_text-_five_.wav,p245,f,5,20,12.0,7.0,RX81,6,0.0,0.0,7.0,75.34149293193902,babble-reversed_n13_p318-one-p307-two-p256-eight-p284-three-p248-five-p245-four.wav,10,RX81,11,0.0,0.0,12.0,93.00003341222718,mgb_normalisation,93.00003341222715,90.34149293193902,5,3.0,False,1.874856233596801
,2024-06-26 12:10:53,sub_105,3,distance,cathedral,spatial_unmasking,7,214,0,0,_one_,talker-p245_sex-f_text-_one_.wav,p245,f,5,21,12.0,7.0,RX81,6,0.0,0.0,7.0,76.34149293193902,babble-reversed_n13_p229-one-p318-nine-p256-four-p284-eight-p268-five-p245-two.wav,10,RX81,11,0.0,0.0,12.0,93.00003341222715,mgb_normalisation,93.00003341222715,90.34149293193902,1,1.0,True,1.3749167919158936
,2024-06-26 12:10:57,sub_105,3,distance,cathedral,spatial_unmasking,7,215,0,0,_three_,talker-p245_sex-f_text-_three_.wav,p245,f,5,22,12.0,7.0,RX81,6,0.0,0.0,7.0,75.34149293193903,babble-reversed_n13_p229-three-p256-nine-p318-five-p248-one-p245-eight-p284-two.wav,10,RX81,11,0.0,0.0,12.0,93.00003341222718,mgb_normalisation,93.00003341222715,90.34149293193902,3,3.0,True,1.124912977218628
,2024-06-26 12:11:00,sub_105,3,distance,cathedral,spatial_unmasking,7,216,0,0,_five_,talker-p245_sex-f_text-_five_.wav,p245,f,5,23,12.0,7.0,RX81,6,0.0,0.0,7.0,74.34149293193902,babble-reversed_n13_p229-five-p256-three-p318-nine-p248-two-p284-four-p268-one.wav,10,RX81,11,0.0,0.0,12.0,93.00003341222718,mgb_normalisation,93.00003341222715,90.34149293193902,5,5.0,True,1.437389612197876
,2024-06-26 12:11:05,sub_105,3,distance,cathedral,spatial_unmasking,7,217,0,0,_two_,talker-p245_sex-f_text-_two_.wav,p245,f,5,24,12.0,7.0,RX81,6,0.0,0.0,7.0,73.341492931939,babble-reversed_n13_p229-two-p256-three-p318-eight-p284-five-p268-four-p245-one.wav,10,RX81,11,0.0,0.0,12.0,93.00003341222718,mgb_normalisation,93.00003341222715,90.34149293193902,2,1.0,False,2.124851703643799
,2024-06-26 12:11:09,sub_105,3,distance,cathedral,spatial_unmasking,7,218,0,0,_two_,talker-p245_sex-f_text-_two_.wav,p245,f,5,25,12.0,7.0,RX81,6,0.0,0.0,7.0,74.341492931939,babble-reversed_n13_p256-eight-p318-two-p307-five-p245-four-p268-nine-p284-one.wav,10,RX81,11,0.0,0.0,12.0,93.00003341222718,mgb_normalisation,93.00003341222715,90.34149293193902,2,1.0,False,1.6873877048492432
,2024-06-26 12:11:14,sub_105,3,distance,cathedral,spatial_unmasking,7,219,0,0,_one_,talker-p245_sex-f_text-_one_.wav,p245,f,5,26,12.0,7.0,RX81,6,0.0,0.0,7.0,75.341492931939,babble-reversed_n13_p307-nine-p318-two-p256-one-p245-three-p268-four-p248-eight.wav,10,RX81,11,0.0,0.0,12.0,93.00003341222715,mgb_normalisation,93.00003341222715,90.34149293193902,1,3.0,False,2.812267303466797
,2024-06-26 12:11:18,sub_105,3,distance,cathedral,spatial_unmasking,7,220,0,0,_three_,talker-p245_sex-f_text-_three_.wav,p245,f,5,27,12.0,7.0,RX81,6,0.0,0.0,7.0,76.34149293193902,babble-reversed_n13_p229-five-p318-two-p307-eight-p268-three-p248-four-p245-one.wav,10,RX81,11,0.0,0.0,12.0,93.00003341222718,mgb_normalisation,93.00003341222715,90.34149293193902,3,2.0,False,1.624875545501709
,2024-06-26 12:11:22,sub_105,3,distance,cathedral,spatial_unmasking,7,221,0,0,_five_,talker-p245_sex-f_text-_five_.wav,p245,f,5,28,12.0,7.0,RX81,6,0.0,0.0,7.0,77.34149293193902,babble-reversed_n13_p318-nine-p256-five-p307-eight-p268-three-p248-one-p245-four.wav,10,RX81,11,0.0,0.0,12.0,93.00003341222718,mgb_normalisation,93.00003341222715,90.34149293193902,5,5.0,True,1.187408685684204
,2024-06-26 12:11:26,sub_105,3,distance,cathedral,spatial_unmasking,7,222,0,0,_four_,talker-p245_sex-f_text-_four_.wav,p245,f,5,29,12.0,7.0,RX81,6,0.0,0.0,7.0,76.34149293193903,babble-reversed_n13_p307-one-p318-five-p229-four-p268-eight-p284-two-p245-three.wav,10,RX81,11,0.0,0.0,12.0,93.00003341222715,mgb_normalisation,93.00003341222715,90.34149293193902,4,4.0,True,1.3123993873596191
,2024-06-26 12:11:30,sub_105,3,distance,cathedral,spatial_unmasking,7,223,0,0,_two_,talker-p245_sex-f_text-_two_.wav,p245,f,5,30,12.0,7.0,RX81,6,0.0,0.0,7.0,75.341492931939,babble-reversed_n13_p256-five-p307-nine-p318-three-p284-eight-p268-one-p248-two.wav,10,RX81,11,0.0,0.0,12.0,93.00003341222715,mgb_normalisation,93.00003341222715,90.34149293193902,2,1.0,False,1.62487530708313
,2024-06-26 12:11:33,sub_105,3,distance,cathedral,spatial_unmasking,7,224,0,0,_four_,talker-p245_sex-f_text-_four_.wav,p245,f,5,31,12.0,7.0,RX81,6,0.0,0.0,7.0,76.34149293193903,babble-reversed_n13_p318-nine-p307-eight-p229-two-p284-one-p248-three-p245-five.wav,10,RX81,11,0.0,0.0,12.0,93.00003341222718,mgb_normalisation,93.00003341222715,90.34149293193902,4,4.0,True,1.4373905658721924
,2024-06-26 12:11:39,sub_105,3,distance,cathedral,spatial_unmasking,7,225,0,0,_three_,talker-p245_sex-f_text-_three_.wav,p245,f,5,32,12.0,7.0,RX81,6,0.0,0.0,7.0,75.34149293193903,babble-reversed_n13_p229-two-p318-eight-p256-three-p268-one-p248-nine-p284-five.wav,10,RX81,11,0.0,0.0,12.0,93.00003341222715,mgb_normalisation,93.00003341222715,90.34149293193902,3,3.0,True,3.3122451305389404
,2024-06-26 12:11:45,sub_105,3,distance,cathedral,spatial_unmasking,7,226,0,0,_four_,talker-p245_sex-f_text-_four_.wav,p245,f,5,33,12.0,7.0,RX81,6,0.0,0.0,7.0,74.34149293193903,babble-reversed_n13_p256-five-p307-nine-p318-three-p284-eight-p268-one-p248-two.wav,10,RX81,11,0.0,0.0,12.0,93.00003341222715,mgb_normalisation,93.00003341222715,90.34149293193902,4,3.0,False,3.8122072219848633
,2024-06-26 12:11:50,sub_105,3,distance,cathedral,spatial_unmasking,7,227,0,0,_four_,talker-p245_sex-f_text-_four_.wav,p245,f,5,34,12.0,7.0,RX81,6,0.0,0.0,7.0,75.34149293193903,babble-reversed_n13_p256-nine-p307-four-p229-one-p284-three-p248-two-p245-five.wav,10,RX81,11,0.0,0.0,12.0,93.00003341222718,mgb_normalisation,93.00003341222715,90.34149293193902,4,2.0,False,2.749788522720337
,2024-06-26 12:11:54,sub_105,3,distance,cathedral,spatial_unmasking,7,228,0,0,_five_,talker-p245_sex-f_text-_five_.wav,p245,f,5,35,12.0,7.0,RX81,6,0.0,0.0,7.0,76.34149293193902,babble-reversed_n13_p229-five-p318-two-p307-eight-p268-three-p248-four-p245-one.wav,10,RX81,11,0.0,0.0,12.0,93.00003341222718,mgb_normalisation,93.00003341222715,90.34149293193902,5,4.0,False,1.2499041557312012
,2024-06-26 12:11:58,sub_105,3,distance,cathedral,spatial_unmasking,7,229,0,0,_two_,talker-p245_sex-f_text-_two_.wav,p245,f,5,36,12.0,7.0,RX81,6,0.0,0.0,7.0,77.341492931939,babble-reversed_n13_p229-one-p318-eight-p256-three-p268-nine-p248-five-p284-four.wav,10,RX81,11,0.0,0.0,12.0,93.00003341222717,mgb_normalisation,93.00003341222717,90.34149293193902,2,2.0,True,1.1874089241027832
