,event_id,timestamp,subject_id,session_index,plane,setup,task,block,trial_index,stim_type,headpose_offset_azi,headpose_offset_ele,stim_filename,stim_level,mgb_level,fluctuation,speaker_id,speaker_proc,speaker_chan,stim_azi,stim_ele,stim_dist,resp_azi,resp_ele,resp_dist,reaction_time
0,,2024-07-01 13:17:32,sub_109,3,distance,cathedral,localisation_accuracy,1,0,pinknoise,,,pinknoise_0.wav,84.67520560416503,30,0.41072769602022674,0,RX81,1,0.0,0.0,2.0,0,0,9.114369501466276,7.342140436172485
0,,2024-07-01 13:17:38,sub_109,3,distance,cathedral,localisation_accuracy,1,1,pinknoise,,,pinknoise_4.wav,91.41653193890461,30,-0.2447185032655278,6,RX81,7,0.0,0.0,8.0,0,0,9.583577712609971,4.8440821170806885
0,,2024-07-01 13:17:43,sub_109,3,distance,cathedral,localisation_accuracy,1,2,pinknoise,,,pinknoise_7.wav,89.16167972386947,30,-0.20228319193322097,4,RX81,5,0.0,0.0,6.0,0,0,8.703812316715544,3.9970812797546387
0,,2024-07-01 13:17:50,sub_109,3,distance,cathedral,localisation_accuracy,1,3,pinknoise,,,pinknoise_3.wav,91.83478162051264,30,-0.23989068062555707,9,RX81,10,0.0,0.0,11.0,0,0,10.653958944281525,5.443264484405518
0,,2024-07-01 13:17:54,sub_109,3,distance,cathedral,localisation_accuracy,1,4,pinknoise,,,pinknoise_8.wav,89.2657000141011,30,0.1665211642301394,3,RX81,4,0.0,0.0,5.0,0,0,7.325513196480939,3.4212124347686768
0,,2024-07-01 13:18:00,sub_109,3,distance,cathedral,localisation_accuracy,1,5,pinknoise,,,pinknoise_0.wav,91.90551678750792,30,-0.15464994456044934,8,RX81,9,0.0,0.0,10.0,0,0,10.096774193548388,4.24173641204834
0,,2024-07-01 13:18:06,sub_109,3,distance,cathedral,localisation_accuracy,1,6,pinknoise,,,pinknoise_5.wav,87.84800811580355,30,0.4045063346400182,2,RX81,3,0.0,0.0,4.0,0,0,4.524926686217009,4.623184680938721
0,,2024-07-01 13:18:11,sub_109,3,distance,cathedral,localisation_accuracy,1,7,pinknoise,,,pinknoise_7.wav,91.38135950392788,30,-0.4889454847498935,7,RX81,8,0.0,0.0,9.0,0,0,7.970674486803519,3.8444664478302
0,,2024-07-01 13:18:15,sub_109,3,distance,cathedral,localisation_accuracy,1,8,pinknoise,,,pinknoise_0.wav,85.870198479544,30,-0.48425433811109586,1,RX81,2,0.0,0.0,3.0,0,0,5.47800586510264,3.421597957611084
0,,2024-07-01 13:18:20,sub_109,3,distance,cathedral,localisation_accuracy,1,9,pinknoise,,,pinknoise_9.wav,92.77076082385328,30,-0.3205973857793001,10,RX81,11,0.0,0.0,12.0,0,0,10.668621700879767,3.8445982933044434
0,,2024-07-01 13:18:26,sub_109,3,distance,cathedral,localisation_accuracy,1,10,pinknoise,,,pinknoise_5.wav,90.58876119984257,30,0.35561521382030215,5,RX81,6,0.0,0.0,7.0,0,0,5.859237536656892,4.4684224128723145
0,,2024-07-01 13:18:29,sub_109,3,distance,cathedral,localisation_accuracy,1,11,pinknoise,,,pinknoise_9.wav,89.51479469951317,30,0.2697471011379835,4,RX81,5,0.0,0.0,6.0,0,0,6.5043988269794735,2.228393316268921
0,,2024-07-01 13:18:34,sub_109,3,distance,cathedral,localisation_accuracy,1,12,pinknoise,,,pinknoise_2.wav,90.39412408793342,30,0.0753421874214576,5,RX81,6,0.0,0.0,7.0,0,0,7.120234604105573,3.015347480773926
0,,2024-07-01 13:18:39,sub_109,3,distance,cathedral,localisation_accuracy,1,13,pinknoise,,,pinknoise_5.wav,92.11802880996034,30,0.14548302895217247,8,RX81,9,0.0,0.0,10.0,0,0,10.111436950146627,4.107859134674072
0,,2024-07-01 13:18:44,sub_109,3,distance,cathedral,localisation_accuracy,1,14,pinknoise,,,pinknoise_8.wav,91.3953152667483,30,-0.27469794336989106,6,RX81,7,0.0,0.0,8.0,0,0,5.2140762463343115,4.272124290466309
0,,2024-07-01 13:18:47,sub_109,3,distance,cathedral,localisation_accuracy,1,15,pinknoise,,,pinknoise_6.wav,87.25790767639937,30,-0.4491845359303194,2,RX81,3,0.0,0.0,4.0,0,0,3.909090909090909,1.7654826641082764
0,,2024-07-01 13:18:52,sub_109,3,distance,cathedral,localisation_accuracy,1,16,pinknoise,,,pinknoise_4.wav,91.81388086279463,30,-0.2690243068658944,9,RX81,10,0.0,0.0,11.0,0,0,9.2316715542522,3.2174062728881836
0,,2024-07-01 13:18:56,sub_109,3,distance,cathedral,localisation_accuracy,1,17,pinknoise,,,pinknoise_1.wav,89.15622134054802,30,0.010123499965793314,3,RX81,4,0.0,0.0,5.0,0,0,3.8944281524926687,3.3756484985351562
0,,2024-07-01 13:19:01,sub_109,3,distance,cathedral,localisation_accuracy,1,18,pinknoise,,,pinknoise_9.wav,91.52386244303662,30,-0.29465001754707953,7,RX81,8,0.0,0.0,9.0,0,0,7.853372434017595,3.29628324508667
0,,2024-07-01 13:19:06,sub_109,3,distance,cathedral,localisation_accuracy,1,19,pinknoise,,,pinknoise_1.wav,92.90609792631541,30,-0.13176891335475827,10,RX81,11,0.0,0.0,12.0,0,0,10.228739002932553,4.625798463821411
0,,2024-07-01 13:19:13,sub_109,3,distance,cathedral,localisation_accuracy,1,20,pinknoise,,,pinknoise_8.wav,86.12405899794948,30,-0.11653331470788142,1,RX81,2,0.0,0.0,3.0,0,0,3.4105571847507337,5.530745267868042
0,,2024-07-01 13:19:16,sub_109,3,distance,cathedral,localisation_accuracy,1,21,pinknoise,,,pinknoise_7.wav,84.1189448115073,30,-0.4160466409105007,0,RX81,1,0.0,0.0,2.0,0,0,2.5307917888563054,2.0004851818084717
0,,2024-07-01 13:19:22,sub_109,3,distance,cathedral,localisation_accuracy,1,22,pinknoise,,,pinknoise_5.wav,91.51516612613733,30,-0.30654356585888687,7,RX81,8,0.0,0.0,9.0,0,0,9.217008797653959,4.406147480010986
0,,2024-07-01 13:19:26,sub_109,3,distance,cathedral,localisation_accuracy,1,23,pinknoise,,,pinknoise_2.wav,89.5935657938106,30,0.37606113590037515,4,RX81,5,0.0,0.0,6.0,0,0,6.357771260997067,3.5004336833953857
0,,2024-07-01 13:19:31,sub_109,3,distance,cathedral,localisation_accuracy,1,24,pinknoise,,,pinknoise_2.wav,91.8156615533124,30,-0.266543309050675,9,RX81,10,0.0,0.0,11.0,0,0,10.639296187683286,3.249610185623169
0,,2024-07-01 13:19:36,sub_109,3,distance,cathedral,localisation_accuracy,1,25,pinknoise,,,pinknoise_9.wav,91.93244440629789,30,0.49365263981238405,6,RX81,7,0.0,0.0,8.0,0,0,8.557184750733139,3.9695754051208496
0,,2024-07-01 13:19:41,sub_109,3,distance,cathedral,localisation_accuracy,1,26,pinknoise,,,pinknoise_7.wav,85.98474710528393,30,-0.3188924073126427,1,RX81,2,0.0,0.0,3.0,0,0,3.3372434017595314,3.608933925628662
0,,2024-07-01 13:19:44,sub_109,3,distance,cathedral,localisation_accuracy,1,27,pinknoise,,,pinknoise_6.wav,89.43473314473708,30,0.40959863018265796,3,RX81,4,0.0,0.0,5.0,0,0,3.997067448680352,2.375782012939453
0,,2024-07-01 13:19:49,sub_109,3,distance,cathedral,localisation_accuracy,1,28,pinknoise,,,pinknoise_3.wav,93.32820661637518,30,0.46492794523177383,10,RX81,11,0.0,0.0,12.0,0,0,9.480938416422289,3.1559858322143555
0,,2024-07-01 13:19:55,sub_109,3,distance,cathedral,localisation_accuracy,1,29,pinknoise,,,pinknoise_7.wav,84.30129398141759,30,-0.14752653375814384,0,RX81,1,0.0,0.0,2.0,0,0,2.3401759530791795,5.150119304656982
0,,2024-07-01 13:20:01,sub_109,3,distance,cathedral,localisation_accuracy,1,30,pinknoise,,,pinknoise_4.wav,92.36136091820663,30,0.4928518802926115,8,RX81,9,0.0,0.0,10.0,0,0,9.744868035190617,4.374283790588379
0,,2024-07-01 13:20:05,sub_109,3,distance,cathedral,localisation_accuracy,1,31,pinknoise,,,pinknoise_4.wav,90.18838556949981,30,-0.21810374618957373,5,RX81,6,0.0,0.0,7.0,0,0,5.228739002932552,3.18090558052063
0,,2024-07-01 13:20:08,sub_109,3,distance,cathedral,localisation_accuracy,1,32,pinknoise,,,pinknoise_4.wav,87.22963101027179,30,-0.48948478011427554,2,RX81,3,0.0,0.0,4.0,0,0,3.3665689149560123,2.1091842651367188
0,,2024-07-01 13:20:11,sub_109,3,distance,cathedral,localisation_accuracy,1,33,pinknoise,,,pinknoise_6.wav,89.24861534633719,30,0.14206099950146134,3,RX81,4,0.0,0.0,5.0,0,0,4.290322580645162,1.780334711074829
0,,2024-07-01 13:20:16,sub_109,3,distance,cathedral,localisation_accuracy,1,34,pinknoise,,,pinknoise_6.wav,84.71681545649042,30,0.4734936392670589,0,RX81,1,0.0,0.0,2.0,0,0,2.296187683284458,3.5008294582366943
0,,2024-07-01 13:20:19,sub_109,3,distance,cathedral,localisation_accuracy,1,35,pinknoise,,,pinknoise_0.wav,90.21428024769267,30,-0.18132811349120947,5,RX81,6,0.0,0.0,7.0,0,0,4.495601173020528,2.218550443649292
0,,2024-07-01 13:20:24,sub_109,3,distance,cathedral,localisation_accuracy,1,36,pinknoise,,,pinknoise_3.wav,91.92583311355045,30,-0.11264029961678756,9,RX81,10,0.0,0.0,11.0,0,0,9.451612903225808,3.3591554164886475
0,,2024-07-01 13:20:28,sub_109,3,distance,cathedral,localisation_accuracy,1,37,pinknoise,,,pinknoise_8.wav,87.80994915879648,30,0.34871042637422245,2,RX81,3,0.0,0.0,4.0,0,0,3.703812316715543,3.091306686401367
0,,2024-07-01 13:20:34,sub_109,3,distance,cathedral,localisation_accuracy,1,38,pinknoise,,,pinknoise_0.wav,93.06629517083577,30,0.09329883215748569,10,RX81,11,0.0,0.0,12.0,0,0,11.093841642228739,4.375693321228027
0,,2024-07-01 13:20:38,sub_109,3,distance,cathedral,localisation_accuracy,1,39,pinknoise,,,pinknoise_0.wav,92.25011336514966,30,0.3335464745303026,8,RX81,9,0.0,0.0,10.0,0,0,11.75366568914956,2.9954299926757812
0,,2024-07-01 13:20:43,sub_109,3,distance,cathedral,localisation_accuracy,1,40,pinknoise,,,pinknoise_0.wav,86.07966378845643,30,-0.1811694143987792,1,RX81,2,0.0,0.0,3.0,0,0,3.2785923753665696,3.9069173336029053
0,,2024-07-01 13:20:46,sub_109,3,distance,cathedral,localisation_accuracy,1,41,pinknoise,,,pinknoise_1.wav,91.50812328337373,30,-0.3161722444478866,7,RX81,8,0.0,0.0,9.0,0,0,7.384164222873901,2.4530575275421143
0,,2024-07-01 13:20:49,sub_109,3,distance,cathedral,localisation_accuracy,1,42,pinknoise,,,pinknoise_3.wav,91.44936943788161,30,-0.1982590569899092,6,RX81,7,0.0,0.0,8.0,0,0,8.337243401759531,1.5623340606689453
0,,2024-07-01 13:20:52,sub_109,3,distance,cathedral,localisation_accuracy,1,43,pinknoise,,,pinknoise_6.wav,89.44958464469363,30,0.1820174059230406,4,RX81,5,0.0,0.0,6.0,0,0,6.064516129032258,2.031433582305908
0,,2024-07-01 13:20:55,sub_109,3,distance,cathedral,localisation_accuracy,1,44,pinknoise,,,pinknoise_3.wav,91.25422968895171,30,-0.47328694297365603,6,RX81,7,0.0,0.0,8.0,0,0,7.0175953079178885,1.7921333312988281
0,,2024-07-01 13:20:58,sub_109,3,distance,cathedral,localisation_accuracy,1,45,pinknoise,,,pinknoise_5.wav,86.18961100795575,30,-0.020838240313826528,1,RX81,2,0.0,0.0,3.0,0,0,3.513196480938417,1.8748037815093994
0,,2024-07-01 13:21:02,sub_109,3,distance,cathedral,localisation_accuracy,1,46,pinknoise,,,pinknoise_3.wav,90.43159485052371,30,0.129097355563642,5,RX81,6,0.0,0.0,7.0,0,0,5.47800586510264,2.1553354263305664
0,,2024-07-01 13:21:05,sub_109,3,distance,cathedral,localisation_accuracy,1,47,pinknoise,,,pinknoise_8.wav,88.88707905357721,30,-0.3709261470633599,3,RX81,4,0.0,0.0,5.0,0,0,4.4369501466275665,2.031632661819458
0,,2024-07-01 13:21:08,sub_109,3,distance,cathedral,localisation_accuracy,1,48,pinknoise,,,pinknoise_3.wav,92.04518634756695,30,0.04226840171917989,8,RX81,9,0.0,0.0,10.0,0,0,8.997067448680353,2.4841573238372803
0,,2024-07-01 13:21:12,sub_109,3,distance,cathedral,localisation_accuracy,1,49,pinknoise,,,pinknoise_1.wav,87.73792896015719,30,0.2434060758804889,2,RX81,3,0.0,0.0,4.0,0,0,4.143695014662757,2.842033624649048
0,,2024-07-01 13:21:17,sub_109,3,distance,cathedral,localisation_accuracy,1,50,pinknoise,,,pinknoise_2.wav,91.87238250798336,30,0.18594642251944826,7,RX81,8,0.0,0.0,9.0,0,0,10.111436950146627,3.1104094982147217
0,,2024-07-01 13:21:19,sub_109,3,distance,cathedral,localisation_accuracy,1,51,pinknoise,,,pinknoise_3.wav,92.12226961129713,30,0.163748730727031,9,RX81,10,0.0,0.0,11.0,0,0,11.211143695014664,1.537883996963501
0,,2024-07-01 13:21:22,sub_109,3,distance,cathedral,localisation_accuracy,1,52,pinknoise,,,pinknoise_5.wav,93.17377318784105,30,0.2452489823946683,10,RX81,11,0.0,0.0,12.0,0,0,11.519061583577713,1.7654354572296143
0,,2024-07-01 13:21:27,sub_109,3,distance,cathedral,localisation_accuracy,1,53,pinknoise,,,pinknoise_2.wav,84.53894544931828,30,0.20609093613359775,0,RX81,1,0.0,0.0,2.0,0,0,2.545454545454546,3.6692376136779785
0,,2024-07-01 13:21:31,sub_109,3,distance,cathedral,localisation_accuracy,1,54,pinknoise,,,pinknoise_1.wav,89.57809237500256,30,0.35514788399975084,4,RX81,5,0.0,0.0,6.0,0,0,4.085043988269795,2.0791962146759033
0,,2024-07-01 13:22:37,sub_109,3,distance,cathedral,localisation_accuracy,2,0,pinknoise,,,pinknoise_5.wav,86.07645967579714,30,-0.18582894970333008,1,RX81,2,0.0,0.0,3.0,0,0,3.9237536656891496,2.7494373321533203
0,,2024-07-01 13:22:40,sub_109,3,distance,cathedral,localisation_accuracy,2,1,pinknoise,,,pinknoise_4.wav,84.60445860047435,30,0.3043067451145477,0,RX81,1,0.0,0.0,2.0,0,0,2.5747800586510268,2.0249154567718506
0,,2024-07-01 13:22:44,sub_109,3,distance,cathedral,localisation_accuracy,2,2,pinknoise,,,pinknoise_0.wav,91.36336474859702,30,-0.3197874675851917,6,RX81,7,0.0,0.0,8.0,0,0,7.765395894428153,2.3748350143432617
0,,2024-07-01 13:22:48,sub_109,3,distance,cathedral,localisation_accuracy,2,3,pinknoise,,,pinknoise_4.wav,91.9415241828971,30,-0.09065611189415879,9,RX81,10,0.0,0.0,11.0,0,0,10.595307917888563,2.470916986465454
0,,2024-07-01 13:22:51,sub_109,3,distance,cathedral,localisation_accuracy,2,4,pinknoise,,,pinknoise_2.wav,90.60183972828412,30,0.37454137605412985,5,RX81,6,0.0,0.0,7.0,0,0,10.947214076246334,2.3443872928619385
0,,2024-07-01 13:22:54,sub_109,3,distance,cathedral,localisation_accuracy,2,5,pinknoise,,,pinknoise_7.wav,89.60188904047982,30,0.38731646104770623,4,RX81,5,0.0,0.0,6.0,0,0,9.950146627565983,1.7967047691345215
0,,2024-07-01 13:22:58,sub_109,3,distance,cathedral,localisation_accuracy,2,6,pinknoise,,,pinknoise_4.wav,91.5760021434183,30,-0.22324100095965005,7,RX81,8,0.0,0.0,9.0,0,0,11.299120234604107,2.3136086463928223
0,,2024-07-01 13:23:00,sub_109,3,distance,cathedral,localisation_accuracy,2,7,pinknoise,,,pinknoise_7.wav,92.1225160216691,30,0.15185279702000942,8,RX81,9,0.0,0.0,10.0,0,0,11.812316715542522,1.4463231563568115
0,,2024-07-01 13:23:05,sub_109,3,distance,cathedral,localisation_accuracy,2,8,pinknoise,,,pinknoise_0.wav,87.29205289932017,30,-0.4004469939994624,2,RX81,3,0.0,0.0,4.0,0,0,3.5278592375366573,3.449988603591919
0,,2024-07-01 13:23:08,sub_109,3,distance,cathedral,localisation_accuracy,2,9,pinknoise,,,pinknoise_4.wav,89.3723042542379,30,0.31959571768672457,3,RX81,4,0.0,0.0,5.0,0,0,5.434017595307918,1.8123281002044678
0,,2024-07-01 13:23:12,sub_109,3,distance,cathedral,localisation_accuracy,2,10,pinknoise,,,pinknoise_0.wav,93.02765702328414,30,0.038859783696578165,10,RX81,11,0.0,0.0,12.0,0,0,11.357771260997069,3.0307531356811523
0,,2024-07-01 13:23:16,sub_109,3,distance,cathedral,localisation_accuracy,2,11,pinknoise,,,pinknoise_4.wav,84.53019091337936,30,0.1929904702709091,0,RX81,1,0.0,0.0,2.0,0,0,1.9149560117302054,2.9536473751068115
0,,2024-07-01 13:23:19,sub_109,3,distance,cathedral,localisation_accuracy,2,12,pinknoise,,,pinknoise_0.wav,86.45718033543449,30,0.37295734844285544,1,RX81,2,0.0,0.0,3.0,0,0,2.9120234604105573,1.7029597759246826
0,,2024-07-01 13:23:23,sub_109,3,distance,cathedral,localisation_accuracy,2,13,pinknoise,,,pinknoise_4.wav,91.7823705302583,30,-0.31289274794937705,9,RX81,10,0.0,0.0,11.0,0,0,10.551319648093843,2.782266855239868
0,,2024-07-01 13:23:26,sub_109,3,distance,cathedral,localisation_accuracy,2,14,pinknoise,,,pinknoise_8.wav,93.0069667652476,30,0.009748833920192435,10,RX81,11,0.0,0.0,12.0,0,0,11.592375366568916,1.5146105289459229
0,,2024-07-01 13:23:31,sub_109,3,distance,cathedral,localisation_accuracy,2,15,pinknoise,,,pinknoise_4.wav,87.40590489190211,30,-0.2373575654748611,2,RX81,3,0.0,0.0,4.0,0,0,4.070381231671554,3.8926148414611816
0,,2024-07-01 13:23:35,sub_109,3,distance,cathedral,localisation_accuracy,2,16,pinknoise,,,pinknoise_4.wav,89.31451178187024,30,0.2365145259369994,3,RX81,4,0.0,0.0,5.0,0,0,6.870967741935484,2.953901529312134
0,,2024-07-01 13:23:38,sub_109,3,distance,cathedral,localisation_accuracy,2,17,pinknoise,,,pinknoise_0.wav,91.39835397631806,30,-0.2704060602661851,6,RX81,7,0.0,0.0,8.0,0,0,9.656891495601174,1.9998798370361328
0,,2024-07-01 13:23:41,sub_109,3,distance,cathedral,localisation_accuracy,2,18,pinknoise,,,pinknoise_5.wav,91.90748498869942,30,-0.15188398883708354,8,RX81,9,0.0,0.0,10.0,0,0,11.489736070381232,2.2647438049316406
0,,2024-07-01 13:23:46,sub_109,3,distance,cathedral,localisation_accuracy,2,19,pinknoise,,,pinknoise_0.wav,89.40348186308078,30,0.12014695868872516,4,RX81,5,0.0,0.0,6.0,0,0,10.961876832844576,3.009361505508423
0,,2024-07-01 13:23:48,sub_109,3,distance,cathedral,localisation_accuracy,2,20,pinknoise,,,pinknoise_3.wav,90.19239043967212,30,-0.21241899422888189,5,RX81,6,0.0,0.0,7.0,0,0,11.299120234604107,1.2967393398284912
0,,2024-07-01 13:23:53,sub_109,3,distance,cathedral,localisation_accuracy,2,21,pinknoise,,,pinknoise_5.wav,91.87552845830336,30,0.1903197951484008,7,RX81,8,0.0,0.0,9.0,0,0,11.768328445747802,3.701347827911377
0,,2024-07-01 13:23:57,sub_109,3,distance,cathedral,localisation_accuracy,2,22,pinknoise,,,pinknoise_4.wav,90.02629410645957,30,-0.4472777895515413,5,RX81,6,0.0,0.0,7.0,0,0,9.52492668621701,2.7040352821350098
0,,2024-07-01 13:24:00,sub_109,3,distance,cathedral,localisation_accuracy,2,23,pinknoise,,,pinknoise_2.wav,92.31503997821157,30,0.4374641702690012,9,RX81,10,0.0,0.0,11.0,0,0,11.577712609970675,1.8338332176208496
0,,2024-07-01 13:24:04,sub_109,3,distance,cathedral,localisation_accuracy,2,24,pinknoise,,,pinknoise_1.wav,87.78029819536924,30,0.30531193273557755,2,RX81,3,0.0,0.0,4.0,0,0,3.6891495601173023,2.796614170074463
0,,2024-07-01 13:24:07,sub_109,3,distance,cathedral,localisation_accuracy,2,25,pinknoise,,,pinknoise_6.wav,89.0772273484234,30,-0.10222089597104389,3,RX81,4,0.0,0.0,5.0,0,0,7.1788856304985345,1.7483210563659668
0,,2024-07-01 13:24:10,sub_109,3,distance,cathedral,localisation_accuracy,2,26,pinknoise,,,pinknoise_3.wav,91.77586616378987,30,0.2676427189298727,6,RX81,7,0.0,0.0,8.0,0,0,10.008797653958945,1.7341868877410889
0,,2024-07-01 13:24:12,sub_109,3,distance,cathedral,localisation_accuracy,2,27,pinknoise,,,pinknoise_9.wav,93.19253097574781,30,0.27184687479845393,10,RX81,11,0.0,0.0,12.0,0,0,11.944281524926687,1.6560676097869873
0,,2024-07-01 13:24:16,sub_109,3,distance,cathedral,localisation_accuracy,2,28,pinknoise,,,pinknoise_9.wav,86.22708599749315,30,0.034006642756223227,1,RX81,2,0.0,0.0,3.0,0,0,3.6304985337243405,2.591064453125
0,,2024-07-01 13:24:20,sub_109,3,distance,cathedral,localisation_accuracy,2,29,pinknoise,,,pinknoise_9.wav,91.6430494534485,30,-0.1311625996769833,7,RX81,8,0.0,0.0,9.0,0,0,10.360703812316716,2.6025917530059814
0,,2024-07-01 13:24:24,sub_109,3,distance,cathedral,localisation_accuracy,2,30,pinknoise,,,pinknoise_8.wav,84.06695962978368,30,-0.4921545551027481,0,RX81,1,0.0,0.0,2.0,0,0,2.1055718475073313,3.2653536796569824
0,,2024-07-01 13:24:30,sub_109,3,distance,cathedral,localisation_accuracy,2,31,pinknoise,,,pinknoise_8.wav,92.17344672128914,30,0.224245270096309,8,RX81,9,0.0,0.0,10.0,0,0,11.841642228739003,4.058900356292725
0,,2024-07-01 13:24:33,sub_109,3,distance,cathedral,localisation_accuracy,2,32,pinknoise,,,pinknoise_2.wav,89.14513646946943,30,-0.22421616108314657,4,RX81,5,0.0,0.0,6.0,0,0,10.683284457478006,2.1248056888580322
0,,2024-07-01 13:24:35,sub_109,3,distance,cathedral,localisation_accuracy,2,33,pinknoise,,,pinknoise_2.wav,92.14277352802435,30,0.19274495542108017,9,RX81,10,0.0,0.0,11.0,0,0,12.076246334310852,1.3125643730163574
0,,2024-07-01 13:24:39,sub_109,3,distance,cathedral,localisation_accuracy,2,34,pinknoise,,,pinknoise_5.wav,89.23839374220428,30,-0.10036475459263483,4,RX81,5,0.0,0.0,6.0,0,0,6.181818181818182,2.484156847000122
0,,2024-07-01 13:24:42,sub_109,3,distance,cathedral,localisation_accuracy,2,35,pinknoise,,,pinknoise_0.wav,90.40090066674597,30,0.0850566881985022,5,RX81,6,0.0,0.0,7.0,0,0,8.058651026392962,2.09198260307312
0,,2024-07-01 13:24:46,sub_109,3,distance,cathedral,localisation_accuracy,2,36,pinknoise,,,pinknoise_5.wav,92.04855403808304,30,0.04703247311260528,8,RX81,9,0.0,0.0,10.0,0,0,12.04692082111437,2.3133440017700195
0,,2024-07-01 13:24:50,sub_109,3,distance,cathedral,localisation_accuracy,2,37,pinknoise,,,pinknoise_6.wav,92.7907634752298,30,-0.29276414155895425,10,RX81,11,0.0,0.0,12.0,0,0,12.398826979472142,3.3255012035369873
0,,2024-07-01 13:24:54,sub_109,3,distance,cathedral,localisation_accuracy,2,38,pinknoise,,,pinknoise_0.wav,88.81054337016663,30,-0.47839854498111145,3,RX81,4,0.0,0.0,5.0,0,0,6.636363636363637,2.624772310256958
0,,2024-07-01 13:24:58,sub_109,3,distance,cathedral,localisation_accuracy,2,39,pinknoise,,,pinknoise_8.wav,91.45017126415154,30,-0.3952833537603174,7,RX81,8,0.0,0.0,9.0,0,0,11.093841642228739,2.483191728591919
0,,2024-07-01 13:25:04,sub_109,3,distance,cathedral,localisation_accuracy,2,40,pinknoise,,,pinknoise_0.wav,84.4877225313512,30,0.12952050665366766,0,RX81,1,0.0,0.0,2.0,0,0,2.0175953079178885,5.3599677085876465
0,,2024-07-01 13:25:09,sub_109,3,distance,cathedral,localisation_accuracy,2,41,pinknoise,,,pinknoise_2.wav,91.53674904492397,30,-0.07427821035956572,6,RX81,7,0.0,0.0,8.0,0,0,11.137829912023461,3.140037775039673
0,,2024-07-01 13:25:12,sub_109,3,distance,cathedral,localisation_accuracy,2,42,pinknoise,,,pinknoise_2.wav,86.52094811753338,30,0.46756844590305546,1,RX81,2,0.0,0.0,3.0,0,0,5.067448680351907,2.2662100791931152
0,,2024-07-01 13:25:14,sub_109,3,distance,cathedral,localisation_accuracy,2,43,pinknoise,,,pinknoise_4.wav,87.54358609267662,30,-0.03893268077914935,2,RX81,3,0.0,0.0,4.0,0,0,6.401759530791789,1.2186172008514404
0,,2024-07-01 13:25:17,sub_109,3,distance,cathedral,localisation_accuracy,2,44,pinknoise,,,pinknoise_9.wav,90.48568996668695,30,0.20687116939367367,5,RX81,6,0.0,0.0,7.0,0,0,7.941348973607038,1.437903881072998
0,,2024-07-01 13:25:20,sub_109,3,distance,cathedral,localisation_accuracy,2,45,pinknoise,,,pinknoise_8.wav,86.03790886794144,30,-0.24183386618979663,1,RX81,2,0.0,0.0,3.0,0,0,4.085043988269795,1.8150620460510254
0,,2024-07-01 13:25:23,sub_109,3,distance,cathedral,localisation_accuracy,2,46,pinknoise,,,pinknoise_4.wav,89.2516299059007,30,-0.08274461562407254,4,RX81,5,0.0,0.0,6.0,0,0,6.387096774193548,1.5467214584350586
0,,2024-07-01 13:25:26,sub_109,3,distance,cathedral,localisation_accuracy,2,47,pinknoise,,,pinknoise_7.wav,92.81073621653715,30,-0.26494647313961783,10,RX81,11,0.0,0.0,12.0,0,0,11.944281524926687,2.342066764831543
0,,2024-07-01 13:25:29,sub_109,3,distance,cathedral,localisation_accuracy,2,48,pinknoise,,,pinknoise_4.wav,91.95726491684763,30,0.30416886466464443,7,RX81,8,0.0,0.0,9.0,0,0,10.038123167155426,1.9373738765716553
0,,2024-07-01 13:25:32,sub_109,3,distance,cathedral,localisation_accuracy,2,49,pinknoise,,,pinknoise_4.wav,91.55902766842253,30,-0.042585168667270135,6,RX81,7,0.0,0.0,8.0,0,0,9.935483870967742,1.173262119293213
0,,2024-07-01 13:25:35,sub_109,3,distance,cathedral,localisation_accuracy,2,50,pinknoise,,,pinknoise_1.wav,92.23421006563561,30,0.3223923487476087,9,RX81,10,0.0,0.0,11.0,0,0,9.920821114369502,2.6526200771331787
0,,2024-07-01 13:25:38,sub_109,3,distance,cathedral,localisation_accuracy,2,51,pinknoise,,,pinknoise_1.wav,92.3012395329013,30,0.40665502888995664,8,RX81,9,0.0,0.0,10.0,0,0,11.460410557184751,1.4998278617858887
0,,2024-07-01 13:25:43,sub_109,3,distance,cathedral,localisation_accuracy,2,52,pinknoise,,,pinknoise_7.wav,84.41654953422388,30,0.02344987249824404,0,RX81,1,0.0,0.0,2.0,0,0,2.1495601173020527,3.592008113861084
0,,2024-07-01 13:25:46,sub_109,3,distance,cathedral,localisation_accuracy,2,53,pinknoise,,,pinknoise_9.wav,87.29604293234381,30,-0.39474653576603536,2,RX81,3,0.0,0.0,4.0,0,0,2.7214076246334313,1.610464334487915
0,,2024-07-01 13:25:48,sub_109,3,distance,cathedral,localisation_accuracy,2,54,pinknoise,,,pinknoise_4.wav,88.91474354095351,30,-0.3319831209284938,3,RX81,4,0.0,0.0,5.0,0,0,3.9530791788856305,1.2498667240142822
0,,2024-07-01 13:28:36,sub_109,3,distance,cathedral,localisation_accuracy,3,0,babble,,,babble-reversed_n13_p318-one-p307-two-p256-eight-p284-three-p248-five-p245-four.wav,90.41079594313148,30,0.09924760507131025,5,RX81,6,0.0,0.0,7.0,0,0,9.275659824046922,3.25581955909729
0,,2024-07-01 13:28:39,sub_109,3,distance,cathedral,localisation_accuracy,3,1,babble,,,babble-reversed_n13_p256-nine-p307-four-p229-one-p284-three-p248-two-p245-five.wav,84.51730634417926,30,0.173720072382186,0,RX81,1,0.0,0.0,2.0,0,0,2.8533724340175954,2.593503952026367
0,,2024-07-01 13:28:42,sub_109,3,distance,cathedral,localisation_accuracy,3,2,babble,,,babble-reversed_n13_p307-nine-p229-one-p256-eight-p248-four-p284-two-p268-three.wav,88.88833476627188,30,-0.369159600665659,3,RX81,4,0.0,0.0,5.0,0,0,5.316715542521995,1.6237516403198242
0,,2024-07-01 13:28:45,sub_109,3,distance,cathedral,localisation_accuracy,3,3,babble,,,babble-reversed_n13_p256-nine-p307-four-p229-one-p284-three-p248-two-p245-five.wav,92.1077980233938,30,0.14330006833070774,9,RX81,10,0.0,0.0,11.0,0,0,9.378299120234605,1.9320180416107178
0,,2024-07-01 13:28:48,sub_109,3,distance,cathedral,localisation_accuracy,3,4,babble,,,babble-reversed_n13_p256-three-p318-two-p229-nine-p248-four-p284-one-p268-eight.wav,91.6849385658497,30,-0.46301484343754495,8,RX81,9,0.0,0.0,10.0,0,0,11.049853372434018,1.6092159748077393
0,,2024-07-01 13:28:51,sub_109,3,distance,cathedral,localisation_accuracy,3,5,babble,,,babble-reversed_n13_p318-three-p229-one-p256-eight-p245-five-p248-four-p284-nine.wav,89.40652446184836,30,0.12422624842706631,4,RX81,5,0.0,0.0,6.0,0,0,9.671554252199414,2.10664963722229
0,,2024-07-01 13:28:55,sub_109,3,distance,cathedral,localisation_accuracy,3,6,babble,,,babble-reversed_n13_p229-nine-p318-one-p307-two-p248-eight-p245-five-p284-four.wav,87.24202269552309,30,-0.4718307710259516,2,RX81,3,0.0,0.0,4.0,0,0,7.9560117302052795,2.57789945602417
0,,2024-07-01 13:28:58,sub_109,3,distance,cathedral,localisation_accuracy,3,7,babble,,,babble-reversed_n13_p318-five-p229-four-p256-eight-p284-one-p245-three-p248-two.wav,91.40198718824783,30,-0.46089955403803295,7,RX81,8,0.0,0.0,9.0,0,0,10.360703812316716,1.6222598552703857
0,,2024-07-01 13:29:02,sub_109,3,distance,cathedral,localisation_accuracy,3,8,babble,,,babble-reversed_n13_p256-two-p307-five-p318-nine-p248-eight-p245-four-p284-one.wav,86.47802066741963,30,0.4038454064924235,1,RX81,2,0.0,0.0,3.0,0,0,3.5718475073313787,3.0464067459106445
0,,2024-07-01 13:29:05,sub_109,3,distance,cathedral,localisation_accuracy,3,9,babble,,,babble-reversed_n13_p256-three-p318-two-p229-nine-p248-four-p284-one-p268-eight.wav,91.90630484114722,30,0.4558049639167202,6,RX81,7,0.0,0.0,8.0,0,0,6.914956011730206,1.906052589416504
0,,2024-07-01 13:29:08,sub_109,3,distance,cathedral,localisation_accuracy,3,10,babble,,,babble-reversed_n13_p229-one-p318-eight-p256-three-p268-two-p245-five-p248-nine.wav,92.69957533570071,30,-0.41943903841965124,10,RX81,11,0.0,0.0,12.0,0,0,10.082111436950147,1.7659838199615479
0,,2024-07-01 13:29:11,sub_109,3,distance,cathedral,localisation_accuracy,3,11,babble,,,babble-reversed_n13_p229-nine-p318-one-p307-two-p248-eight-p245-five-p284-four.wav,89.08630539947603,30,-0.3020834112798628,4,RX81,5,0.0,0.0,6.0,0,0,9.20234604105572,1.8450098037719727
0,,2024-07-01 13:29:13,sub_109,3,distance,cathedral,localisation_accuracy,3,12,babble,,,babble-reversed_n13_p229-one-p318-eight-p256-three-p268-nine-p248-five-p284-four.wav,90.3974467867559,30,0.08010501902697442,5,RX81,6,0.0,0.0,7.0,0,0,10.419354838709678,1.4373533725738525
0,,2024-07-01 13:29:17,sub_109,3,distance,cathedral,localisation_accuracy,3,13,babble,,,babble-reversed_n13_p307-five-p229-three-p318-nine-p245-four-p268-eight-p284-two.wav,88.90764781831703,30,-0.3419765776163084,3,RX81,4,0.0,0.0,5.0,0,0,6.255131964809385,2.2172112464904785
0,,2024-07-01 13:29:20,sub_109,3,distance,cathedral,localisation_accuracy,3,14,babble,,,babble-reversed_n13_p229-three-p307-one-p318-two-p245-eight-p268-five-p284-four.wav,87.6779423178805,30,0.15597555705413912,2,RX81,3,0.0,0.0,4.0,0,0,4.21700879765396,2.077977180480957
0,,2024-07-01 13:29:23,sub_109,3,distance,cathedral,localisation_accuracy,3,15,babble,,,babble-reversed_n13_p229-two-p318-eight-p256-three-p268-one-p248-nine-p284-five.wav,92.66658949401534,30,-0.4651284861045757,10,RX81,11,0.0,0.0,12.0,0,0,8.63049853372434,2.4036407470703125
0,,2024-07-01 13:29:29,sub_109,3,distance,cathedral,localisation_accuracy,3,16,babble,,,babble-reversed_n13_p229-eight-p256-nine-p318-four-p245-three-p268-five-p284-two.wav,91.62327810608366,30,0.04900408726831196,6,RX81,7,0.0,0.0,8.0,0,0,9.612903225806452,4.389991760253906
0,,2024-07-01 13:29:33,sub_109,3,distance,cathedral,localisation_accuracy,3,17,babble,,,babble-reversed_n13_p229-one-p318-nine-p256-four-p284-eight-p268-five-p245-two.wav,86.43900849474014,30,0.3460499497025974,1,RX81,2,0.0,0.0,3.0,0,0,4.7595307917888565,3.360152244567871
0,,2024-07-01 13:29:37,sub_109,3,distance,cathedral,localisation_accuracy,3,18,babble,,,babble-reversed_n13_p256-three-p318-one-p307-two-p284-nine-p268-four-p245-eight.wav,84.5630618487091,30,0.24220861126658877,0,RX81,1,0.0,0.0,2.0,0,0,2.2375366568914963,2.344801187515259
0,,2024-07-01 13:29:40,sub_109,3,distance,cathedral,localisation_accuracy,3,19,babble,,,babble-reversed_n13_p256-nine-p307-four-p229-one-p284-three-p248-two-p245-five.wav,92.09924274928797,30,0.13121780418009388,9,RX81,10,0.0,0.0,11.0,0,0,5.0527859237536665,1.9529213905334473
0,,2024-07-01 13:29:43,sub_109,3,distance,cathedral,localisation_accuracy,3,20,babble,,,babble-reversed_n13_p229-three-p256-nine-p318-five-p248-one-p245-eight-p284-two.wav,91.9710008298641,30,0.32334343483022376,7,RX81,8,0.0,0.0,9.0,0,0,7.193548387096774,1.7032926082611084
0,,2024-07-01 13:29:46,sub_109,3,distance,cathedral,localisation_accuracy,3,21,babble,,,babble-reversed_n13_p318-five-p229-three-p256-four-p268-eight-p248-one-p245-nine.wav,91.76981602274613,30,-0.3447364118276034,8,RX81,9,0.0,0.0,10.0,0,0,9.891495601173022,1.8720922470092773
0,,2024-07-01 13:29:49,sub_109,3,distance,cathedral,localisation_accuracy,3,22,babble,,,babble-reversed_n13_p229-five-p256-three-p318-nine-p248-two-p284-four-p268-one.wav,93.3287980949379,30,0.4657723734386835,10,RX81,11,0.0,0.0,12.0,0,0,8.87976539589443,2.156054735183716
0,,2024-07-01 13:29:53,sub_109,3,distance,cathedral,localisation_accuracy,3,23,babble,,,babble-reversed_n13_p307-five-p229-two-p318-four-p248-three-p245-nine-p268-eight.wav,86.0294946623325,30,-0.25404365995971767,1,RX81,2,0.0,0.0,3.0,0,0,3.1759530791788864,2.857573986053467
0,,2024-07-01 13:29:57,sub_109,3,distance,cathedral,localisation_accuracy,3,24,babble,,,babble-reversed_n13_p229-two-p256-three-p318-eight-p284-five-p268-four-p245-one.wav,91.70969165611785,30,-0.4285697291208187,8,RX81,9,0.0,0.0,10.0,0,0,8.982404692082111,2.6414549350738525
0,,2024-07-01 13:30:00,sub_109,3,distance,cathedral,localisation_accuracy,3,25,babble,,,babble-reversed_n13_p256-eight-p229-three-p307-nine-p245-five-p248-four-p268-two.wav,91.43889297438773,30,-0.41065497767999526,7,RX81,8,0.0,0.0,9.0,0,0,6.519061583577713,2.6302292346954346
0,,2024-07-01 13:30:05,sub_109,3,distance,cathedral,localisation_accuracy,3,26,babble,,,babble-reversed_n13_p229-three-p307-one-p318-two-p245-eight-p268-five-p284-four.wav,90.482243996642,30,0.20191083600583415,5,RX81,6,0.0,0.0,7.0,0,0,5.287390029325514,3.42157244682312
0,,2024-07-01 13:30:09,sub_109,3,distance,cathedral,localisation_accuracy,3,27,babble,,,babble-reversed_n13_p307-nine-p229-one-p256-eight-p248-four-p284-two-p268-three.wav,89.27180977133133,30,0.17527333771381448,3,RX81,4,0.0,0.0,5.0,0,0,3.5425219941348978,2.991537094116211
0,,2024-07-01 13:30:12,sub_109,3,distance,cathedral,localisation_accuracy,3,28,babble,,,babble-reversed_n13_p307-two-p256-four-p318-three-p284-eight-p248-five-p245-nine.wav,91.78685778451216,30,-0.30664958205504333,9,RX81,10,0.0,0.0,11.0,0,0,9.055718475073315,2.1886653900146484
0,,2024-07-01 13:30:17,sub_109,3,distance,cathedral,localisation_accuracy,3,29,babble,,,babble-reversed_n13_p256-four-p229-eight-p307-five-p248-three-p245-one-p284-two.wav,84.17987030269111,30,-0.326599957261383,0,RX81,1,0.0,0.0,2.0,0,0,2.296187683284458,3.3902499675750732
0,,2024-07-01 13:30:20,sub_109,3,distance,cathedral,localisation_accuracy,3,30,babble,,,babble-reversed_n13_p229-five-p318-three-p307-two-p245-four-p284-nine-p248-eight.wav,88.9998205550917,30,-0.41618291259317153,4,RX81,5,0.0,0.0,6.0,0,0,5.2434017595307925,2.250235080718994
0,,2024-07-01 13:30:23,sub_109,3,distance,cathedral,localisation_accuracy,3,31,babble,,,babble-reversed_n13_p229-eight-p256-nine-p318-four-p245-three-p268-five-p284-two.wav,91.28330617679998,30,-0.43246834042264115,6,RX81,7,0.0,0.0,8.0,0,0,8.175953079178885,1.8592002391815186
0,,2024-07-01 13:30:26,sub_109,3,distance,cathedral,localisation_accuracy,3,32,babble,,,babble-reversed_n13_p256-five-p229-one-p318-three-p248-nine-p284-eight-p268-two.wav,87.8167925323265,30,0.3587355218381776,2,RX81,3,0.0,0.0,4.0,0,0,6.049853372434018,1.6072196960449219
0,,2024-07-01 13:30:29,sub_109,3,distance,cathedral,localisation_accuracy,3,33,babble,,,babble-reversed_n13_p318-three-p229-one-p256-eight-p245-five-p248-four-p284-nine.wav,89.0490996441689,30,-0.35122282082652945,4,RX81,5,0.0,0.0,6.0,0,0,7.061583577712611,1.8748042583465576
0,,2024-07-01 13:30:32,sub_109,3,distance,cathedral,localisation_accuracy,3,34,babble,,,babble-reversed_n13_p229-one-p318-eight-p256-three-p268-two-p245-five-p248-nine.wav,87.5542799271013,30,-0.023465572673508905,2,RX81,3,0.0,0.0,4.0,0,0,4.158357771260998,1.7020854949951172
0,,2024-07-01 13:30:35,sub_109,3,distance,cathedral,localisation_accuracy,3,35,babble,,,babble-reversed_n13_p307-one-p318-five-p229-four-p268-eight-p284-two-p245-three.wav,93.03898600939392,30,0.05481149658814222,10,RX81,11,0.0,0.0,12.0,0,0,9.950146627565983,2.4534671306610107
0,,2024-07-01 13:30:38,sub_109,3,distance,cathedral,localisation_accuracy,3,36,babble,,,babble-reversed_n13_p318-five-p256-nine-p307-two-p245-eight-p248-one-p284-four.wav,92.05596738950136,30,0.05752236241407338,8,RX81,9,0.0,0.0,10.0,0,0,11.313782991202347,1.7185847759246826
0,,2024-07-01 13:30:41,sub_109,3,distance,cathedral,localisation_accuracy,3,37,babble,,,babble-reversed_n13_p318-five-p256-nine-p307-eight-p248-two-p245-four-p284-three.wav,90.40937106547625,30,0.0972037610157439,5,RX81,6,0.0,0.0,7.0,0,0,8.865102639296188,1.906111240386963
0,,2024-07-01 13:30:44,sub_109,3,distance,cathedral,localisation_accuracy,3,38,babble,,,babble-reversed_n13_p307-two-p229-one-p256-five-p248-nine-p284-three-p268-eight.wav,91.91882684331033,30,0.25057586707041835,7,RX81,8,0.0,0.0,9.0,0,0,6.049853372434018,1.6248202323913574
0,,2024-07-01 13:30:47,sub_109,3,distance,cathedral,localisation_accuracy,3,39,babble,,,babble-reversed_n13_p307-two-p229-one-p256-five-p248-nine-p284-three-p268-eight.wav,84.19322632789232,30,-0.3069554320250224,0,RX81,1,0.0,0.0,2.0,0,0,2.7653958944281527,2.110234022140503
0,,2024-07-01 13:30:50,sub_109,3,distance,cathedral,localisation_accuracy,3,40,babble,,,babble-reversed_n13_p256-five-p229-one-p318-three-p248-nine-p284-eight-p268-two.wav,86.11670446158567,30,-0.1272506432237992,1,RX81,2,0.0,0.0,3.0,0,0,3.8504398826979473,2.0448317527770996
0,,2024-07-01 13:30:53,sub_109,3,distance,cathedral,localisation_accuracy,3,41,babble,,,babble-reversed_n13_p229-five-p318-three-p307-two-p245-four-p284-nine-p248-eight.wav,89.29915343235146,30,0.21447401388854093,3,RX81,4,0.0,0.0,5.0,0,0,4.348973607038124,1.2810933589935303
0,,2024-07-01 13:30:56,sub_109,3,distance,cathedral,localisation_accuracy,3,42,babble,,,babble-reversed_n13_p318-five-p229-three-p256-four-p268-eight-p248-one-p245-nine.wav,92.0406458482284,30,0.04859387225578726,9,RX81,10,0.0,0.0,11.0,0,0,5.756598240469208,2.1043548583984375
0,,2024-07-01 13:30:59,sub_109,3,distance,cathedral,localisation_accuracy,3,43,babble,,,babble-reversed_n13_p307-four-p318-three-p256-eight-p284-two-p245-nine-p248-five.wav,91.41579020864427,30,-0.24576708785759127,6,RX81,7,0.0,0.0,8.0,0,0,6.43108504398827,2.0779120922088623
0,,2024-07-01 13:31:03,sub_109,3,distance,cathedral,localisation_accuracy,3,44,babble,,,babble-reversed_n13_p229-five-p256-three-p318-nine-p248-two-p284-four-p268-one.wav,87.7408673006932,30,0.247695212999546,2,RX81,3,0.0,0.0,4.0,0,0,5.419354838709678,2.4044928550720215
0,,2024-07-01 13:31:06,sub_109,3,distance,cathedral,localisation_accuracy,3,45,babble,,,babble-reversed_n13_p318-nine-p307-eight-p229-two-p284-one-p248-three-p245-five.wav,91.81534085228728,30,-0.26699015017945005,9,RX81,10,0.0,0.0,11.0,0,0,8.659824046920821,1.9925448894500732
0,,2024-07-01 13:31:09,sub_109,3,distance,cathedral,localisation_accuracy,3,46,babble,,,babble-reversed_n13_p256-four-p229-eight-p307-five-p248-three-p245-one-p284-two.wav,88.96944628509777,30,-0.45615160068114546,4,RX81,5,0.0,0.0,6.0,0,0,7.134897360703812,2.296668529510498
0,,2024-07-01 13:31:12,sub_109,3,distance,cathedral,localisation_accuracy,3,47,babble,,,babble-reversed_n13_p307-two-p229-one-p256-five-p248-nine-p284-three-p268-eight.wav,84.52468927630065,30,0.1847606158811793,0,RX81,1,0.0,0.0,2.0,0,0,3.747800586510264,2.092278480529785
0,,2024-07-01 13:31:16,sub_109,3,distance,cathedral,localisation_accuracy,3,48,babble,,,babble-reversed_n13_p256-three-p318-two-p229-nine-p248-four-p284-one-p268-eight.wav,92.95461432805261,30,-0.06378448883227872,10,RX81,11,0.0,0.0,12.0,0,0,9.86217008797654,2.367774486541748
0,,2024-07-01 13:31:19,sub_109,3,distance,cathedral,localisation_accuracy,3,49,babble,,,babble-reversed_n13_p307-four-p318-three-p256-eight-p284-two-p245-nine-p248-five.wav,91.79979632245997,30,-0.30284516806868833,8,RX81,9,0.0,0.0,10.0,0,0,11.049853372434018,1.7186260223388672
0,,2024-07-01 13:31:22,sub_109,3,distance,cathedral,localisation_accuracy,3,50,babble,,,babble-reversed_n13_p318-five-p229-four-p256-eight-p284-one-p245-three-p248-two.wav,91.97198521562551,30,0.3247180483733333,7,RX81,8,0.0,0.0,9.0,0,0,7.545454545454547,2.3415937423706055
0,,2024-07-01 13:31:26,sub_109,3,distance,cathedral,localisation_accuracy,3,51,babble,,,babble-reversed_n13_p256-four-p229-two-p318-five-p268-one-p248-eight-p245-three.wav,91.33649940929143,30,-0.35764769853805956,6,RX81,7,0.0,0.0,8.0,0,0,7.1495601173020535,3.047614574432373
0,,2024-07-01 13:31:29,sub_109,3,distance,cathedral,localisation_accuracy,3,52,babble,,,babble-reversed_n13_p229-nine-p256-four-p318-three-p268-eight-p248-two-p284-five.wav,90.39637199218805,30,0.0785643016723302,5,RX81,6,0.0,0.0,7.0,0,0,4.686217008797654,1.9685475826263428
0,,2024-07-01 13:31:32,sub_109,3,distance,cathedral,localisation_accuracy,3,53,babble,,,babble-reversed_n13_p318-five-p229-four-p256-eight-p284-one-p245-three-p248-two.wav,86.00458881973867,30,-0.29015499810814427,1,RX81,2,0.0,0.0,3.0,0,0,3.483870967741936,1.7637197971343994
0,,2024-07-01 13:31:35,sub_109,3,distance,cathedral,localisation_accuracy,3,54,babble,,,babble-reversed_n13_p318-nine-p307-eight-p229-two-p284-one-p248-three-p245-five.wav,89.16082311950743,30,0.016681096954396124,3,RX81,4,0.0,0.0,5.0,0,0,7.134897360703812,1.9647293090820312
0,,2024-07-01 13:32:59,sub_109,3,distance,cathedral,localisation_accuracy,4,0,babble,,,babble-reversed_n13_p307-two-p256-four-p318-three-p284-eight-p248-five-p245-nine.wav,92.31766027711281,30,0.44120180296074807,9,RX81,10,0.0,0.0,11.0,0,0,8.865102639296188,1.9686124324798584
0,,2024-07-01 13:33:02,sub_109,3,distance,cathedral,localisation_accuracy,4,1,babble,,,babble-reversed_n13_p229-nine-p256-four-p318-three-p268-eight-p248-two-p284-five.wav,88.97358094617223,30,-0.2489880072872308,3,RX81,4,0.0,0.0,5.0,0,0,7.105571847507331,1.8440377712249756
0,,2024-07-01 13:33:05,sub_109,3,distance,cathedral,localisation_accuracy,4,2,babble,,,babble-reversed_n13_p256-five-p307-nine-p318-three-p284-eight-p268-one-p248-two.wav,89.29550815192127,30,-0.02425907085822876,4,RX81,5,0.0,0.0,6.0,0,0,7.486803519061585,1.9686133861541748
0,,2024-07-01 13:33:09,sub_109,3,distance,cathedral,localisation_accuracy,4,3,babble,,,babble-reversed_n13_p229-five-p256-three-p318-nine-p248-two-p284-four-p268-one.wav,92.0930285381079,30,0.4942208659726749,7,RX81,8,0.0,0.0,9.0,0,0,9.803519061583579,2.3804140090942383
0,,2024-07-01 13:33:12,sub_109,3,distance,cathedral,localisation_accuracy,4,4,babble,,,babble-reversed_n13_p229-three-p256-one-p307-two-p284-eight-p268-five-p248-nine.wav,87.6415538717452,30,0.1030626152385069,2,RX81,3,0.0,0.0,4.0,0,0,3.8797653958944283,2.2812843322753906
0,,2024-07-01 13:33:16,sub_109,3,distance,cathedral,localisation_accuracy,4,5,babble,,,babble-reversed_n13_p229-two-p256-three-p318-eight-p284-five-p268-four-p245-one.wav,91.74888175715155,30,-0.37395265903591024,8,RX81,9,0.0,0.0,10.0,0,0,10.082111436950147,2.8327887058258057
0,,2024-07-01 13:33:19,sub_109,3,distance,cathedral,localisation_accuracy,4,6,babble,,,babble-reversed_n13_p318-three-p307-one-p256-five-p248-nine-p245-two-p284-eight.wav,90.55207205382453,30,0.30258464314684586,5,RX81,6,0.0,0.0,7.0,0,0,6.093841642228739,1.8436262607574463
0,,2024-07-01 13:33:22,sub_109,3,distance,cathedral,localisation_accuracy,4,7,babble,,,babble-reversed_n13_p256-five-p307-nine-p318-three-p284-eight-p268-one-p248-two.wav,84.43416287767093,30,0.049664591536714764,0,RX81,1,0.0,0.0,2.0,0,0,2.4134897360703818,1.8591816425323486
0,,2024-07-01 13:33:26,sub_109,3,distance,cathedral,localisation_accuracy,4,8,babble,,,babble-reversed_n13_p256-four-p229-eight-p307-five-p248-three-p245-one-p284-two.wav,91.90755429205957,30,0.4576129839393762,6,RX81,7,0.0,0.0,8.0,0,0,6.152492668621701,2.5779263973236084
0,,2024-07-01 13:33:29,sub_109,3,distance,cathedral,localisation_accuracy,4,9,babble,,,babble-reversed_n13_p229-three-p307-one-p318-two-p245-eight-p268-five-p284-four.wav,93.17828370652401,30,0.2516426064799936,10,RX81,11,0.0,0.0,12.0,0,0,10.683284457478006,2.2186014652252197
0,,2024-07-01 13:33:33,sub_109,3,distance,cathedral,localisation_accuracy,4,10,babble,,,babble-reversed_n13_p256-eight-p229-three-p307-nine-p245-five-p248-four-p268-two.wav,86.11108570880742,30,-0.13543592751238165,1,RX81,2,0.0,0.0,3.0,0,0,2.545454545454546,2.891341209411621
0,,2024-07-01 13:33:36,sub_109,3,distance,cathedral,localisation_accuracy,4,11,babble,,,babble-reversed_n13_p318-three-p229-one-p256-eight-p245-five-p248-four-p284-nine.wav,89.17053248392659,30,0.03052177354911434,3,RX81,4,0.0,0.0,5.0,0,0,6.592375366568916,2.2130331993103027
0,,2024-07-01 13:33:40,sub_109,3,distance,cathedral,localisation_accuracy,4,12,babble,,,babble-reversed_n13_p229-three-p307-one-p318-two-p245-eight-p268-five-p284-four.wav,89.5650254279715,30,0.337498336720952,4,RX81,5,0.0,0.0,6.0,0,0,3.586510263929619,2.734170436859131
0,,2024-07-01 13:33:44,sub_109,3,distance,cathedral,localisation_accuracy,4,13,babble,,,babble-reversed_n13_p229-two-p318-eight-p256-three-p268-one-p248-nine-p284-five.wav,92.09599284102666,30,0.498383786617837,7,RX81,8,0.0,0.0,9.0,0,0,8.894428152492669,2.3707120418548584
0,,2024-07-01 13:33:47,sub_109,3,distance,cathedral,localisation_accuracy,4,14,babble,,,babble-reversed_n13_p256-four-p307-eight-p318-two-p248-three-p284-nine-p268-one.wav,85.97966062227331,30,-0.3262548510229082,1,RX81,2,0.0,0.0,3.0,0,0,2.164222873900293,2.734158754348755
0,,2024-07-01 13:33:52,sub_109,3,distance,cathedral,localisation_accuracy,4,15,babble,,,babble-reversed_n13_p229-one-p318-nine-p256-four-p284-eight-p268-five-p245-two.wav,91.6965544020383,30,-0.44685584848327164,8,RX81,9,0.0,0.0,10.0,0,0,10.917888563049853,3.1101033687591553
0,,2024-07-01 13:33:56,sub_109,3,distance,cathedral,localisation_accuracy,4,16,babble,,,babble-reversed_n13_p318-one-p307-two-p256-eight-p284-three-p248-five-p245-four.wav,87.51032602230995,30,-0.08698764240137202,2,RX81,3,0.0,0.0,4.0,0,0,2.4721407624633436,2.9021074771881104
0,,2024-07-01 13:34:00,sub_109,3,distance,cathedral,localisation_accuracy,4,17,babble,,,babble-reversed_n13_p229-three-p256-one-p307-two-p284-eight-p268-five-p248-nine.wav,92.24414895439004,30,0.33651814981070505,9,RX81,10,0.0,0.0,11.0,0,0,7.002932551319649,2.8904266357421875
0,,2024-07-01 13:34:03,sub_109,3,distance,cathedral,localisation_accuracy,4,18,babble,,,babble-reversed_n13_p307-five-p229-three-p318-nine-p245-four-p268-eight-p284-two.wav,93.08074590799707,30,0.1136844747512813,10,RX81,11,0.0,0.0,12.0,0,0,10.991202346041057,2.3730781078338623
0,,2024-07-01 13:34:07,sub_109,3,distance,cathedral,localisation_accuracy,4,19,babble,,,babble-reversed_n13_p229-nine-p256-four-p318-three-p268-eight-p248-two-p284-five.wav,90.01213405403884,30,-0.4672141147706117,5,RX81,6,0.0,0.0,7.0,0,0,3.7331378299120237,3.031242609024048
0,,2024-07-01 13:34:10,sub_109,3,distance,cathedral,localisation_accuracy,4,20,babble,,,babble-reversed_n13_p307-nine-p318-two-p256-one-p245-three-p268-four-p248-eight.wav,91.57375375897027,30,-0.02161775795453169,6,RX81,7,0.0,0.0,8.0,0,0,6.724340175953079,1.9217448234558105
0,,2024-07-01 13:34:13,sub_109,3,distance,cathedral,localisation_accuracy,4,21,babble,,,babble-reversed_n13_p229-two-p256-three-p318-eight-p284-five-p268-four-p245-one.wav,84.63796571774394,30,0.35466321533733125,0,RX81,1,0.0,0.0,2.0,0,0,2.266862170087977,1.914299488067627
0,,2024-07-01 13:34:17,sub_109,3,distance,cathedral,localisation_accuracy,4,22,babble,,,babble-reversed_n13_p229-five-p318-three-p307-two-p245-four-p284-nine-p248-eight.wav,93.25495042678419,30,0.3605240273071918,10,RX81,11,0.0,0.0,12.0,0,0,9.994134897360704,2.579355001449585
0,,2024-07-01 13:34:20,sub_109,3,distance,cathedral,localisation_accuracy,4,23,babble,,,babble-reversed_n13_p318-one-p307-two-p256-eight-p284-three-p248-five-p245-four.wav,89.06986450281666,30,-0.11267080367673166,3,RX81,4,0.0,0.0,5.0,0,0,5.2140762463343115,1.9061169624328613
0,,2024-07-01 13:34:24,sub_109,3,distance,cathedral,localisation_accuracy,4,24,babble,,,babble-reversed_n13_p318-five-p229-three-p256-four-p268-eight-p248-one-p245-nine.wav,92.21991937889544,30,0.290452763082067,8,RX81,9,0.0,0.0,10.0,0,0,11.40175953079179,2.644055128097534
0,,2024-07-01 13:34:27,sub_109,3,distance,cathedral,localisation_accuracy,4,25,babble,,,babble-reversed_n13_p229-three-p307-one-p318-two-p245-eight-p268-five-p284-four.wav,91.92086173015122,30,0.47687619499201483,6,RX81,7,0.0,0.0,8.0,0,0,7.545454545454547,2.1884350776672363
0,,2024-07-01 13:34:31,sub_109,3,distance,cathedral,localisation_accuracy,4,26,babble,,,babble-reversed_n13_p256-eight-p318-five-p307-four-p245-three-p268-one-p284-nine.wav,89.63521483174713,30,0.4324239166588626,4,RX81,5,0.0,0.0,6.0,0,0,3.4105571847507337,2.2185778617858887
0,,2024-07-01 13:34:34,sub_109,3,distance,cathedral,localisation_accuracy,4,27,babble,,,babble-reversed_n13_p229-one-p318-eight-p256-three-p268-two-p245-five-p248-nine.wav,87.29605626483456,30,-0.39472748613696496,2,RX81,3,0.0,0.0,4.0,0,0,3.1173020527859236,2.45295786857605
0,,2024-07-01 13:34:37,sub_109,3,distance,cathedral,localisation_accuracy,4,28,babble,,,babble-reversed_n13_p256-four-p229-two-p318-five-p268-one-p248-eight-p245-three.wav,91.67165153850468,30,-0.09179577189740362,7,RX81,8,0.0,0.0,9.0,0,0,7.413489736070382,1.8136167526245117
0,,2024-07-01 13:34:41,sub_109,3,distance,cathedral,localisation_accuracy,4,29,babble,,,babble-reversed_n13_p256-three-p318-two-p229-nine-p248-four-p284-one-p268-eight.wav,84.402431542941,30,0.002453953778946416,0,RX81,1,0.0,0.0,2.0,0,0,2.325513196480939,2.537762403488159
0,,2024-07-01 13:34:45,sub_109,3,distance,cathedral,localisation_accuracy,4,30,babble,,,babble-reversed_n13_p318-three-p307-one-p256-five-p248-nine-p245-two-p284-eight.wav,92.2164261333444,30,0.2971330690793512,9,RX81,10,0.0,0.0,11.0,0,0,10.639296187683286,2.81227707862854
0,,2024-07-01 13:34:48,sub_109,3,distance,cathedral,localisation_accuracy,4,31,babble,,,babble-reversed_n13_p256-nine-p307-four-p229-one-p284-three-p248-two-p245-five.wav,90.27807290004829,30,-0.09053590572951087,5,RX81,6,0.0,0.0,7.0,0,0,7.604105571847509,2.2042627334594727
0,,2024-07-01 13:34:51,sub_109,3,distance,cathedral,localisation_accuracy,4,32,babble,,,babble-reversed_n13_p256-nine-p307-four-p229-one-p284-three-p248-two-p245-five.wav,86.48349837700135,30,0.4119692900324895,1,RX81,2,0.0,0.0,3.0,0,0,2.0762463343108504,2.0943310260772705
0,,2024-07-01 13:34:56,sub_109,3,distance,cathedral,localisation_accuracy,4,33,babble,,,babble-reversed_n13_p307-one-p318-five-p229-four-p268-eight-p284-two-p245-three.wav,88.93923185406504,30,-0.4958563873445777,4,RX81,5,0.0,0.0,6.0,0,0,5.346041055718476,3.841043710708618
0,,2024-07-01 13:35:01,sub_109,3,distance,cathedral,localisation_accuracy,4,34,babble,,,babble-reversed_n13_p307-two-p229-one-p256-five-p248-nine-p284-three-p268-eight.wav,91.9358143204899,30,0.4985353857044248,6,RX81,7,0.0,0.0,8.0,0,0,9.480938416422289,3.7920875549316406
0,,2024-07-01 13:35:05,sub_109,3,distance,cathedral,localisation_accuracy,4,35,babble,,,babble-reversed_n13_p229-three-p307-one-p318-two-p245-eight-p268-five-p284-four.wav,85.9869599460161,30,-0.31568885476888364,1,RX81,2,0.0,0.0,3.0,0,0,3.1173020527859236,2.499786615371704
0,,2024-07-01 13:35:10,sub_109,3,distance,cathedral,localisation_accuracy,4,36,babble,,,babble-reversed_n13_p318-three-p229-one-p256-eight-p245-five-p248-four-p284-nine.wav,84.57518702437044,30,0.26038406639155,0,RX81,1,0.0,0.0,2.0,0,0,2.2375366568914963,3.655325412750244
0,,2024-07-01 13:35:13,sub_109,3,distance,cathedral,localisation_accuracy,4,37,babble,,,babble-reversed_n13_p318-five-p229-three-p256-four-p268-eight-p248-one-p245-nine.wav,90.57206532852743,30,0.33147146825563756,5,RX81,6,0.0,0.0,7.0,0,0,4.86217008797654,2.532097101211548
0,,2024-07-01 13:35:16,sub_109,3,distance,cathedral,localisation_accuracy,4,38,babble,,,babble-reversed_n13_p307-one-p318-five-p229-four-p268-eight-p284-two-p245-three.wav,89.43653288658868,30,0.412197252717166,3,RX81,4,0.0,0.0,5.0,0,0,6.621700879765397,1.8221828937530518
0,,2024-07-01 13:35:20,sub_109,3,distance,cathedral,localisation_accuracy,4,39,babble,,,babble-reversed_n13_p229-nine-p318-one-p307-two-p248-eight-p245-five-p284-four.wav,92.21220623251816,30,0.29114245292734353,9,RX81,10,0.0,0.0,11.0,0,0,9.715542521994136,2.218550205230713
0,,2024-07-01 13:35:23,sub_109,3,distance,cathedral,localisation_accuracy,4,40,babble,,,babble-reversed_n13_p318-five-p256-nine-p307-two-p245-eight-p248-one-p284-four.wav,87.37699009252741,30,-0.2788620464955337,2,RX81,3,0.0,0.0,4.0,0,0,4.334310850439883,2.2640674114227295
0,,2024-07-01 13:35:26,sub_109,3,distance,cathedral,localisation_accuracy,4,41,babble,,,babble-reversed_n13_p307-one-p318-five-p229-four-p268-eight-p284-two-p245-three.wav,91.48637713853525,30,-0.3458829600027008,7,RX81,8,0.0,0.0,9.0,0,0,8.777126099706745,2.070112705230713
0,,2024-07-01 13:35:29,sub_109,3,distance,cathedral,localisation_accuracy,4,42,babble,,,babble-reversed_n13_p307-nine-p318-two-p256-one-p245-three-p268-four-p248-eight.wav,93.00577696772308,30,0.00807566086020195,10,RX81,11,0.0,0.0,12.0,0,0,10.653958944281525,1.7810561656951904
0,,2024-07-01 13:35:33,sub_109,3,distance,cathedral,localisation_accuracy,4,43,babble,,,babble-reversed_n13_p229-one-p318-eight-p256-three-p268-nine-p248-five-p284-four.wav,91.84628543706899,30,-0.23776922718025528,8,RX81,9,0.0,0.0,10.0,0,0,11.328445747800588,2.4203028678894043
0,,2024-07-01 13:35:36,sub_109,3,distance,cathedral,localisation_accuracy,4,44,babble,,,babble-reversed_n13_p318-five-p256-nine-p307-two-p245-eight-p248-one-p284-four.wav,90.24474130902118,30,-0.13800916738156088,5,RX81,6,0.0,0.0,7.0,0,0,7.310850439882698,2.5709004402160645
0,,2024-07-01 13:35:40,sub_109,3,distance,cathedral,localisation_accuracy,4,45,babble,,,babble-reversed_n13_p318-five-p229-three-p256-four-p268-eight-p248-one-p245-nine.wav,84.1371863553583,30,-0.38929395621205387,0,RX81,1,0.0,0.0,2.0,0,0,2.3108504398826986,2.6560213565826416
0,,2024-07-01 13:35:43,sub_109,3,distance,cathedral,localisation_accuracy,4,46,babble,,,babble-reversed_n13_p256-eight-p318-five-p307-four-p245-three-p268-one-p284-nine.wav,88.90950533932832,30,-0.3393608119761302,3,RX81,4,0.0,0.0,5.0,0,0,4.2316715542522,2.0626676082611084
0,,2024-07-01 13:35:47,sub_109,3,distance,cathedral,localisation_accuracy,4,47,babble,,,babble-reversed_n13_p229-five-p318-two-p307-eight-p268-three-p248-four-p245-one.wav,86.50850293222135,30,0.44908063376419916,1,RX81,2,0.0,0.0,3.0,0,0,3.2785923753665696,2.3127598762512207
0,,2024-07-01 13:35:49,sub_109,3,distance,cathedral,localisation_accuracy,4,48,babble,,,babble-reversed_n13_p256-eight-p229-three-p307-nine-p245-five-p248-four-p268-two.wav,88.94467692296826,30,-0.488704965521756,4,RX81,5,0.0,0.0,6.0,0,0,4.715542521994135,1.5935709476470947
0,,2024-07-01 13:35:53,sub_109,3,distance,cathedral,localisation_accuracy,4,49,babble,,,babble-reversed_n13_p256-four-p229-two-p318-five-p268-one-p248-eight-p245-three.wav,91.65871571632508,30,-0.10960657058313705,7,RX81,8,0.0,0.0,9.0,0,0,6.841642228739003,2.0452394485473633
0,,2024-07-01 13:35:55,sub_109,3,distance,cathedral,localisation_accuracy,4,50,babble,,,babble-reversed_n13_p256-five-p307-nine-p318-three-p284-eight-p268-one-p248-two.wav,93.15195926772299,30,0.2143469904869878,10,RX81,11,0.0,0.0,12.0,0,0,8.894428152492669,1.6873366832733154
0,,2024-07-01 13:35:59,sub_109,3,distance,cathedral,localisation_accuracy,4,51,babble,,,babble-reversed_n13_p256-five-p229-one-p318-three-p248-nine-p284-eight-p268-two.wav,92.10313118875368,30,0.12434493623294929,8,RX81,9,0.0,0.0,10.0,0,0,9.8475073313783,2.1876046657562256
0,,2024-07-01 13:36:03,sub_109,3,distance,cathedral,localisation_accuracy,4,52,babble,,,babble-reversed_n13_p256-eight-p318-two-p307-five-p245-four-p268-nine-p284-one.wav,87.68769689517585,30,0.17017562354368965,2,RX81,3,0.0,0.0,4.0,0,0,3.9530791788856305,2.734025239944458
0,,2024-07-01 13:36:06,sub_109,3,distance,cathedral,localisation_accuracy,4,53,babble,,,babble-reversed_n13_p229-two-p318-eight-p256-three-p268-one-p248-nine-p284-five.wav,91.99960023631466,30,-0.009147079872408037,9,RX81,10,0.0,0.0,11.0,0,0,6.885630498533725,2.4854609966278076
0,,2024-07-01 13:36:09,sub_109,3,distance,cathedral,localisation_accuracy,4,54,babble,,,babble-reversed_n13_p229-two-p318-eight-p256-three-p268-one-p248-nine-p284-five.wav,91.26344222140361,30,-0.46036016624565124,6,RX81,7,0.0,0.0,8.0,0,0,7.8240469208211145,1.827930212020874
