event_id,timestamp,subject_id,session_index,plane,setup,task,block,trial_index,headpose_offset_azi,headpose_offset_ele,target_number,target_filename,target_talker,target_sex,target_speaker_id,step_number:,distance_masker,distance_target,target_speaker_proc,target_speaker_chan,target_speaker_azi,target_speaker_ele,target_speaker_dist,target_stim_level,masker_filename,masker_speaker_id,masker_speaker_proc,masker_speaker_chan,masker_speaker_azi,masker_speaker_ele,masker_speaker_dist,masker_stim_level,normalisation_method,normalisation_level_masker,normalisation_level_target,played_number,resp_number,is_correct,reaction_time
,2024-06-25 11:58:39,1,3,distance,cathedral,spatial_unmasking,0,0,0,0,_four_,talker-p245_sex-f_text-_four_.wav,p245,f,5,1,12.0,7.0,RX81,6,0.0,0.0,7.0,85.34149293193903,babble-reversed_n13_p307-nine-p318-four-p229-five-p268-one-p245-eight-p284-six.wav,10,RX81,11,0.0,0.0,12.0,93.00003341222718,mgb_normalisation,93.00003341222715,90.34149293193902,4,4.0,True,5.936991214752197
,2024-06-25 11:58:43,1,3,distance,cathedral,spatial_unmasking,0,1,0,0,_two_,talker-p245_sex-f_text-_two_.wav,p245,f,5,2,12.0,7.0,RX81,6,0.0,0.0,7.0,78.341492931939,babble-reversed_n13_p229-eight-p307-four-p318-three-p245-nine-p248-five-p268-six.wav,10,RX81,11,0.0,0.0,12.0,93.00003341222715,mgb_normalisation,93.00003341222715,90.34149293193902,2,3.0,False,1.4373886585235596
,2024-06-25 11:58:47,1,3,distance,cathedral,spatial_unmasking,0,2,0,0,_five_,talker-p245_sex-f_text-_five_.wav,p245,f,5,3,12.0,7.0,RX81,6,0.0,0.0,7.0,83.34149293193902,babble-reversed_n13_p229-five-p256-one-p318-three-p248-nine-p268-four-p284-eight.wav,10,RX81,11,0.0,0.0,12.0,93.00003341222715,mgb_normalisation,93.00003341222715,90.34149293193902,5,5.0,True,0.9998934268951416
,2024-06-25 11:58:50,1,3,distance,cathedral,spatial_unmasking,0,3,0,0,_two_,talker-p245_sex-f_text-_two_.wav,p245,f,5,4,12.0,7.0,RX81,6,0.0,0.0,7.0,80.341492931939,babble-reversed_n13_p229-three-p256-nine-p318-five-p248-one-p245-eight-p284-two.wav,10,RX81,11,0.0,0.0,12.0,93.00003341222718,mgb_normalisation,93.00003341222715,90.34149293193902,2,2.0,True,1.562377691268921
,2024-06-25 11:58:55,1,3,distance,cathedral,spatial_unmasking,0,4,0,0,_four_,talker-p245_sex-f_text-_four_.wav,p245,f,5,5,12.0,7.0,RX81,6,0.0,0.0,7.0,77.34149293193903,babble-reversed_n13_p307-one-p256-two-p318-four-p268-three-p284-six-p248-eight.wav,10,RX81,11,0.0,0.0,12.0,93.00003341222718,mgb_normalisation,93.00003341222715,90.34149293193902,4,3.0,False,2.499806880950928
,2024-06-25 11:58:59,1,3,distance,cathedral,spatial_unmasking,0,5,0,0,_four_,talker-p245_sex-f_text-_four_.wav,p245,f,5,6,12.0,7.0,RX81,6,0.0,0.0,7.0,78.34149293193902,babble-reversed_n13_p229-three-p307-one-p318-two-p245-eight-p268-five-p284-four.wav,10,RX81,11,0.0,0.0,12.0,93.00003341222718,mgb_normalisation,93.00003341222715,90.34149293193902,4,4.0,True,1.062415599822998
,2024-06-25 11:59:02,1,3,distance,cathedral,spatial_unmasking,0,6,0,0,_four_,talker-p245_sex-f_text-_four_.wav,p245,f,5,7,12.0,7.0,RX81,6,0.0,0.0,7.0,77.34149293193903,babble-reversed_n13_p229-one-p318-eight-p256-three-p268-nine-p248-five-p284-four.wav,10,RX81,11,0.0,0.0,12.0,93.00003341222715,mgb_normalisation,93.00003341222715,90.34149293193902,4,4.0,True,1.1249122619628906
,2024-06-25 11:59:06,1,3,distance,cathedral,spatial_unmasking,0,7,0,0,_five_,talker-p245_sex-f_text-_five_.wav,p245,f,5,8,12.0,7.0,RX81,6,0.0,0.0,7.0,76.34149293193902,babble-reversed_n13_p318-five-p256-nine-p307-eight-p248-two-p245-four-p284-three.wav,10,RX81,11,0.0,0.0,12.0,93.00003341222718,mgb_normalisation,93.00003341222715,90.34149293193902,5,5.0,True,0.8749790191650391
,2024-06-25 11:59:12,1,3,distance,cathedral,spatial_unmasking,0,8,0,0,_three_,talker-p245_sex-f_text-_three_.wav,p245,f,5,9,12.0,7.0,RX81,6,0.0,0.0,7.0,75.34149293193903,babble-reversed_n13_p318-eight-p307-five-p229-four-p268-two-p245-six-p248-three.wav,10,RX81,11,0.0,0.0,12.0,93.00003341222718,mgb_normalisation,93.00003341222715,90.34149293193902,3,2.0,False,3.749712228775024
,2024-06-25 11:59:16,1,3,distance,cathedral,spatial_unmasking,0,9,0,0,_three_,talker-p245_sex-f_text-_three_.wav,p245,f,5,10,12.0,7.0,RX81,6,0.0,0.0,7.0,76.34149293193902,babble-reversed_n13_p229-five-p256-six-p307-three-p248-eight-p245-two-p284-four.wav,10,RX81,11,0.0,0.0,12.0,93.00003341222718,mgb_normalisation,93.00003341222715,90.34149293193902,3,3.0,True,1.6873700618743896
,2024-06-25 11:59:19,1,3,distance,cathedral,spatial_unmasking,0,10,0,0,_three_,talker-p245_sex-f_text-_three_.wav,p245,f,5,11,12.0,7.0,RX81,6,0.0,0.0,7.0,75.34149293193903,babble-reversed_n13_p256-two-p307-five-p318-nine-p248-eight-p245-four-p284-one.wav,10,RX81,11,0.0,0.0,12.0,93.00003341222718,mgb_normalisation,93.00003341222715,90.34149293193902,3,3.0,True,1.249903440475464
,2024-06-25 11:59:25,1,3,distance,cathedral,spatial_unmasking,0,11,0,0,_three_,talker-p245_sex-f_text-_three_.wav,p245,f,5,12,12.0,7.0,RX81,6,0.0,0.0,7.0,74.34149293193902,babble-reversed_n13_p229-five-p256-one-p318-three-p248-nine-p268-four-p284-eight.wav,10,RX81,11,0.0,0.0,12.0,93.00003341222715,mgb_normalisation,93.00003341222715,90.34149293193902,3,1.0,False,3.2496893405914307
,2024-06-25 11:59:30,1,3,distance,cathedral,spatial_unmasking,0,12,0,0,_three_,talker-p245_sex-f_text-_three_.wav,p245,f,5,13,12.0,7.0,RX81,6,0.0,0.0,7.0,75.34149293193903,babble-reversed_n13_p318-three-p229-one-p256-eight-p245-five-p248-four-p284-nine.wav,10,RX81,11,0.0,0.0,12.0,93.00003341222718,mgb_normalisation,93.00003341222715,90.34149293193902,3,1.0,False,2.9372737407684326
,2024-06-25 11:59:35,1,3,distance,cathedral,spatial_unmasking,0,13,0,0,_one_,talker-p245_sex-f_text-_one_.wav,p245,f,5,14,12.0,7.0,RX81,6,0.0,0.0,7.0,76.34149293193902,babble-reversed_n13_p318-five-p256-nine-p307-eight-p248-two-p245-four-p284-three.wav,10,RX81,11,0.0,0.0,12.0,93.00003341222718,mgb_normalisation,93.00003341222715,90.34149293193902,1,2.0,False,1.687366962432861
,2024-06-25 11:59:39,1,3,distance,cathedral,spatial_unmasking,0,14,0,0,_two_,talker-p245_sex-f_text-_two_.wav,p245,f,5,15,12.0,7.0,RX81,6,0.0,0.0,7.0,77.341492931939,babble-reversed_n13_p229-three-p307-one-p318-two-p245-eight-p268-five-p284-four.wav,10,RX81,11,0.0,0.0,12.0,93.00003341222718,mgb_normalisation,93.00003341222715,90.34149293193902,2,4.0,False,1.6873700618743896
,2024-06-25 11:59:45,1,3,distance,cathedral,spatial_unmasking,0,15,0,0,_two_,talker-p245_sex-f_text-_two_.wav,p245,f,5,16,12.0,7.0,RX81,6,0.0,0.0,7.0,78.341492931939,babble-reversed_n13_p229-nine-p307-five-p256-two-p248-three-p245-one-p268-eight.wav,10,RX81,11,0.0,0.0,12.0,93.00003341222715,mgb_normalisation,93.00003341222715,90.34149293193902,2,3.0,False,3.5622286796569824
,2024-06-25 11:59:48,1,3,distance,cathedral,spatial_unmasking,0,16,0,0,_one_,talker-p245_sex-f_text-_one_.wav,p245,f,5,17,12.0,7.0,RX81,6,0.0,0.0,7.0,79.341492931939,babble-reversed_n13_p256-four-p229-two-p318-five-p268-one-p248-eight-p245-three.wav,10,RX81,11,0.0,0.0,12.0,93.00003341222715,mgb_normalisation,93.00003341222715,90.34149293193902,1,1.0,True,1.2499022483825684
,2024-06-25 11:59:54,1,3,distance,cathedral,spatial_unmasking,0,17,0,0,_four_,talker-p245_sex-f_text-_four_.wav,p245,f,5,18,12.0,7.0,RX81,6,0.0,0.0,7.0,78.34149293193902,babble-reversed_n13_p229-one-p318-eight-p256-three-p268-two-p245-five-p248-nine.wav,10,RX81,11,0.0,0.0,12.0,93.00003341222715,mgb_normalisation,93.00003341222715,90.34149293193902,4,2.0,False,3.2497494220733643
,2024-06-25 11:59:58,1,3,distance,cathedral,spatial_unmasking,0,18,0,0,_one_,talker-p245_sex-f_text-_one_.wav,p245,f,5,19,12.0,7.0,RX81,6,0.0,0.0,7.0,79.341492931939,babble-reversed_n13_p256-four-p307-eight-p318-two-p248-three-p284-nine-p268-one.wav,10,RX81,11,0.0,0.0,12.0,93.00003341222718,mgb_normalisation,93.00003341222715,90.34149293193902,1,1.0,True,1.7498626708984375
,2024-06-25 12:00:06,1,3,distance,cathedral,spatial_unmasking,0,19,0,0,_three_,talker-p245_sex-f_text-_three_.wav,p245,f,5,20,12.0,7.0,RX81,6,0.0,0.0,7.0,78.34149293193902,babble-reversed_n13_p318-eight-p307-five-p229-four-p268-two-p245-six-p248-three.wav,10,RX81,11,0.0,0.0,12.0,93.00003341222718,mgb_normalisation,93.00003341222715,90.34149293193902,3,3.0,True,5.999535322189331
,2024-06-25 12:00:12,1,3,distance,cathedral,spatial_unmasking,0,20,0,0,_two_,talker-p245_sex-f_text-_two_.wav,p245,f,5,21,12.0,7.0,RX81,6,0.0,0.0,7.0,77.341492931939,babble-reversed_n13_p256-five-p229-one-p318-three-p248-nine-p284-eight-p268-two.wav,10,RX81,11,0.0,0.0,12.0,93.00003341222718,mgb_normalisation,93.00003341222715,90.34149293193902,2,2.0,True,3.5622246265411377
,2024-06-25 12:00:16,1,3,distance,cathedral,spatial_unmasking,0,21,0,0,_two_,talker-p245_sex-f_text-_two_.wav,p245,f,5,22,12.0,7.0,RX81,6,0.0,0.0,7.0,76.341492931939,babble-reversed_n13_p229-one-p318-eight-p256-three-p268-two-p245-five-p248-nine.wav,10,RX81,11,0.0,0.0,12.0,93.00003341222715,mgb_normalisation,93.00003341222715,90.34149293193902,2,3.0,False,1.6248745918273926
,2024-06-25 12:00:20,1,3,distance,cathedral,spatial_unmasking,0,22,0,0,_four_,talker-p245_sex-f_text-_four_.wav,p245,f,5,23,12.0,7.0,RX81,6,0.0,0.0,7.0,77.34149293193903,babble-reversed_n13_p229-one-p318-eight-p256-three-p268-nine-p248-five-p284-four.wav,10,RX81,11,0.0,0.0,12.0,93.00003341222715,mgb_normalisation,93.00003341222715,90.34149293193902,4,4.0,True,0.937427282333374
,2024-06-25 12:00:25,1,3,distance,cathedral,spatial_unmasking,0,23,0,0,_five_,talker-p245_sex-f_text-_five_.wav,p245,f,5,24,12.0,7.0,RX81,6,0.0,0.0,7.0,76.34149293193902,babble-reversed_n13_p256-five-p229-four-p307-nine-p268-eight-p284-two-p245-six.wav,10,RX81,11,0.0,0.0,12.0,93.00003341222715,mgb_normalisation,93.00003341222715,90.34149293193902,5,5.0,True,2.9372096061706543
,2024-06-25 12:00:30,1,3,distance,cathedral,spatial_unmasking,0,24,0,0,_two_,talker-p245_sex-f_text-_two_.wav,p245,f,5,25,12.0,7.0,RX81,6,0.0,0.0,7.0,75.341492931939,babble-reversed_n13_p229-one-p318-three-p307-four-p284-nine-p268-five-p248-six.wav,10,RX81,11,0.0,0.0,12.0,93.00003341222715,mgb_normalisation,93.00003341222715,90.34149293193902,2,1.0,False,2.9997687339782715
,2024-06-25 12:00:37,1,3,distance,cathedral,spatial_unmasking,0,25,0,0,_two_,talker-p245_sex-f_text-_two_.wav,p245,f,5,26,12.0,7.0,RX81,6,0.0,0.0,7.0,76.341492931939,babble-reversed_n13_p318-three-p229-one-p256-eight-p245-five-p248-four-p284-nine.wav,10,RX81,11,0.0,0.0,12.0,93.00003341222718,mgb_normalisation,93.00003341222715,90.34149293193902,2,3.0,False,3.9371960163116455
,2024-06-25 12:00:42,1,3,distance,cathedral,spatial_unmasking,0,26,0,0,_five_,talker-p245_sex-f_text-_five_.wav,p245,f,5,27,12.0,7.0,RX81,6,0.0,0.0,7.0,77.34149293193902,babble-reversed_n13_p229-nine-p307-five-p256-two-p248-three-p245-one-p268-eight.wav,10,RX81,11,0.0,0.0,12.0,93.00003341222715,mgb_normalisation,93.00003341222715,90.34149293193902,5,4.0,False,3.124695539474488
,2024-06-25 12:00:46,1,3,distance,cathedral,spatial_unmasking,0,27,0,0,_four_,talker-p245_sex-f_text-_four_.wav,p245,f,5,28,12.0,7.0,RX81,6,0.0,0.0,7.0,78.34149293193902,babble-reversed_n13_p318-five-p256-nine-p307-eight-p248-two-p245-four-p284-three.wav,10,RX81,11,0.0,0.0,12.0,93.00003341222718,mgb_normalisation,93.00003341222715,90.34149293193902,4,4.0,True,1.0624175071716309
,2024-06-25 12:00:49,1,3,distance,cathedral,spatial_unmasking,0,28,0,0,_five_,talker-p245_sex-f_text-_five_.wav,p245,f,5,29,12.0,7.0,RX81,6,0.0,0.0,7.0,77.34149293193902,babble-reversed_n13_p229-nine-p256-four-p318-three-p268-eight-p248-two-p284-five.wav,10,RX81,11,0.0,0.0,12.0,93.00003341222718,mgb_normalisation,93.00003341222715,90.34149293193902,5,5.0,True,0.8749330043792725
,2024-06-25 12:00:55,1,3,distance,cathedral,spatial_unmasking,0,29,0,0,_three_,talker-p245_sex-f_text-_three_.wav,p245,f,5,30,12.0,7.0,RX81,6,0.0,0.0,7.0,76.34149293193902,babble-reversed_n13_p256-four-p307-eight-p318-two-p248-three-p284-nine-p268-one.wav,10,RX81,11,0.0,0.0,12.0,93.00003341222718,mgb_normalisation,93.00003341222715,90.34149293193902,3,1.0,False,3.812205314636232
,2024-06-25 12:01:00,1,3,distance,cathedral,spatial_unmasking,0,30,0,0,_four_,talker-p245_sex-f_text-_four_.wav,p245,f,5,31,12.0,7.0,RX81,6,0.0,0.0,7.0,77.34149293193903,babble-reversed_n13_p256-two-p307-five-p318-nine-p248-eight-p245-four-p284-one.wav,10,RX81,11,0.0,0.0,12.0,93.00003341222718,mgb_normalisation,93.00003341222715,90.34149293193902,4,4.0,True,1.937349557876587
,2024-06-25 12:01:04,1,3,distance,cathedral,spatial_unmasking,1,31,0,0,_three_,talker-p245_sex-f_text-_three_.wav,p245,f,5,1,2.0,7.0,RX81,6,0.0,0.0,7.0,85.34149293193903,babble-reversed_n13_p256-four-p307-eight-p318-two-p248-three-p284-nine-p268-one.wav,0,RX81,1,0.0,0.0,2.0,84.40078082039427,mgb_normalisation,84.40078082039426,90.34149293193902,3,3.0,True,1.6873698234558103
,2024-06-25 12:01:07,1,3,distance,cathedral,spatial_unmasking,1,32,0,0,_three_,talker-p245_sex-f_text-_three_.wav,p245,f,5,2,2.0,7.0,RX81,6,0.0,0.0,7.0,78.34149293193902,babble-reversed_n13_p307-four-p318-three-p256-eight-p284-two-p245-nine-p248-five.wav,0,RX81,1,0.0,0.0,2.0,84.40078082039426,mgb_normalisation,84.40078082039426,90.34149293193902,3,3.0,True,0.9999229907989502
,2024-06-25 12:01:11,1,3,distance,cathedral,spatial_unmasking,1,33,0,0,_two_,talker-p245_sex-f_text-_two_.wav,p245,f,5,3,2.0,7.0,RX81,6,0.0,0.0,7.0,71.341492931939,babble-reversed_n13_p229-one-p318-eight-p256-three-p268-two-p245-five-p248-nine.wav,0,RX81,1,0.0,0.0,2.0,84.40078082039426,mgb_normalisation,84.40078082039426,90.34149293193902,2,2.0,True,1.5623795986175537
,2024-06-25 12:01:16,1,3,distance,cathedral,spatial_unmasking,1,34,0,0,_four_,talker-p245_sex-f_text-_four_.wav,p245,f,5,4,2.0,7.0,RX81,6,0.0,0.0,7.0,64.34149293193903,babble-reversed_n13_p229-three-p256-nine-p318-five-p248-one-p245-eight-p284-two.wav,0,RX81,1,0.0,0.0,2.0,84.40078082039426,mgb_normalisation,84.40078082039426,90.34149293193902,4,1.0,False,2.374812126159668
,2024-06-25 12:01:22,1,3,distance,cathedral,spatial_unmasking,1,35,0,0,_five_,talker-p245_sex-f_text-_five_.wav,p245,f,5,5,2.0,7.0,RX81,6,0.0,0.0,7.0,69.34149293193902,babble-reversed_n13_p229-five-p256-one-p318-three-p248-nine-p268-four-p284-eight.wav,0,RX81,1,0.0,0.0,2.0,84.40078082039426,mgb_normalisation,84.40078082039426,90.34149293193902,5,3.0,False,3.6872153282165527
,2024-06-25 12:01:26,1,3,distance,cathedral,spatial_unmasking,1,36,0,0,_two_,talker-p245_sex-f_text-_two_.wav,p245,f,5,6,2.0,7.0,RX81,6,0.0,0.0,7.0,74.341492931939,babble-reversed_n13_p229-three-p307-one-p318-two-p245-eight-p268-five-p284-four.wav,0,RX81,1,0.0,0.0,2.0,84.40078082039426,mgb_normalisation,84.40078082039426,90.34149293193902,2,2.0,True,1.4373862743377686
,2024-06-25 12:01:29,1,3,distance,cathedral,spatial_unmasking,1,37,0,0,_three_,talker-p245_sex-f_text-_three_.wav,p245,f,5,7,2.0,7.0,RX81,6,0.0,0.0,7.0,71.34149293193902,babble-reversed_n13_p318-three-p307-one-p256-five-p248-nine-p245-two-p284-eight.wav,0,RX81,1,0.0,0.0,2.0,84.40078082039426,mgb_normalisation,84.40078082039426,90.34149293193902,3,3.0,True,1.3124618530273438
,2024-06-25 12:01:34,1,3,distance,cathedral,spatial_unmasking,1,38,0,0,_two_,talker-p245_sex-f_text-_two_.wav,p245,f,5,8,2.0,7.0,RX81,6,0.0,0.0,7.0,68.341492931939,babble-reversed_n13_p307-five-p229-two-p318-four-p248-three-p245-nine-p268-eight.wav,0,RX81,1,0.0,0.0,2.0,84.40078082039426,mgb_normalisation,84.40078082039426,90.34149293193902,2,2.0,True,2.6872928142547607
,2024-06-25 12:01:40,1,3,distance,cathedral,spatial_unmasking,1,39,0,0,_two_,talker-p245_sex-f_text-_two_.wav,p245,f,5,9,2.0,7.0,RX81,6,0.0,0.0,7.0,65.341492931939,babble-reversed_n13_p318-four-p256-five-p229-three-p284-one-p245-eight-p248-nine.wav,0,RX81,1,0.0,0.0,2.0,84.40078082039427,mgb_normalisation,84.40078082039426,90.34149293193902,2,3.0,False,3.124757766723633
,2024-06-25 12:01:45,1,3,distance,cathedral,spatial_unmasking,1,40,0,0,_two_,talker-p245_sex-f_text-_two_.wav,p245,f,5,10,2.0,7.0,RX81,6,0.0,0.0,7.0,66.341492931939,babble-reversed_n13_p307-two-p256-four-p318-three-p284-eight-p248-five-p245-nine.wav,0,RX81,1,0.0,0.0,2.0,84.40078082039427,mgb_normalisation,84.40078082039426,90.34149293193902,2,3.0,False,2.9997689723968506
,2024-06-25 12:01:49,1,3,distance,cathedral,spatial_unmasking,1,41,0,0,_five_,talker-p245_sex-f_text-_five_.wav,p245,f,5,11,2.0,7.0,RX81,6,0.0,0.0,7.0,67.34149293193902,babble-reversed_n13_p318-five-p256-nine-p307-eight-p248-two-p245-four-p284-three.wav,0,RX81,1,0.0,0.0,2.0,84.40078082039426,mgb_normalisation,84.40078082039426,90.34149293193902,5,2.0,False,1.4373893737792969
,2024-06-25 12:01:54,1,3,distance,cathedral,spatial_unmasking,1,42,0,0,_five_,talker-p245_sex-f_text-_five_.wav,p245,f,5,12,2.0,7.0,RX81,6,0.0,0.0,7.0,68.34149293193902,babble-reversed_n13_p229-eight-p256-nine-p318-four-p245-three-p268-five-p284-two.wav,0,RX81,1,0.0,0.0,2.0,84.40078082039426,mgb_normalisation,84.40078082039426,90.34149293193902,5,3.0,False,2.124892234802246
,2024-06-25 12:01:57,1,3,distance,cathedral,spatial_unmasking,1,43,0,0,_three_,talker-p245_sex-f_text-_three_.wav,p245,f,5,13,2.0,7.0,RX81,6,0.0,0.0,7.0,69.34149293193903,babble-reversed_n13_p256-five-p229-four-p307-nine-p268-eight-p284-two-p245-six.wav,0,RX81,1,0.0,0.0,2.0,84.40078082039426,mgb_normalisation,84.40078082039426,90.34149293193902,3,3.0,True,1.124912977218628
,2024-06-25 12:02:01,1,3,distance,cathedral,spatial_unmasking,1,44,0,0,_two_,talker-p245_sex-f_text-_two_.wav,p245,f,5,14,2.0,7.0,RX81,6,0.0,0.0,7.0,68.341492931939,babble-reversed_n13_p229-five-p256-three-p318-nine-p248-two-p284-four-p268-one.wav,0,RX81,1,0.0,0.0,2.0,84.40078082039427,mgb_normalisation,84.40078082039426,90.34149293193902,2,2.0,True,1.187415599822998
,2024-06-25 12:02:05,1,3,distance,cathedral,spatial_unmasking,1,45,0,0,_four_,talker-p245_sex-f_text-_four_.wav,p245,f,5,15,2.0,7.0,RX81,6,0.0,0.0,7.0,67.34149293193903,babble-reversed_n13_p229-nine-p318-one-p307-two-p248-eight-p245-five-p284-four.wav,0,RX81,1,0.0,0.0,2.0,84.40078082039426,mgb_normalisation,84.40078082039426,90.34149293193902,4,3.0,False,1.6873698234558103
,2024-06-25 12:02:10,1,3,distance,cathedral,spatial_unmasking,1,46,0,0,_one_,talker-p245_sex-f_text-_one_.wav,p245,f,5,16,2.0,7.0,RX81,6,0.0,0.0,7.0,68.341492931939,babble-reversed_n13_p256-four-p229-eight-p307-five-p248-three-p245-one-p284-two.wav,0,RX81,1,0.0,0.0,2.0,84.40078082039426,mgb_normalisation,84.40078082039426,90.34149293193902,1,2.0,False,2.9372925758361816
,2024-06-25 12:02:15,1,3,distance,cathedral,spatial_unmasking,1,47,0,0,_four_,talker-p245_sex-f_text-_four_.wav,p245,f,5,17,2.0,7.0,RX81,6,0.0,0.0,7.0,69.34149293193903,babble-reversed_n13_p229-eight-p307-four-p318-three-p245-nine-p248-five-p268-six.wav,0,RX81,1,0.0,0.0,2.0,84.40078082039426,mgb_normalisation,84.40078082039426,90.34149293193902,4,3.0,False,2.6247975826263428
,2024-06-25 12:02:19,1,3,distance,cathedral,spatial_unmasking,1,48,0,0,_one_,talker-p245_sex-f_text-_one_.wav,p245,f,5,18,2.0,7.0,RX81,6,0.0,0.0,7.0,70.341492931939,babble-reversed_n13_p256-nine-p307-one-p318-three-p248-two-p284-eight-p268-six.wav,0,RX81,1,0.0,0.0,2.0,84.40078082039426,mgb_normalisation,84.40078082039426,90.34149293193902,1,2.0,False,1.6873695850372314
,2024-06-25 12:02:23,1,3,distance,cathedral,spatial_unmasking,1,49,0,0,_one_,talker-p245_sex-f_text-_one_.wav,p245,f,5,19,2.0,7.0,RX81,6,0.0,0.0,7.0,71.34149293193902,babble-reversed_n13_p256-three-p318-one-p307-two-p284-nine-p268-four-p245-eight.wav,0,RX81,1,0.0,0.0,2.0,84.40078082039426,mgb_normalisation,84.40078082039426,90.34149293193902,1,4.0,False,1.1874322891235352
,2024-06-25 12:02:26,1,3,distance,cathedral,spatial_unmasking,1,50,0,0,_three_,talker-p245_sex-f_text-_three_.wav,p245,f,5,20,2.0,7.0,RX81,6,0.0,0.0,7.0,72.34149293193903,babble-reversed_n13_p229-five-p256-three-p318-nine-p248-two-p284-four-p268-one.wav,0,RX81,1,0.0,0.0,2.0,84.40078082039427,mgb_normalisation,84.40078082039426,90.34149293193902,3,3.0,True,1.249894142150879
,2024-06-25 12:02:33,1,3,distance,cathedral,spatial_unmasking,1,51,0,0,_two_,talker-p245_sex-f_text-_two_.wav,p245,f,5,21,2.0,7.0,RX81,6,0.0,0.0,7.0,71.341492931939,babble-reversed_n13_p229-one-p318-nine-p256-four-p284-eight-p268-five-p245-two.wav,0,RX81,1,0.0,0.0,2.0,84.40078082039426,mgb_normalisation,84.40078082039426,90.34149293193902,2,2.0,True,4.18710994720459
,2024-06-25 12:02:37,1,3,distance,cathedral,spatial_unmasking,1,52,0,0,_five_,talker-p245_sex-f_text-_five_.wav,p245,f,5,22,2.0,7.0,RX81,6,0.0,0.0,7.0,70.34149293193902,babble-reversed_n13_p229-five-p256-three-p318-nine-p248-two-p284-four-p268-one.wav,0,RX81,1,0.0,0.0,2.0,84.40078082039427,mgb_normalisation,84.40078082039426,90.34149293193902,5,4.0,False,1.749908208847046
,2024-06-25 12:02:41,1,3,distance,cathedral,spatial_unmasking,1,53,0,0,_four_,talker-p245_sex-f_text-_four_.wav,p245,f,5,23,2.0,7.0,RX81,6,0.0,0.0,7.0,71.34149293193903,babble-reversed_n13_p318-nine-p229-two-p256-eight-p268-four-p284-six-p245-three.wav,0,RX81,1,0.0,0.0,2.0,84.40078082039426,mgb_normalisation,84.40078082039426,90.34149293193902,4,3.0,False,1.124913215637207
,2024-06-25 12:02:45,1,3,distance,cathedral,spatial_unmasking,1,54,0,0,_four_,talker-p245_sex-f_text-_four_.wav,p245,f,5,24,2.0,7.0,RX81,6,0.0,0.0,7.0,72.34149293193903,babble-reversed_n13_p229-one-p318-eight-p256-three-p268-nine-p248-five-p284-four.wav,0,RX81,1,0.0,0.0,2.0,84.40078082039426,mgb_normalisation,84.40078082039426,90.34149293193902,4,4.0,True,1.687368869781494
,2024-06-25 12:02:48,1,3,distance,cathedral,spatial_unmasking,1,55,0,0,_three_,talker-p245_sex-f_text-_three_.wav,p245,f,5,25,2.0,7.0,RX81,6,0.0,0.0,7.0,71.34149293193902,babble-reversed_n13_p229-two-p307-five-p318-four-p284-one-p248-nine-p268-eight.wav,0,RX81,1,0.0,0.0,2.0,84.40078082039426,mgb_normalisation,84.40078082039426,90.34149293193902,3,1.0,False,1.124913215637207
,2024-06-25 12:02:52,1,3,distance,cathedral,spatial_unmasking,1,56,0,0,_three_,talker-p245_sex-f_text-_three_.wav,p245,f,5,26,2.0,7.0,RX81,6,0.0,0.0,7.0,72.34149293193903,babble-reversed_n13_p307-one-p318-five-p256-nine-p248-eight-p284-six-p245-three.wav,0,RX81,1,0.0,0.0,2.0,84.40078082039426,mgb_normalisation,84.40078082039426,90.34149293193902,3,2.0,False,1.4373893737792969
,2024-06-25 12:02:56,1,3,distance,cathedral,spatial_unmasking,1,57,0,0,_five_,talker-p245_sex-f_text-_five_.wav,p245,f,5,27,2.0,7.0,RX81,6,0.0,0.0,7.0,73.34149293193902,babble-reversed_n13_p318-three-p229-one-p256-eight-p245-five-p248-four-p284-nine.wav,0,RX81,1,0.0,0.0,2.0,84.40078082039427,mgb_normalisation,84.40078082039426,90.34149293193902,5,5.0,True,1.624873399734497
,2024-06-25 12:02:59,1,3,distance,cathedral,spatial_unmasking,1,58,0,0,_three_,talker-p245_sex-f_text-_three_.wav,p245,f,5,28,2.0,7.0,RX81,6,0.0,0.0,7.0,72.34149293193903,babble-reversed_n13_p318-nine-p229-two-p256-eight-p268-four-p284-six-p245-three.wav,0,RX81,1,0.0,0.0,2.0,84.40078082039426,mgb_normalisation,84.40078082039426,90.34149293193902,3,3.0,True,0.8124375343322754
,2024-06-25 12:03:04,1,3,distance,cathedral,spatial_unmasking,1,59,0,0,_four_,talker-p245_sex-f_text-_four_.wav,p245,f,5,29,2.0,7.0,RX81,6,0.0,0.0,7.0,71.34149293193903,babble-reversed_n13_p256-five-p229-one-p318-three-p248-nine-p284-eight-p268-two.wav,0,RX81,1,0.0,0.0,2.0,84.40078082039427,mgb_normalisation,84.40078082039426,90.34149293193902,4,1.0,False,2.437317132949829
,2024-06-25 12:03:08,1,3,distance,cathedral,spatial_unmasking,1,60,0,0,_five_,talker-p245_sex-f_text-_five_.wav,p245,f,5,30,2.0,7.0,RX81,6,0.0,0.0,7.0,72.34149293193902,babble-reversed_n13_p318-nine-p256-five-p307-eight-p268-three-p248-one-p245-four.wav,0,RX81,1,0.0,0.0,2.0,84.40078082039426,mgb_normalisation,84.40078082039426,90.34149293193902,5,1.0,False,1.8123598098754885
,2024-06-25 12:03:15,1,3,distance,cathedral,spatial_unmasking,1,61,0,0,_one_,talker-p245_sex-f_text-_one_.wav,p245,f,5,31,2.0,7.0,RX81,6,0.0,0.0,7.0,73.341492931939,babble-reversed_n13_p318-nine-p307-eight-p229-two-p284-one-p248-three-p245-five.wav,0,RX81,1,0.0,0.0,2.0,84.40078082039426,mgb_normalisation,84.40078082039426,90.34149293193902,1,2.0,False,3.749710321426392
,2024-06-25 12:03:19,1,3,distance,cathedral,spatial_unmasking,1,62,0,0,_five_,talker-p245_sex-f_text-_five_.wav,p245,f,5,32,2.0,7.0,RX81,6,0.0,0.0,7.0,74.34149293193902,babble-reversed_n13_p307-nine-p318-four-p229-five-p268-one-p245-eight-p284-six.wav,0,RX81,1,0.0,0.0,2.0,84.40078082039426,mgb_normalisation,84.40078082039426,90.34149293193902,5,5.0,True,1.9998457431793213
,2024-06-25 12:03:23,1,3,distance,cathedral,spatial_unmasking,1,63,0,0,_one_,talker-p245_sex-f_text-_one_.wav,p245,f,5,33,2.0,7.0,RX81,6,0.0,0.0,7.0,73.341492931939,babble-reversed_n13_p318-nine-p256-five-p307-eight-p268-three-p248-one-p245-four.wav,0,RX81,1,0.0,0.0,2.0,84.40078082039426,mgb_normalisation,84.40078082039426,90.34149293193902,1,1.0,True,1.4998786449432373
,2024-06-25 12:03:29,1,3,distance,cathedral,spatial_unmasking,1,64,0,0,_one_,talker-p245_sex-f_text-_one_.wav,p245,f,5,34,2.0,7.0,RX81,6,0.0,0.0,7.0,72.341492931939,babble-reversed_n13_p318-five-p256-nine-p307-eight-p248-two-p245-four-p284-three.wav,0,RX81,1,0.0,0.0,2.0,84.40078082039426,mgb_normalisation,84.40078082039426,90.34149293193902,1,2.0,False,3.68715500831604
,2024-06-25 12:03:33,1,3,distance,cathedral,spatial_unmasking,1,65,0,0,_five_,talker-p245_sex-f_text-_five_.wav,p245,f,5,35,2.0,7.0,RX81,6,0.0,0.0,7.0,73.34149293193902,babble-reversed_n13_p256-five-p318-nine-p229-eight-p284-two-p248-six-p245-four.wav,0,RX81,1,0.0,0.0,2.0,84.40078082039426,mgb_normalisation,84.40078082039426,90.34149293193902,5,3.0,False,2.12483549118042
,2024-06-25 12:03:37,1,3,distance,cathedral,spatial_unmasking,1,66,0,0,_three_,talker-p245_sex-f_text-_three_.wav,p245,f,5,36,2.0,7.0,RX81,6,0.0,0.0,7.0,74.34149293193902,babble-reversed_n13_p318-nine-p229-two-p256-eight-p268-four-p284-six-p245-three.wav,0,RX81,1,0.0,0.0,2.0,84.40078082039426,mgb_normalisation,84.40078082039426,90.34149293193902,3,3.0,True,0.9374275207519532
,2024-06-25 12:03:41,1,3,distance,cathedral,spatial_unmasking,1,67,0,0,_one_,talker-p245_sex-f_text-_one_.wav,p245,f,5,37,2.0,7.0,RX81,6,0.0,0.0,7.0,73.341492931939,babble-reversed_n13_p256-eight-p318-two-p307-five-p245-four-p268-nine-p284-one.wav,0,RX81,1,0.0,0.0,2.0,84.40078082039426,mgb_normalisation,84.40078082039426,90.34149293193902,1,2.0,False,2.374816656112671
,2024-06-25 12:03:47,1,3,distance,cathedral,spatial_unmasking,1,68,0,0,_one_,talker-p245_sex-f_text-_one_.wav,p245,f,5,38,2.0,7.0,RX81,6,0.0,0.0,7.0,74.341492931939,babble-reversed_n13_p318-nine-p307-eight-p229-two-p284-one-p248-three-p245-five.wav,0,RX81,1,0.0,0.0,2.0,84.40078082039426,mgb_normalisation,84.40078082039426,90.34149293193902,1,3.0,False,3.499728441238404
,2024-06-25 12:03:53,1,3,distance,cathedral,spatial_unmasking,1,69,0,0,_four_,talker-p245_sex-f_text-_four_.wav,p245,f,5,39,2.0,7.0,RX81,6,0.0,0.0,7.0,75.34149293193903,babble-reversed_n13_p256-three-p318-two-p229-nine-p248-four-p284-one-p268-eight.wav,0,RX81,1,0.0,0.0,2.0,84.40078082039426,mgb_normalisation,84.40078082039426,90.34149293193902,4,1.0,False,3.2497458457946777
,2024-06-25 12:03:57,1,3,distance,cathedral,spatial_unmasking,1,70,0,0,_four_,talker-p245_sex-f_text-_four_.wav,p245,f,5,40,2.0,7.0,RX81,6,0.0,0.0,7.0,76.34149293193903,babble-reversed_n13_p318-nine-p307-eight-p229-two-p284-one-p248-three-p245-five.wav,0,RX81,1,0.0,0.0,2.0,84.40078082039426,mgb_normalisation,84.40078082039426,90.34149293193902,4,1.0,False,1.6248750686645508
,2024-06-25 12:04:04,1,3,distance,cathedral,spatial_unmasking,1,71,0,0,_one_,talker-p245_sex-f_text-_one_.wav,p245,f,5,41,2.0,7.0,RX81,6,0.0,0.0,7.0,77.341492931939,babble-reversed_n13_p229-one-p318-nine-p256-four-p284-eight-p268-five-p245-two.wav,0,RX81,1,0.0,0.0,2.0,84.40078082039426,mgb_normalisation,84.40078082039426,90.34149293193902,1,2.0,False,4.312167167663574
,2024-06-25 12:04:08,1,3,distance,cathedral,spatial_unmasking,1,72,0,0,_one_,talker-p245_sex-f_text-_one_.wav,p245,f,5,42,2.0,7.0,RX81,6,0.0,0.0,7.0,78.341492931939,babble-reversed_n13_p229-one-p318-eight-p256-three-p268-two-p245-five-p248-nine.wav,0,RX81,1,0.0,0.0,2.0,84.40078082039426,mgb_normalisation,84.40078082039426,90.34149293193902,1,2.0,False,1.8123605251312256
,2024-06-25 12:04:11,1,3,distance,cathedral,spatial_unmasking,1,73,0,0,_three_,talker-p245_sex-f_text-_three_.wav,p245,f,5,43,2.0,7.0,RX81,6,0.0,0.0,7.0,79.34149293193902,babble-reversed_n13_p256-three-p318-two-p229-nine-p248-four-p284-one-p268-eight.wav,0,RX81,1,0.0,0.0,2.0,84.40078082039426,mgb_normalisation,84.40078082039426,90.34149293193902,3,3.0,True,0.9999234676361084
,2024-06-25 12:04:15,1,3,distance,cathedral,spatial_unmasking,2,74,0,0,_three_,talker-p245_sex-f_text-_three_.wav,p245,f,5,1,6.0,7.0,RX81,6,0.0,0.0,7.0,85.34149293193903,babble-reversed_n13_p307-four-p318-three-p256-eight-p284-two-p245-nine-p248-five.wav,4,RX81,5,0.0,0.0,6.0,89.31368318402099,mgb_normalisation,89.31368318402099,90.34149293193902,3,3.0,True,1.2499024868011477
,2024-06-25 12:04:20,1,3,distance,cathedral,spatial_unmasking,2,75,0,0,_five_,talker-p245_sex-f_text-_five_.wav,p245,f,5,2,6.0,7.0,RX81,6,0.0,0.0,7.0,78.34149293193902,babble-reversed_n13_p307-four-p318-three-p256-eight-p284-two-p245-nine-p248-five.wav,4,RX81,5,0.0,0.0,6.0,89.31368318402099,mgb_normalisation,89.31368318402099,90.34149293193902,5,1.0,False,2.624733686447144
,2024-06-25 12:04:23,1,3,distance,cathedral,spatial_unmasking,2,76,0,0,_five_,talker-p245_sex-f_text-_five_.wav,p245,f,5,3,6.0,7.0,RX81,6,0.0,0.0,7.0,83.34149293193902,babble-reversed_n13_p307-two-p318-four-p256-five-p268-six-p248-nine-p284-one.wav,4,RX81,5,0.0,0.0,6.0,89.31368318402099,mgb_normalisation,89.31368318402099,90.34149293193902,5,5.0,True,0.9999232292175292
,2024-06-25 12:04:27,1,3,distance,cathedral,spatial_unmasking,2,77,0,0,_one_,talker-p245_sex-f_text-_one_.wav,p245,f,5,4,6.0,7.0,RX81,6,0.0,0.0,7.0,80.341492931939,babble-reversed_n13_p307-two-p318-four-p256-five-p268-six-p248-nine-p284-one.wav,4,RX81,5,0.0,0.0,6.0,89.31368318402099,mgb_normalisation,89.31368318402099,90.34149293193902,1,5.0,False,1.5623784065246582
,2024-06-25 12:04:31,1,3,distance,cathedral,spatial_unmasking,2,78,0,0,_two_,talker-p245_sex-f_text-_two_.wav,p245,f,5,5,6.0,7.0,RX81,6,0.0,0.0,7.0,81.341492931939,babble-reversed_n13_p307-eight-p256-one-p318-nine-p245-three-p248-four-p268-six.wav,4,RX81,5,0.0,0.0,6.0,89.313683184021,mgb_normalisation,89.31368318402099,90.34149293193902,2,2.0,True,0.999962329864502
,2024-06-25 12:04:34,1,3,distance,cathedral,spatial_unmasking,2,79,0,0,_one_,talker-p245_sex-f_text-_one_.wav,p245,f,5,6,6.0,7.0,RX81,6,0.0,0.0,7.0,80.341492931939,babble-reversed_n13_p318-nine-p229-two-p256-eight-p268-four-p284-six-p245-three.wav,4,RX81,5,0.0,0.0,6.0,89.31368318402099,mgb_normalisation,89.31368318402099,90.34149293193902,1,1.0,True,1.187408685684204
,2024-06-25 12:04:38,1,3,distance,cathedral,spatial_unmasking,2,80,0,0,_five_,talker-p245_sex-f_text-_five_.wav,p245,f,5,7,6.0,7.0,RX81,6,0.0,0.0,7.0,79.34149293193902,babble-reversed_n13_p256-five-p229-four-p307-nine-p268-eight-p284-two-p245-six.wav,4,RX81,5,0.0,0.0,6.0,89.31368318402099,mgb_normalisation,89.31368318402099,90.34149293193902,5,5.0,True,1.0624194145202637
,2024-06-25 12:04:42,1,3,distance,cathedral,spatial_unmasking,2,81,0,0,_three_,talker-p245_sex-f_text-_three_.wav,p245,f,5,8,6.0,7.0,RX81,6,0.0,0.0,7.0,78.34149293193902,babble-reversed_n13_p256-four-p229-eight-p307-five-p248-three-p245-one-p284-two.wav,4,RX81,5,0.0,0.0,6.0,89.31368318402099,mgb_normalisation,89.31368318402099,90.34149293193902,3,3.0,True,2.2498905658721924
,2024-06-25 12:04:46,1,3,distance,cathedral,spatial_unmasking,2,82,0,0,_one_,talker-p245_sex-f_text-_one_.wav,p245,f,5,9,6.0,7.0,RX81,6,0.0,0.0,7.0,77.341492931939,babble-reversed_n13_p256-two-p307-five-p318-nine-p248-eight-p245-four-p284-one.wav,4,RX81,5,0.0,0.0,6.0,89.31368318402099,mgb_normalisation,89.31368318402099,90.34149293193902,1,1.0,True,1.4998846054077148
,2024-06-25 12:04:50,1,3,distance,cathedral,spatial_unmasking,2,83,0,0,_three_,talker-p245_sex-f_text-_three_.wav,p245,f,5,10,6.0,7.0,RX81,6,0.0,0.0,7.0,76.34149293193902,babble-reversed_n13_p307-one-p256-two-p318-four-p268-three-p284-six-p248-eight.wav,4,RX81,5,0.0,0.0,6.0,89.313683184021,mgb_normalisation,89.31368318402099,90.34149293193902,3,3.0,True,1.2499043941497805
,2024-06-25 12:04:54,1,3,distance,cathedral,spatial_unmasking,2,84,0,0,_three_,talker-p245_sex-f_text-_three_.wav,p245,f,5,11,6.0,7.0,RX81,6,0.0,0.0,7.0,75.34149293193903,babble-reversed_n13_p229-two-p307-five-p318-four-p284-one-p248-nine-p268-eight.wav,4,RX81,5,0.0,0.0,6.0,89.31368318402099,mgb_normalisation,89.31368318402099,90.34149293193902,3,1.0,False,1.5623793601989746
,2024-06-25 12:05:00,1,3,distance,cathedral,spatial_unmasking,2,85,0,0,_two_,talker-p245_sex-f_text-_two_.wav,p245,f,5,12,6.0,7.0,RX81,6,0.0,0.0,7.0,76.341492931939,babble-reversed_n13_p229-five-p318-two-p307-eight-p268-three-p248-four-p245-one.wav,4,RX81,5,0.0,0.0,6.0,89.313683184021,mgb_normalisation,89.31368318402099,90.34149293193902,2,2.0,True,3.999691009521485
,2024-06-25 12:05:05,1,3,distance,cathedral,spatial_unmasking,2,86,0,0,_five_,talker-p245_sex-f_text-_five_.wav,p245,f,5,13,6.0,7.0,RX81,6,0.0,0.0,7.0,75.34149293193902,babble-reversed_n13_p307-two-p318-four-p256-five-p268-six-p248-nine-p284-one.wav,4,RX81,5,0.0,0.0,6.0,89.31368318402099,mgb_normalisation,89.31368318402099,90.34149293193902,5,5.0,True,2.0623199939727783
,2024-06-25 12:05:08,1,3,distance,cathedral,spatial_unmasking,2,87,0,0,_four_,talker-p245_sex-f_text-_four_.wav,p245,f,5,14,6.0,7.0,RX81,6,0.0,0.0,7.0,74.34149293193903,babble-reversed_n13_p256-eight-p318-two-p307-five-p245-four-p268-nine-p284-one.wav,4,RX81,5,0.0,0.0,6.0,89.31368318402099,mgb_normalisation,89.31368318402099,90.34149293193902,4,1.0,False,1.3123972415924072
,2024-06-25 12:05:13,1,3,distance,cathedral,spatial_unmasking,2,88,0,0,_four_,talker-p245_sex-f_text-_four_.wav,p245,f,5,15,6.0,7.0,RX81,6,0.0,0.0,7.0,75.34149293193903,babble-reversed_n13_p318-five-p256-nine-p307-two-p245-eight-p248-one-p284-four.wav,4,RX81,5,0.0,0.0,6.0,89.313683184021,mgb_normalisation,89.31368318402099,90.34149293193902,4,1.0,False,1.8748548030853271
,2024-06-25 12:05:20,1,3,distance,cathedral,spatial_unmasking,2,89,0,0,_four_,talker-p245_sex-f_text-_four_.wav,p245,f,5,16,6.0,7.0,RX81,6,0.0,0.0,7.0,76.34149293193903,babble-reversed_n13_p229-three-p256-nine-p318-five-p248-one-p245-eight-p284-two.wav,4,RX81,5,0.0,0.0,6.0,89.31368318402099,mgb_normalisation,89.31368318402099,90.34149293193902,4,1.0,False,4.812127351760864
,2024-06-25 12:05:24,1,3,distance,cathedral,spatial_unmasking,2,90,0,0,_two_,talker-p245_sex-f_text-_two_.wav,p245,f,5,17,6.0,7.0,RX81,6,0.0,0.0,7.0,77.341492931939,babble-reversed_n13_p229-one-p318-nine-p256-four-p284-eight-p268-five-p245-two.wav,4,RX81,5,0.0,0.0,6.0,89.31368318402099,mgb_normalisation,89.31368318402099,90.34149293193902,2,4.0,False,1.9373512268066408
,2024-06-25 12:05:35,1,3,distance,cathedral,spatial_unmasking,2,91,0,0,_five_,talker-p245_sex-f_text-_five_.wav,p245,f,5,18,6.0,7.0,RX81,6,0.0,0.0,7.0,78.34149293193902,babble-reversed_n13_p318-two-p307-three-p256-one-p284-nine-p248-six-p268-five.wav,4,RX81,5,0.0,0.0,6.0,89.31368318402099,mgb_normalisation,89.31368318402099,90.34149293193902,5,5.0,True,8.311858892440796
,2024-06-25 12:05:39,1,3,distance,cathedral,spatial_unmasking,2,92,0,0,_two_,talker-p245_sex-f_text-_two_.wav,p245,f,5,19,6.0,7.0,RX81,6,0.0,0.0,7.0,77.341492931939,babble-reversed_n13_p229-five-p256-three-p307-one-p284-two-p268-eight-p245-six.wav,4,RX81,5,0.0,0.0,6.0,89.31368318402099,mgb_normalisation,89.31368318402099,90.34149293193902,2,2.0,True,1.999845266342163
,2024-06-25 12:05:44,1,3,distance,cathedral,spatial_unmasking,2,93,0,0,_five_,talker-p245_sex-f_text-_five_.wav,p245,f,5,20,6.0,7.0,RX81,6,0.0,0.0,7.0,76.34149293193902,babble-reversed_n13_p256-nine-p307-four-p229-one-p284-three-p248-two-p245-five.wav,4,RX81,5,0.0,0.0,6.0,89.31368318402099,mgb_normalisation,89.31368318402099,90.34149293193902,5,1.0,False,2.06234097480774
,2024-06-25 12:05:49,1,3,distance,cathedral,spatial_unmasking,2,94,0,0,_one_,talker-p245_sex-f_text-_one_.wav,p245,f,5,21,6.0,7.0,RX81,6,0.0,0.0,7.0,77.341492931939,babble-reversed_n13_p318-two-p307-three-p256-one-p284-nine-p248-six-p268-five.wav,4,RX81,5,0.0,0.0,6.0,89.31368318402099,mgb_normalisation,89.31368318402099,90.34149293193902,1,3.0,False,2.374870777130127
,2024-06-25 12:05:52,1,3,distance,cathedral,spatial_unmasking,2,95,0,0,_five_,talker-p245_sex-f_text-_five_.wav,p245,f,5,22,6.0,7.0,RX81,6,0.0,0.0,7.0,78.34149293193902,babble-reversed_n13_p229-five-p256-one-p318-three-p248-nine-p268-four-p284-eight.wav,4,RX81,5,0.0,0.0,6.0,89.31368318402099,mgb_normalisation,89.31368318402099,90.34149293193902,5,5.0,True,1.0624380111694336
,2024-06-25 12:05:56,1,3,distance,cathedral,spatial_unmasking,2,96,0,0,_four_,talker-p245_sex-f_text-_four_.wav,p245,f,5,23,6.0,7.0,RX81,6,0.0,0.0,7.0,77.34149293193903,babble-reversed_n13_p307-five-p229-three-p318-nine-p245-four-p268-eight-p284-two.wav,4,RX81,5,0.0,0.0,6.0,89.31368318402099,mgb_normalisation,89.31368318402099,90.34149293193902,4,4.0,True,2.0507378578186035
,2024-06-25 12:06:02,1,3,distance,cathedral,spatial_unmasking,2,97,0,0,_four_,talker-p245_sex-f_text-_four_.wav,p245,f,5,24,6.0,7.0,RX81,6,0.0,0.0,7.0,76.34149293193903,babble-reversed_n13_p307-two-p318-four-p256-five-p268-six-p248-nine-p284-one.wav,4,RX81,5,0.0,0.0,6.0,89.31368318402099,mgb_normalisation,89.31368318402099,90.34149293193902,4,2.0,False,2.812279224395752
,2024-06-25 12:06:06,1,3,distance,cathedral,spatial_unmasking,2,98,0,0,_one_,talker-p245_sex-f_text-_one_.wav,p245,f,5,25,6.0,7.0,RX81,6,0.0,0.0,7.0,77.341492931939,babble-reversed_n13_p229-five-p256-three-p318-nine-p248-two-p284-four-p268-one.wav,4,RX81,5,0.0,0.0,6.0,89.313683184021,mgb_normalisation,89.31368318402099,90.34149293193902,1,1.0,True,1.6874258518218994
,2024-06-25 12:06:10,1,3,distance,cathedral,spatial_unmasking,2,99,0,0,_three_,talker-p245_sex-f_text-_three_.wav,p245,f,5,26,6.0,7.0,RX81,6,0.0,0.0,7.0,76.34149293193902,babble-reversed_n13_p229-three-p307-one-p256-five-p248-four-p284-nine-p245-six.wav,4,RX81,5,0.0,0.0,6.0,89.313683184021,mgb_normalisation,89.31368318402099,90.34149293193902,3,2.0,False,1.812366962432861
,2024-06-25 12:06:14,1,3,distance,cathedral,spatial_unmasking,2,100,0,0,_one_,talker-p245_sex-f_text-_one_.wav,p245,f,5,27,6.0,7.0,RX81,6,0.0,0.0,7.0,77.341492931939,babble-reversed_n13_p307-five-p229-two-p318-four-p248-three-p245-nine-p268-eight.wav,4,RX81,5,0.0,0.0,6.0,89.31368318402099,mgb_normalisation,89.31368318402099,90.34149293193902,1,3.0,False,1.4373886585235596
,2024-06-25 12:06:17,1,3,distance,cathedral,spatial_unmasking,2,101,0,0,_five_,talker-p245_sex-f_text-_five_.wav,p245,f,5,28,6.0,7.0,RX81,6,0.0,0.0,7.0,78.34149293193902,babble-reversed_n13_p307-one-p318-five-p256-nine-p248-eight-p284-six-p245-three.wav,4,RX81,5,0.0,0.0,6.0,89.31368318402099,mgb_normalisation,89.31368318402099,90.34149293193902,5,5.0,True,0.999922513961792
,2024-06-25 12:06:20,1,3,distance,cathedral,spatial_unmasking,2,102,0,0,_one_,talker-p245_sex-f_text-_one_.wav,p245,f,5,29,6.0,7.0,RX81,6,0.0,0.0,7.0,77.341492931939,babble-reversed_n13_p229-one-p318-eight-p256-three-p268-nine-p248-five-p284-four.wav,4,RX81,5,0.0,0.0,6.0,89.31368318402099,mgb_normalisation,89.31368318402099,90.34149293193902,1,1.0,True,0.9374253749847412
,2024-06-25 12:06:26,1,3,distance,cathedral,spatial_unmasking,2,103,0,0,_five_,talker-p245_sex-f_text-_five_.wav,p245,f,5,30,6.0,7.0,RX81,6,0.0,0.0,7.0,76.34149293193902,babble-reversed_n13_p256-five-p307-nine-p318-three-p284-eight-p268-one-p248-two.wav,4,RX81,5,0.0,0.0,6.0,89.31368318402099,mgb_normalisation,89.31368318402099,90.34149293193902,5,3.0,False,2.9997706413269043
,2024-06-25 12:06:30,1,3,distance,cathedral,spatial_unmasking,2,104,0,0,_two_,talker-p245_sex-f_text-_two_.wav,p245,f,5,31,6.0,7.0,RX81,6,0.0,0.0,7.0,77.341492931939,babble-reversed_n13_p307-four-p318-three-p256-eight-p284-two-p245-nine-p248-five.wav,4,RX81,5,0.0,0.0,6.0,89.31368318402099,mgb_normalisation,89.31368318402099,90.34149293193902,2,3.0,False,1.6873700618743896
,2024-06-25 12:06:34,1,3,distance,cathedral,spatial_unmasking,2,105,0,0,_five_,talker-p245_sex-f_text-_five_.wav,p245,f,5,32,6.0,7.0,RX81,6,0.0,0.0,7.0,78.34149293193902,babble-reversed_n13_p256-nine-p307-four-p229-one-p284-three-p248-two-p245-five.wav,4,RX81,5,0.0,0.0,6.0,89.31368318402099,mgb_normalisation,89.31368318402099,90.34149293193902,5,1.0,False,1.62487530708313
,2024-06-25 12:06:38,1,3,distance,cathedral,spatial_unmasking,2,106,0,0,_one_,talker-p245_sex-f_text-_one_.wav,p245,f,5,33,6.0,7.0,RX81,6,0.0,0.0,7.0,79.341492931939,babble-reversed_n13_p229-five-p256-three-p318-nine-p248-two-p284-four-p268-one.wav,4,RX81,5,0.0,0.0,6.0,89.313683184021,mgb_normalisation,89.31368318402099,90.34149293193902,1,1.0,True,1.249903440475464
,2024-06-25 12:06:41,1,3,distance,cathedral,spatial_unmasking,3,107,0,0,_five_,talker-p245_sex-f_text-_five_.wav,p245,f,5,1,10.0,7.0,RX81,6,0.0,0.0,7.0,85.34149293193903,babble-reversed_n13_p256-five-p229-four-p307-nine-p268-eight-p284-two-p245-six.wav,8,RX81,9,0.0,0.0,10.0,92.0152836843556,mgb_normalisation,92.0152836843556,90.34149293193902,5,5.0,True,1.187408208847046
,2024-06-25 12:06:45,1,3,distance,cathedral,spatial_unmasking,3,108,0,0,_five_,talker-p245_sex-f_text-_five_.wav,p245,f,5,2,10.0,7.0,RX81,6,0.0,0.0,7.0,78.34149293193902,babble-reversed_n13_p318-five-p307-two-p256-three-p245-nine-p268-six-p248-four.wav,8,RX81,9,0.0,0.0,10.0,92.0152836843556,mgb_normalisation,92.0152836843556,90.34149293193902,5,5.0,True,1.124913215637207
,2024-06-25 12:06:50,1,3,distance,cathedral,spatial_unmasking,3,109,0,0,_four_,talker-p245_sex-f_text-_four_.wav,p245,f,5,3,10.0,7.0,RX81,6,0.0,0.0,7.0,71.34149293193903,babble-reversed_n13_p256-five-p229-one-p318-three-p248-nine-p284-eight-p268-two.wav,8,RX81,9,0.0,0.0,10.0,92.0152836843556,mgb_normalisation,92.0152836843556,90.34149293193902,4,4.0,True,2.437311172485352
,2024-06-25 12:06:56,1,3,distance,cathedral,spatial_unmasking,3,110,0,0,_three_,talker-p245_sex-f_text-_three_.wav,p245,f,5,4,10.0,7.0,RX81,6,0.0,0.0,7.0,64.34149293193902,babble-reversed_n13_p318-five-p229-three-p256-four-p268-eight-p248-one-p245-nine.wav,8,RX81,9,0.0,0.0,10.0,92.0152836843556,mgb_normalisation,92.0152836843556,90.34149293193902,3,2.0,False,3.749712228775024
,2024-06-25 12:07:00,1,3,distance,cathedral,spatial_unmasking,3,111,0,0,_one_,talker-p245_sex-f_text-_one_.wav,p245,f,5,5,10.0,7.0,RX81,6,0.0,0.0,7.0,69.341492931939,babble-reversed_n13_p229-five-p318-three-p307-two-p245-four-p284-nine-p248-eight.wav,8,RX81,9,0.0,0.0,10.0,92.0152836843556,mgb_normalisation,92.0152836843556,90.34149293193902,1,2.0,False,1.8123531341552728
,2024-06-25 12:07:04,1,3,distance,cathedral,spatial_unmasking,3,112,0,0,_two_,talker-p245_sex-f_text-_two_.wav,p245,f,5,6,10.0,7.0,RX81,6,0.0,0.0,7.0,74.341492931939,babble-reversed_n13_p256-five-p307-nine-p318-three-p284-eight-p268-one-p248-two.wav,8,RX81,9,0.0,0.0,10.0,92.0152836843556,mgb_normalisation,92.0152836843556,90.34149293193902,2,3.0,False,1.7498645782470703
,2024-06-25 12:07:08,1,3,distance,cathedral,spatial_unmasking,3,113,0,0,_two_,talker-p245_sex-f_text-_two_.wav,p245,f,5,7,10.0,7.0,RX81,6,0.0,0.0,7.0,79.341492931939,babble-reversed_n13_p307-four-p318-three-p256-eight-p284-two-p245-nine-p248-five.wav,8,RX81,9,0.0,0.0,10.0,92.0152836843556,mgb_normalisation,92.0152836843556,90.34149293193902,2,3.0,False,1.8748550415039065
,2024-06-25 12:07:12,1,3,distance,cathedral,spatial_unmasking,3,114,0,0,_two_,talker-p245_sex-f_text-_two_.wav,p245,f,5,8,10.0,7.0,RX81,6,0.0,0.0,7.0,84.341492931939,babble-reversed_n13_p229-two-p307-five-p318-four-p284-one-p248-nine-p268-eight.wav,8,RX81,9,0.0,0.0,10.0,92.0152836843556,mgb_normalisation,92.0152836843556,90.34149293193902,2,2.0,True,1.1874077320098877
,2024-06-25 12:07:15,1,3,distance,cathedral,spatial_unmasking,3,115,0,0,_five_,talker-p245_sex-f_text-_five_.wav,p245,f,5,9,10.0,7.0,RX81,6,0.0,0.0,7.0,81.34149293193902,babble-reversed_n13_p307-one-p318-five-p256-nine-p248-eight-p284-six-p245-three.wav,8,RX81,9,0.0,0.0,10.0,92.0152836843556,mgb_normalisation,92.0152836843556,90.34149293193902,5,5.0,True,0.8749332427978516
,2024-06-25 12:07:19,1,3,distance,cathedral,spatial_unmasking,3,116,0,0,_five_,talker-p245_sex-f_text-_five_.wav,p245,f,5,10,10.0,7.0,RX81,6,0.0,0.0,7.0,78.34149293193902,babble-reversed_n13_p256-four-p229-eight-p307-five-p248-three-p245-one-p284-two.wav,8,RX81,9,0.0,0.0,10.0,92.0152836843556,mgb_normalisation,92.0152836843556,90.34149293193902,5,5.0,True,0.9999234676361084
,2024-06-25 12:07:24,1,3,distance,cathedral,spatial_unmasking,3,117,0,0,_one_,talker-p245_sex-f_text-_one_.wav,p245,f,5,11,10.0,7.0,RX81,6,0.0,0.0,7.0,75.341492931939,babble-reversed_n13_p318-eight-p307-five-p229-four-p268-two-p245-six-p248-three.wav,8,RX81,9,0.0,0.0,10.0,92.0152836843556,mgb_normalisation,92.0152836843556,90.34149293193902,1,2.0,False,3.499729633331299
,2024-06-25 12:07:29,1,3,distance,cathedral,spatial_unmasking,3,118,0,0,_two_,talker-p245_sex-f_text-_two_.wav,p245,f,5,12,10.0,7.0,RX81,6,0.0,0.0,7.0,76.341492931939,babble-reversed_n13_p307-two-p318-four-p256-one-p248-nine-p245-six-p284-eight.wav,8,RX81,9,0.0,0.0,10.0,92.0152836843556,mgb_normalisation,92.0152836843556,90.34149293193902,2,2.0,True,1.8123435974121087
,2024-06-25 12:07:33,1,3,distance,cathedral,spatial_unmasking,3,119,0,0,_three_,talker-p245_sex-f_text-_three_.wav,p245,f,5,13,10.0,7.0,RX81,6,0.0,0.0,7.0,75.34149293193903,babble-reversed_n13_p307-five-p229-two-p318-four-p248-three-p245-nine-p268-eight.wav,8,RX81,9,0.0,0.0,10.0,92.0152836843556,mgb_normalisation,92.0152836843556,90.34149293193902,3,4.0,False,2.124835729598999
,2024-06-25 12:07:38,1,3,distance,cathedral,spatial_unmasking,3,120,0,0,_three_,talker-p245_sex-f_text-_three_.wav,p245,f,5,14,10.0,7.0,RX81,6,0.0,0.0,7.0,76.34149293193902,babble-reversed_n13_p307-one-p318-five-p256-nine-p248-eight-p284-six-p245-three.wav,8,RX81,9,0.0,0.0,10.0,92.0152836843556,mgb_normalisation,92.0152836843556,90.34149293193902,3,2.0,False,2.124835729598999
,2024-06-25 12:07:41,1,3,distance,cathedral,spatial_unmasking,3,121,0,0,_two_,talker-p245_sex-f_text-_two_.wav,p245,f,5,15,10.0,7.0,RX81,6,0.0,0.0,7.0,77.341492931939,babble-reversed_n13_p229-eight-p256-nine-p318-four-p245-three-p268-five-p284-two.wav,8,RX81,9,0.0,0.0,10.0,92.0152836843556,mgb_normalisation,92.0152836843556,90.34149293193902,2,2.0,True,1.1249146461486816
,2024-06-25 12:07:45,1,3,distance,cathedral,spatial_unmasking,3,122,0,0,_two_,talker-p245_sex-f_text-_two_.wav,p245,f,5,16,10.0,7.0,RX81,6,0.0,0.0,7.0,76.341492931939,babble-reversed_n13_p318-five-p229-three-p256-four-p268-eight-p248-one-p245-nine.wav,8,RX81,9,0.0,0.0,10.0,92.0152836843556,mgb_normalisation,92.0152836843556,90.34149293193902,2,2.0,True,1.1249141693115234
,2024-06-25 12:07:49,1,3,distance,cathedral,spatial_unmasking,3,123,0,0,_five_,talker-p245_sex-f_text-_five_.wav,p245,f,5,17,10.0,7.0,RX81,6,0.0,0.0,7.0,75.34149293193902,babble-reversed_n13_p307-two-p318-four-p256-five-p268-six-p248-nine-p284-one.wav,8,RX81,9,0.0,0.0,10.0,92.0152836843556,mgb_normalisation,92.0152836843556,90.34149293193902,5,1.0,False,1.874855756759644
,2024-06-25 12:07:54,1,3,distance,cathedral,spatial_unmasking,3,124,0,0,_two_,talker-p245_sex-f_text-_two_.wav,p245,f,5,18,10.0,7.0,RX81,6,0.0,0.0,7.0,76.341492931939,babble-reversed_n13_p307-two-p256-four-p318-three-p284-eight-p248-five-p245-nine.wav,8,RX81,9,0.0,0.0,10.0,92.0152836843556,mgb_normalisation,92.0152836843556,90.34149293193902,2,3.0,False,2.874778509140014
,2024-06-25 12:07:58,1,3,distance,cathedral,spatial_unmasking,3,125,0,0,_three_,talker-p245_sex-f_text-_three_.wav,p245,f,5,19,10.0,7.0,RX81,6,0.0,0.0,7.0,77.34149293193903,babble-reversed_n13_p229-eight-p256-nine-p318-four-p245-three-p268-five-p284-two.wav,8,RX81,9,0.0,0.0,10.0,92.0152836843556,mgb_normalisation,92.0152836843556,90.34149293193902,3,3.0,True,1.187408685684204
,2024-06-25 12:08:04,1,3,distance,cathedral,spatial_unmasking,3,126,0,0,_two_,talker-p245_sex-f_text-_two_.wav,p245,f,5,20,10.0,7.0,RX81,6,0.0,0.0,7.0,76.341492931939,babble-reversed_n13_p318-three-p307-one-p256-five-p248-nine-p245-two-p284-eight.wav,8,RX81,9,0.0,0.0,10.0,92.0152836843556,mgb_normalisation,92.0152836843556,90.34149293193902,2,2.0,True,3.499728918075561
,2024-06-25 12:08:09,1,3,distance,cathedral,spatial_unmasking,3,127,0,0,_one_,talker-p245_sex-f_text-_one_.wav,p245,f,5,21,10.0,7.0,RX81,6,0.0,0.0,7.0,75.341492931939,babble-reversed_n13_p318-five-p229-three-p256-four-p268-eight-p248-one-p245-nine.wav,8,RX81,9,0.0,0.0,10.0,92.0152836843556,mgb_normalisation,92.0152836843556,90.34149293193902,1,4.0,False,2.9372737407684326
,2024-06-25 12:08:17,1,3,distance,cathedral,spatial_unmasking,3,128,0,0,_three_,talker-p245_sex-f_text-_three_.wav,p245,f,5,22,10.0,7.0,RX81,6,0.0,0.0,7.0,76.34149293193902,babble-reversed_n13_p318-four-p256-five-p229-three-p284-one-p245-eight-p248-nine.wav,8,RX81,9,0.0,0.0,10.0,92.0152836843556,mgb_normalisation,92.0152836843556,90.34149293193902,3,5.0,False,5.43708086013794
,2024-06-25 12:08:21,1,3,distance,cathedral,spatial_unmasking,3,129,0,0,_two_,talker-p245_sex-f_text-_two_.wav,p245,f,5,23,10.0,7.0,RX81,6,0.0,0.0,7.0,77.341492931939,babble-reversed_n13_p307-one-p318-five-p256-nine-p248-eight-p284-six-p245-three.wav,8,RX81,9,0.0,0.0,10.0,92.0152836843556,mgb_normalisation,92.0152836843556,90.34149293193902,2,3.0,False,1.812299489974976
,2024-06-25 12:08:24,1,3,distance,cathedral,spatial_unmasking,3,130,0,0,_three_,talker-p245_sex-f_text-_three_.wav,p245,f,5,24,10.0,7.0,RX81,6,0.0,0.0,7.0,78.34149293193902,babble-reversed_n13_p318-nine-p229-two-p256-eight-p268-four-p284-six-p245-three.wav,8,RX81,9,0.0,0.0,10.0,92.0152836843556,mgb_normalisation,92.0152836843556,90.34149293193902,3,3.0,True,1.1874465942382812
,2024-06-25 12:08:29,1,3,distance,cathedral,spatial_unmasking,3,131,0,0,_five_,talker-p245_sex-f_text-_five_.wav,p245,f,5,25,10.0,7.0,RX81,6,0.0,0.0,7.0,77.34149293193902,babble-reversed_n13_p229-two-p307-five-p318-four-p284-one-p248-nine-p268-eight.wav,8,RX81,9,0.0,0.0,10.0,92.0152836843556,mgb_normalisation,92.0152836843556,90.34149293193902,5,2.0,False,1.874855279922485
,2024-06-25 12:08:33,1,3,distance,cathedral,spatial_unmasking,3,132,0,0,_five_,talker-p245_sex-f_text-_five_.wav,p245,f,5,26,10.0,7.0,RX81,6,0.0,0.0,7.0,78.34149293193902,babble-reversed_n13_p256-three-p318-two-p229-nine-p248-four-p284-one-p268-eight.wav,8,RX81,9,0.0,0.0,10.0,92.0152836843556,mgb_normalisation,92.0152836843556,90.34149293193902,5,3.0,False,1.5623791217803955
,2024-06-25 12:08:36,1,3,distance,cathedral,spatial_unmasking,3,133,0,0,_three_,talker-p245_sex-f_text-_three_.wav,p245,f,5,27,10.0,7.0,RX81,6,0.0,0.0,7.0,79.34149293193902,babble-reversed_n13_p229-nine-p307-five-p256-two-p248-three-p245-one-p268-eight.wav,8,RX81,9,0.0,0.0,10.0,92.0152836843556,mgb_normalisation,92.0152836843556,90.34149293193902,3,3.0,True,1.1874046325683594
,2024-06-25 12:08:40,1,3,distance,cathedral,spatial_unmasking,3,134,0,0,_one_,talker-p245_sex-f_text-_one_.wav,p245,f,5,28,10.0,7.0,RX81,6,0.0,0.0,7.0,78.341492931939,babble-reversed_n13_p229-nine-p318-one-p307-two-p248-eight-p245-five-p284-four.wav,8,RX81,9,0.0,0.0,10.0,92.0152836843556,mgb_normalisation,92.0152836843556,90.34149293193902,1,3.0,False,1.249903917312622
,2024-06-25 12:08:46,1,3,distance,cathedral,spatial_unmasking,3,135,0,0,_four_,talker-p245_sex-f_text-_four_.wav,p245,f,5,29,10.0,7.0,RX81,6,0.0,0.0,7.0,79.34149293193903,babble-reversed_n13_p229-nine-p307-five-p256-two-p248-three-p245-one-p268-eight.wav,8,RX81,9,0.0,0.0,10.0,92.0152836843556,mgb_normalisation,92.0152836843556,90.34149293193902,4,1.0,False,3.1872541904449463
,2024-06-25 12:08:50,1,3,distance,cathedral,spatial_unmasking,3,136,0,0,_one_,talker-p245_sex-f_text-_one_.wav,p245,f,5,30,10.0,7.0,RX81,6,0.0,0.0,7.0,80.341492931939,babble-reversed_n13_p229-five-p256-three-p318-nine-p248-two-p284-four-p268-one.wav,8,RX81,9,0.0,0.0,10.0,92.0152836843556,mgb_normalisation,92.0152836843556,90.34149293193902,1,1.0,True,2.374817371368408
,2024-06-25 12:08:55,1,3,distance,cathedral,spatial_unmasking,3,137,0,0,_one_,talker-p245_sex-f_text-_one_.wav,p245,f,5,31,10.0,7.0,RX81,6,0.0,0.0,7.0,79.341492931939,babble-reversed_n13_p256-five-p229-four-p307-nine-p268-eight-p284-two-p245-six.wav,8,RX81,9,0.0,0.0,10.0,92.0152836843556,mgb_normalisation,92.0152836843556,90.34149293193902,1,2.0,False,1.874792098999024
,2024-06-25 12:09:00,1,3,distance,cathedral,spatial_unmasking,3,138,0,0,_four_,talker-p245_sex-f_text-_four_.wav,p245,f,5,32,10.0,7.0,RX81,6,0.0,0.0,7.0,80.34149293193903,babble-reversed_n13_p229-three-p256-nine-p318-five-p248-one-p245-eight-p284-two.wav,8,RX81,9,0.0,0.0,10.0,92.0152836843556,mgb_normalisation,92.0152836843556,90.34149293193902,4,1.0,False,3.2497270107269287
,2024-06-25 12:09:03,1,3,distance,cathedral,spatial_unmasking,3,139,0,0,_five_,talker-p245_sex-f_text-_five_.wav,p245,f,5,33,10.0,7.0,RX81,6,0.0,0.0,7.0,81.34149293193902,babble-reversed_n13_p229-one-p318-nine-p256-four-p284-eight-p268-five-p245-two.wav,8,RX81,9,0.0,0.0,10.0,92.0152836843556,mgb_normalisation,92.0152836843556,90.34149293193902,5,5.0,True,0.8124368190765381
,2024-06-25 12:09:07,1,3,distance,cathedral,spatial_unmasking,4,140,0,0,_five_,talker-p245_sex-f_text-_five_.wav,p245,f,5,1,4.0,7.0,RX81,6,0.0,0.0,7.0,85.34149293193903,babble-reversed_n13_p256-five-p229-one-p318-three-p248-nine-p284-eight-p268-two.wav,2,RX81,3,0.0,0.0,4.0,87.57049330475357,mgb_normalisation,87.57049330475357,90.34149293193902,5,5.0,True,1.1249136924743652
,2024-06-25 12:09:10,1,3,distance,cathedral,spatial_unmasking,4,141,0,0,_two_,talker-p245_sex-f_text-_two_.wav,p245,f,5,2,4.0,7.0,RX81,6,0.0,0.0,7.0,78.341492931939,babble-reversed_n13_p307-two-p318-four-p256-one-p248-nine-p245-six-p284-eight.wav,2,RX81,3,0.0,0.0,4.0,87.57049330475357,mgb_normalisation,87.57049330475357,90.34149293193902,2,2.0,True,1.0624191761016846
,2024-06-25 12:09:15,1,3,distance,cathedral,spatial_unmasking,4,142,0,0,_five_,talker-p245_sex-f_text-_five_.wav,p245,f,5,3,4.0,7.0,RX81,6,0.0,0.0,7.0,71.34149293193902,babble-reversed_n13_p318-one-p307-two-p256-eight-p284-three-p248-five-p245-four.wav,2,RX81,3,0.0,0.0,4.0,87.57049330475357,mgb_normalisation,87.57049330475357,90.34149293193902,5,3.0,False,1.9998447895050049
,2024-06-25 12:09:18,1,3,distance,cathedral,spatial_unmasking,4,143,0,0,_three_,talker-p245_sex-f_text-_three_.wav,p245,f,5,4,4.0,7.0,RX81,6,0.0,0.0,7.0,76.34149293193902,babble-reversed_n13_p229-two-p256-three-p318-eight-p284-five-p268-four-p245-one.wav,2,RX81,3,0.0,0.0,4.0,87.57049330475357,mgb_normalisation,87.57049330475357,90.34149293193902,3,3.0,True,0.9374287128448486
,2024-06-25 12:09:21,1,3,distance,cathedral,spatial_unmasking,4,144,0,0,_two_,talker-p245_sex-f_text-_two_.wav,p245,f,5,5,4.0,7.0,RX81,6,0.0,0.0,7.0,73.341492931939,babble-reversed_n13_p307-nine-p229-one-p256-eight-p248-four-p284-two-p268-three.wav,2,RX81,3,0.0,0.0,4.0,87.57049330475357,mgb_normalisation,87.57049330475357,90.34149293193902,2,3.0,False,0.874931812286377
,2024-06-25 12:09:25,1,3,distance,cathedral,spatial_unmasking,4,145,0,0,_three_,talker-p245_sex-f_text-_three_.wav,p245,f,5,6,4.0,7.0,RX81,6,0.0,0.0,7.0,74.34149293193902,babble-reversed_n13_p318-five-p229-four-p256-eight-p284-one-p245-three-p248-two.wav,2,RX81,3,0.0,0.0,4.0,87.57049330475357,mgb_normalisation,87.57049330475357,90.34149293193902,3,3.0,True,0.9374279975891112
,2024-06-25 12:09:29,1,3,distance,cathedral,spatial_unmasking,4,146,0,0,_three_,talker-p245_sex-f_text-_three_.wav,p245,f,5,7,4.0,7.0,RX81,6,0.0,0.0,7.0,73.34149293193902,babble-reversed_n13_p307-five-p229-three-p318-nine-p245-four-p268-eight-p284-two.wav,2,RX81,3,0.0,0.0,4.0,87.57049330475355,mgb_normalisation,87.57049330475357,90.34149293193902,3,2.0,False,1.7498643398284912
,2024-06-25 12:09:33,1,3,distance,cathedral,spatial_unmasking,4,147,0,0,_two_,talker-p245_sex-f_text-_two_.wav,p245,f,5,8,4.0,7.0,RX81,6,0.0,0.0,7.0,74.341492931939,babble-reversed_n13_p256-nine-p307-one-p318-three-p248-two-p284-eight-p268-six.wav,2,RX81,3,0.0,0.0,4.0,87.57049330475357,mgb_normalisation,87.57049330475357,90.34149293193902,2,3.0,False,1.9998457431793213
,2024-06-25 12:09:38,1,3,distance,cathedral,spatial_unmasking,4,148,0,0,_four_,talker-p245_sex-f_text-_four_.wav,p245,f,5,9,4.0,7.0,RX81,6,0.0,0.0,7.0,75.34149293193903,babble-reversed_n13_p318-two-p307-three-p256-one-p284-nine-p248-six-p268-five.wav,2,RX81,3,0.0,0.0,4.0,87.57049330475357,mgb_normalisation,87.57049330475357,90.34149293193902,4,4.0,True,2.249826192855835
,2024-06-25 12:09:41,1,3,distance,cathedral,spatial_unmasking,4,149,0,0,_five_,talker-p245_sex-f_text-_five_.wav,p245,f,5,10,4.0,7.0,RX81,6,0.0,0.0,7.0,74.34149293193902,babble-reversed_n13_p307-one-p318-five-p256-nine-p248-eight-p284-six-p245-three.wav,2,RX81,3,0.0,0.0,4.0,87.57049330475355,mgb_normalisation,87.57049330475357,90.34149293193902,5,5.0,True,0.9374277591705322
,2024-06-25 12:09:46,1,3,distance,cathedral,spatial_unmasking,4,150,0,0,_one_,talker-p245_sex-f_text-_one_.wav,p245,f,5,11,4.0,7.0,RX81,6,0.0,0.0,7.0,73.341492931939,babble-reversed_n13_p307-nine-p229-one-p256-eight-p248-four-p284-two-p268-three.wav,2,RX81,3,0.0,0.0,4.0,87.57049330475357,mgb_normalisation,87.57049330475357,90.34149293193902,1,3.0,False,2.5623018741607666
,2024-06-25 12:09:50,1,3,distance,cathedral,spatial_unmasking,4,151,0,0,_one_,talker-p245_sex-f_text-_one_.wav,p245,f,5,12,4.0,7.0,RX81,6,0.0,0.0,7.0,74.341492931939,babble-reversed_n13_p307-two-p229-one-p256-five-p248-nine-p284-three-p268-eight.wav,2,RX81,3,0.0,0.0,4.0,87.57049330475357,mgb_normalisation,87.57049330475357,90.34149293193902,1,1.0,True,1.374895095825195
,2024-06-25 12:09:54,1,3,distance,cathedral,spatial_unmasking,4,152,0,0,_two_,talker-p245_sex-f_text-_two_.wav,p245,f,5,13,4.0,7.0,RX81,6,0.0,0.0,7.0,73.341492931939,babble-reversed_n13_p307-five-p229-three-p318-nine-p245-four-p268-eight-p284-two.wav,2,RX81,3,0.0,0.0,4.0,87.57049330475355,mgb_normalisation,87.57049330475357,90.34149293193902,2,2.0,True,1.374894142150879
,2024-06-25 12:09:58,1,3,distance,cathedral,spatial_unmasking,4,153,0,0,_two_,talker-p245_sex-f_text-_two_.wav,p245,f,5,14,4.0,7.0,RX81,6,0.0,0.0,7.0,72.341492931939,babble-reversed_n13_p229-two-p256-three-p318-eight-p284-five-p268-four-p245-one.wav,2,RX81,3,0.0,0.0,4.0,87.57049330475357,mgb_normalisation,87.57049330475357,90.34149293193902,2,3.0,False,1.3748936653137207
,2024-06-25 12:10:02,1,3,distance,cathedral,spatial_unmasking,4,154,0,0,_five_,talker-p245_sex-f_text-_five_.wav,p245,f,5,15,4.0,7.0,RX81,6,0.0,0.0,7.0,73.34149293193902,babble-reversed_n13_p256-nine-p307-four-p229-one-p284-three-p248-two-p245-five.wav,2,RX81,3,0.0,0.0,4.0,87.57049330475357,mgb_normalisation,87.57049330475357,90.34149293193902,5,2.0,False,1.812360048294068
,2024-06-25 12:10:07,1,3,distance,cathedral,spatial_unmasking,4,155,0,0,_five_,talker-p245_sex-f_text-_five_.wav,p245,f,5,16,4.0,7.0,RX81,6,0.0,0.0,7.0,74.34149293193902,babble-reversed_n13_p256-nine-p307-one-p318-three-p248-two-p284-eight-p268-six.wav,2,RX81,3,0.0,0.0,4.0,87.57049330475357,mgb_normalisation,87.57049330475357,90.34149293193902,5,5.0,True,2.8122830390930176
,2024-06-25 12:10:15,1,3,distance,cathedral,spatial_unmasking,4,156,0,0,_one_,talker-p245_sex-f_text-_one_.wav,p245,f,5,17,4.0,7.0,RX81,6,0.0,0.0,7.0,73.341492931939,babble-reversed_n13_p256-eight-p229-three-p307-nine-p245-five-p248-four-p268-two.wav,2,RX81,3,0.0,0.0,4.0,87.57049330475355,mgb_normalisation,87.57049330475357,90.34149293193902,1,4.0,False,6.062051773071289
,2024-06-25 12:10:19,1,3,distance,cathedral,spatial_unmasking,4,157,0,0,_three_,talker-p245_sex-f_text-_three_.wav,p245,f,5,18,4.0,7.0,RX81,6,0.0,0.0,7.0,74.34149293193902,babble-reversed_n13_p307-five-p229-three-p318-nine-p245-four-p268-eight-p284-two.wav,2,RX81,3,0.0,0.0,4.0,87.57049330475355,mgb_normalisation,87.57049330475357,90.34149293193902,3,3.0,True,1.6248748302459717
,2024-06-25 12:10:25,1,3,distance,cathedral,spatial_unmasking,4,158,0,0,_one_,talker-p245_sex-f_text-_one_.wav,p245,f,5,19,4.0,7.0,RX81,6,0.0,0.0,7.0,73.341492931939,babble-reversed_n13_p307-two-p229-three-p256-one-p284-five-p268-six-p248-nine.wav,2,RX81,3,0.0,0.0,4.0,87.57049330475355,mgb_normalisation,87.57049330475357,90.34149293193902,1,1.0,True,3.1872551441192627
,2024-06-25 12:10:30,1,3,distance,cathedral,spatial_unmasking,4,159,0,0,_one_,talker-p245_sex-f_text-_one_.wav,p245,f,5,20,4.0,7.0,RX81,6,0.0,0.0,7.0,72.341492931939,babble-reversed_n13_p307-two-p318-four-p256-one-p248-nine-p245-six-p284-eight.wav,2,RX81,3,0.0,0.0,4.0,87.57049330475357,mgb_normalisation,87.57049330475357,90.34149293193902,1,2.0,False,2.7497875690460205
,2024-06-25 12:10:35,1,3,distance,cathedral,spatial_unmasking,4,160,0,0,_three_,talker-p245_sex-f_text-_three_.wav,p245,f,5,21,4.0,7.0,RX81,6,0.0,0.0,7.0,73.34149293193902,babble-reversed_n13_p229-five-p256-one-p318-three-p248-nine-p268-four-p284-eight.wav,2,RX81,3,0.0,0.0,4.0,87.57049330475355,mgb_normalisation,87.57049330475357,90.34149293193902,3,4.0,False,2.6247975826263428
,2024-06-25 12:10:41,1,3,distance,cathedral,spatial_unmasking,4,161,0,0,_four_,talker-p245_sex-f_text-_four_.wav,p245,f,5,22,4.0,7.0,RX81,6,0.0,0.0,7.0,74.34149293193903,babble-reversed_n13_p229-one-p318-nine-p256-four-p284-eight-p268-five-p245-two.wav,2,RX81,3,0.0,0.0,4.0,87.57049330475357,mgb_normalisation,87.57049330475357,90.34149293193902,4,2.0,False,3.312244415283203
,2024-06-25 12:10:45,1,3,distance,cathedral,spatial_unmasking,4,162,0,0,_one_,talker-p245_sex-f_text-_one_.wav,p245,f,5,23,4.0,7.0,RX81,6,0.0,0.0,7.0,75.341492931939,babble-reversed_n13_p229-one-p318-eight-p256-three-p268-two-p245-five-p248-nine.wav,2,RX81,3,0.0,0.0,4.0,87.57049330475355,mgb_normalisation,87.57049330475357,90.34149293193902,1,3.0,False,1.8748586177825928
,2024-06-25 12:10:49,1,3,distance,cathedral,spatial_unmasking,4,163,0,0,_two_,talker-p245_sex-f_text-_two_.wav,p245,f,5,24,4.0,7.0,RX81,6,0.0,0.0,7.0,76.341492931939,babble-reversed_n13_p256-four-p229-eight-p307-five-p248-three-p245-one-p284-two.wav,2,RX81,3,0.0,0.0,4.0,87.57049330475355,mgb_normalisation,87.57049330475357,90.34149293193902,2,3.0,False,1.312398910522461
,2024-06-25 12:10:53,1,3,distance,cathedral,spatial_unmasking,4,164,0,0,_one_,talker-p245_sex-f_text-_one_.wav,p245,f,5,25,4.0,7.0,RX81,6,0.0,0.0,7.0,77.341492931939,babble-reversed_n13_p307-five-p229-three-p318-nine-p245-four-p268-eight-p284-two.wav,2,RX81,3,0.0,0.0,4.0,87.57049330475355,mgb_normalisation,87.57049330475357,90.34149293193902,1,2.0,False,1.499877691268921
,2024-06-25 12:10:57,1,3,distance,cathedral,spatial_unmasking,4,165,0,0,_three_,talker-p245_sex-f_text-_three_.wav,p245,f,5,26,4.0,7.0,RX81,6,0.0,0.0,7.0,78.34149293193902,babble-reversed_n13_p318-five-p256-nine-p307-two-p245-eight-p248-one-p284-four.wav,2,RX81,3,0.0,0.0,4.0,87.57049330475357,mgb_normalisation,87.57049330475357,90.34149293193902,3,4.0,False,1.937350273132324
,2024-06-25 12:11:01,1,3,distance,cathedral,spatial_unmasking,4,166,0,0,_three_,talker-p245_sex-f_text-_three_.wav,p245,f,5,27,4.0,7.0,RX81,6,0.0,0.0,7.0,79.34149293193902,babble-reversed_n13_p229-three-p256-nine-p318-five-p248-one-p245-eight-p284-two.wav,2,RX81,3,0.0,0.0,4.0,87.57049330475357,mgb_normalisation,87.57049330475357,90.34149293193902,3,3.0,True,1.9373509883880613
,2024-06-25 12:11:06,1,3,distance,cathedral,spatial_unmasking,4,167,0,0,_one_,talker-p245_sex-f_text-_one_.wav,p245,f,5,28,4.0,7.0,RX81,6,0.0,0.0,7.0,78.341492931939,babble-reversed_n13_p229-two-p318-eight-p256-three-p268-one-p248-nine-p284-five.wav,2,RX81,3,0.0,0.0,4.0,87.57049330475355,mgb_normalisation,87.57049330475357,90.34149293193902,1,2.0,False,2.499807119369507
,2024-06-25 12:11:10,1,3,distance,cathedral,spatial_unmasking,4,168,0,0,_four_,talker-p245_sex-f_text-_four_.wav,p245,f,5,29,4.0,7.0,RX81,6,0.0,0.0,7.0,79.34149293193903,babble-reversed_n13_p318-five-p229-four-p256-eight-p284-one-p245-three-p248-two.wav,2,RX81,3,0.0,0.0,4.0,87.57049330475357,mgb_normalisation,87.57049330475357,90.34149293193902,4,4.0,True,1.2499032020568848
,2024-06-25 12:11:13,1,3,distance,cathedral,spatial_unmasking,5,169,0,0,_four_,talker-p245_sex-f_text-_four_.wav,p245,f,5,1,8.0,7.0,RX81,6,0.0,0.0,7.0,85.34149293193903,babble-reversed_n13_p256-eight-p318-five-p307-four-p245-three-p268-one-p284-nine.wav,6,RX81,7,0.0,0.0,8.0,91.58892582949886,mgb_normalisation,91.58892582949886,90.34149293193902,4,4.0,True,0.9374275207519532
,2024-06-25 12:11:18,1,3,distance,cathedral,spatial_unmasking,5,170,0,0,_four_,talker-p245_sex-f_text-_four_.wav,p245,f,5,2,8.0,7.0,RX81,6,0.0,0.0,7.0,78.34149293193902,babble-reversed_n13_p318-five-p229-three-p256-four-p268-eight-p248-one-p245-nine.wav,6,RX81,7,0.0,0.0,8.0,91.58892582949888,mgb_normalisation,91.58892582949886,90.34149293193902,4,2.0,False,2.4373116493225098
,2024-06-25 12:11:22,1,3,distance,cathedral,spatial_unmasking,5,171,0,0,_four_,talker-p245_sex-f_text-_four_.wav,p245,f,5,3,8.0,7.0,RX81,6,0.0,0.0,7.0,83.34149293193903,babble-reversed_n13_p229-one-p318-eight-p256-three-p268-nine-p248-five-p284-four.wav,6,RX81,7,0.0,0.0,8.0,91.58892582949886,mgb_normalisation,91.58892582949886,90.34149293193902,4,4.0,True,1.249903678894043
,2024-06-25 12:11:25,1,3,distance,cathedral,spatial_unmasking,5,172,0,0,_two_,talker-p245_sex-f_text-_two_.wav,p245,f,5,4,8.0,7.0,RX81,6,0.0,0.0,7.0,80.341492931939,babble-reversed_n13_p318-four-p256-five-p229-three-p284-one-p245-eight-p248-nine.wav,6,RX81,7,0.0,0.0,8.0,91.58892582949888,mgb_normalisation,91.58892582949886,90.34149293193902,2,2.0,True,0.9999220371246338
,2024-06-25 12:11:28,1,3,distance,cathedral,spatial_unmasking,5,173,0,0,_three_,talker-p245_sex-f_text-_three_.wav,p245,f,5,5,8.0,7.0,RX81,6,0.0,0.0,7.0,77.34149293193903,babble-reversed_n13_p229-five-p256-three-p307-one-p284-two-p268-eight-p245-six.wav,6,RX81,7,0.0,0.0,8.0,91.58892582949886,mgb_normalisation,91.58892582949886,90.34149293193902,3,3.0,True,1.0624175071716309
,2024-06-25 12:11:33,1,3,distance,cathedral,spatial_unmasking,5,174,0,0,_two_,talker-p245_sex-f_text-_two_.wav,p245,f,5,6,8.0,7.0,RX81,6,0.0,0.0,7.0,74.341492931939,babble-reversed_n13_p318-five-p229-three-p256-four-p268-eight-p248-one-p245-nine.wav,6,RX81,7,0.0,0.0,8.0,91.58892582949888,mgb_normalisation,91.58892582949886,90.34149293193902,2,2.0,True,1.999845027923584
,2024-06-25 12:11:38,1,3,distance,cathedral,spatial_unmasking,5,175,0,0,_five_,talker-p245_sex-f_text-_five_.wav,p245,f,5,7,8.0,7.0,RX81,6,0.0,0.0,7.0,71.34149293193902,babble-reversed_n13_p229-two-p318-eight-p256-three-p268-one-p248-nine-p284-five.wav,6,RX81,7,0.0,0.0,8.0,91.58892582949886,mgb_normalisation,91.58892582949886,90.34149293193902,5,5.0,True,2.499807357788086
,2024-06-25 12:11:41,1,3,distance,cathedral,spatial_unmasking,5,176,0,0,_five_,talker-p245_sex-f_text-_five_.wav,p245,f,5,8,8.0,7.0,RX81,6,0.0,0.0,7.0,68.34149293193902,babble-reversed_n13_p307-two-p229-one-p256-five-p248-nine-p284-three-p268-eight.wav,6,RX81,7,0.0,0.0,8.0,91.58892582949888,mgb_normalisation,91.58892582949886,90.34149293193902,5,1.0,False,1.3748939037322998
,2024-06-25 12:11:46,1,3,distance,cathedral,spatial_unmasking,5,177,0,0,_two_,talker-p245_sex-f_text-_two_.wav,p245,f,5,9,8.0,7.0,RX81,6,0.0,0.0,7.0,69.341492931939,babble-reversed_n13_p229-five-p256-six-p307-three-p248-eight-p245-two-p284-four.wav,6,RX81,7,0.0,0.0,8.0,91.58892582949888,mgb_normalisation,91.58892582949886,90.34149293193902,2,3.0,False,1.937349796295166
,2024-06-25 12:11:51,1,3,distance,cathedral,spatial_unmasking,5,178,0,0,_two_,talker-p245_sex-f_text-_two_.wav,p245,f,5,10,8.0,7.0,RX81,6,0.0,0.0,7.0,70.341492931939,babble-reversed_n13_p307-four-p318-three-p256-eight-p284-two-p245-nine-p248-five.wav,6,RX81,7,0.0,0.0,8.0,91.58892582949886,mgb_normalisation,91.58892582949886,90.34149293193902,2,3.0,False,2.749786138534546
,2024-06-25 12:11:55,1,3,distance,cathedral,spatial_unmasking,5,179,0,0,_five_,talker-p245_sex-f_text-_five_.wav,p245,f,5,11,8.0,7.0,RX81,6,0.0,0.0,7.0,71.34149293193902,babble-reversed_n13_p229-three-p256-one-p307-two-p284-eight-p268-five-p248-nine.wav,6,RX81,7,0.0,0.0,8.0,91.58892582949888,mgb_normalisation,91.58892582949886,90.34149293193902,5,5.0,True,2.062344551086426
,2024-06-25 12:12:01,1,3,distance,cathedral,spatial_unmasking,5,180,0,0,_two_,talker-p245_sex-f_text-_two_.wav,p245,f,5,12,8.0,7.0,RX81,6,0.0,0.0,7.0,70.341492931939,babble-reversed_n13_p256-five-p318-nine-p229-eight-p284-two-p248-six-p245-four.wav,6,RX81,7,0.0,0.0,8.0,91.58892582949886,mgb_normalisation,91.58892582949886,90.34149293193902,2,4.0,False,2.812288999557495
,2024-06-25 12:12:07,1,3,distance,cathedral,spatial_unmasking,5,181,0,0,_five_,talker-p245_sex-f_text-_five_.wav,p245,f,5,13,8.0,7.0,RX81,6,0.0,0.0,7.0,71.34149293193902,babble-reversed_n13_p256-eight-p229-three-p307-nine-p245-five-p248-four-p268-two.wav,6,RX81,7,0.0,0.0,8.0,91.58892582949886,mgb_normalisation,91.58892582949886,90.34149293193902,5,2.0,False,3.99970006942749
,2024-06-25 12:12:14,1,3,distance,cathedral,spatial_unmasking,5,182,0,0,_five_,talker-p245_sex-f_text-_five_.wav,p245,f,5,14,8.0,7.0,RX81,6,0.0,0.0,7.0,72.34149293193902,babble-reversed_n13_p229-nine-p256-four-p318-three-p268-eight-p248-two-p284-five.wav,6,RX81,7,0.0,0.0,8.0,91.58892582949888,mgb_normalisation,91.58892582949886,90.34149293193902,5,5.0,True,4.937192916870117
,2024-06-25 12:12:19,1,3,distance,cathedral,spatial_unmasking,5,183,0,0,_two_,talker-p245_sex-f_text-_two_.wav,p245,f,5,15,8.0,7.0,RX81,6,0.0,0.0,7.0,71.341492931939,babble-reversed_n13_p256-nine-p307-four-p229-one-p284-three-p248-two-p245-five.wav,6,RX81,7,0.0,0.0,8.0,91.58892582949888,mgb_normalisation,91.58892582949886,90.34149293193902,2,2.0,True,1.999850273132324
,2024-06-25 12:12:23,1,3,distance,cathedral,spatial_unmasking,5,184,0,0,_one_,talker-p245_sex-f_text-_one_.wav,p245,f,5,16,8.0,7.0,RX81,6,0.0,0.0,7.0,70.341492931939,babble-reversed_n13_p318-five-p307-two-p256-three-p245-nine-p268-six-p248-four.wav,6,RX81,7,0.0,0.0,8.0,91.58892582949886,mgb_normalisation,91.58892582949886,90.34149293193902,1,4.0,False,2.249830722808838
,2024-06-25 12:12:27,1,3,distance,cathedral,spatial_unmasking,5,185,0,0,_one_,talker-p245_sex-f_text-_one_.wav,p245,f,5,17,8.0,7.0,RX81,6,0.0,0.0,7.0,71.34149293193902,babble-reversed_n13_p307-eight-p256-one-p318-nine-p245-three-p248-four-p268-six.wav,6,RX81,7,0.0,0.0,8.0,91.58892582949888,mgb_normalisation,91.58892582949886,90.34149293193902,1,4.0,False,1.1249780654907229
,2024-06-25 12:12:32,1,3,distance,cathedral,spatial_unmasking,5,186,0,0,_three_,talker-p245_sex-f_text-_three_.wav,p245,f,5,18,8.0,7.0,RX81,6,0.0,0.0,7.0,72.34149293193903,babble-reversed_n13_p229-eight-p256-nine-p318-four-p245-three-p268-five-p284-two.wav,6,RX81,7,0.0,0.0,8.0,91.58892582949886,mgb_normalisation,91.58892582949886,90.34149293193902,3,1.0,False,2.9372806549072266
,2024-06-25 12:12:37,1,3,distance,cathedral,spatial_unmasking,5,187,0,0,_five_,talker-p245_sex-f_text-_five_.wav,p245,f,5,19,8.0,7.0,RX81,6,0.0,0.0,7.0,73.34149293193902,babble-reversed_n13_p229-one-p318-nine-p256-four-p284-eight-p268-five-p245-two.wav,6,RX81,7,0.0,0.0,8.0,91.58892582949886,mgb_normalisation,91.58892582949886,90.34149293193902,5,1.0,False,2.499812602996826
,2024-06-25 12:12:41,1,3,distance,cathedral,spatial_unmasking,5,188,0,0,_five_,talker-p245_sex-f_text-_five_.wav,p245,f,5,20,8.0,7.0,RX81,6,0.0,0.0,7.0,74.34149293193902,babble-reversed_n13_p256-five-p229-one-p318-three-p248-nine-p284-eight-p268-two.wav,6,RX81,7,0.0,0.0,8.0,91.58892582949888,mgb_normalisation,91.58892582949886,90.34149293193902,5,5.0,True,1.437391996383667
,2024-06-25 12:12:45,1,3,distance,cathedral,spatial_unmasking,5,189,0,0,_two_,talker-p245_sex-f_text-_two_.wav,p245,f,5,21,8.0,7.0,RX81,6,0.0,0.0,7.0,73.341492931939,babble-reversed_n13_p256-four-p307-eight-p318-two-p248-three-p284-nine-p268-one.wav,6,RX81,7,0.0,0.0,8.0,91.58892582949888,mgb_normalisation,91.58892582949886,90.34149293193902,2,2.0,True,1.6248784065246582
,2024-06-25 12:12:48,1,3,distance,cathedral,spatial_unmasking,5,190,0,0,_four_,talker-p245_sex-f_text-_four_.wav,p245,f,5,22,8.0,7.0,RX81,6,0.0,0.0,7.0,72.34149293193903,babble-reversed_n13_p229-one-p318-eight-p256-three-p268-nine-p248-five-p284-four.wav,6,RX81,7,0.0,0.0,8.0,91.58892582949886,mgb_normalisation,91.58892582949886,90.34149293193902,4,4.0,True,1.0623571872711182
,2024-06-25 12:12:52,1,3,distance,cathedral,spatial_unmasking,5,191,0,0,_three_,talker-p245_sex-f_text-_three_.wav,p245,f,5,23,8.0,7.0,RX81,6,0.0,0.0,7.0,71.34149293193902,babble-reversed_n13_p256-four-p229-two-p318-five-p268-one-p248-eight-p245-three.wav,6,RX81,7,0.0,0.0,8.0,91.58892582949886,mgb_normalisation,91.58892582949886,90.34149293193902,3,1.0,False,1.5623843669891355
,2024-06-25 12:12:57,1,3,distance,cathedral,spatial_unmasking,5,192,0,0,_three_,talker-p245_sex-f_text-_three_.wav,p245,f,5,24,8.0,7.0,RX81,6,0.0,0.0,7.0,72.34149293193903,babble-reversed_n13_p229-five-p256-six-p307-three-p248-eight-p245-two-p284-four.wav,6,RX81,7,0.0,0.0,8.0,91.58892582949888,mgb_normalisation,91.58892582949886,90.34149293193902,3,2.0,False,2.249831438064575
,2024-06-25 12:13:01,1,3,distance,cathedral,spatial_unmasking,5,193,0,0,_one_,talker-p245_sex-f_text-_one_.wav,p245,f,5,25,8.0,7.0,RX81,6,0.0,0.0,7.0,73.341492931939,babble-reversed_n13_p256-four-p229-two-p318-five-p268-one-p248-eight-p245-three.wav,6,RX81,7,0.0,0.0,8.0,91.58892582949886,mgb_normalisation,91.58892582949886,90.34149293193902,1,1.0,True,1.3124024868011477
,2024-06-25 12:13:06,1,3,distance,cathedral,spatial_unmasking,5,194,0,0,_one_,talker-p245_sex-f_text-_one_.wav,p245,f,5,26,8.0,7.0,RX81,6,0.0,0.0,7.0,72.341492931939,babble-reversed_n13_p229-three-p307-one-p318-two-p245-eight-p268-five-p284-four.wav,6,RX81,7,0.0,0.0,8.0,91.58892582949888,mgb_normalisation,91.58892582949886,90.34149293193902,1,4.0,False,3.0622079372406006
,2024-06-25 12:13:10,1,3,distance,cathedral,spatial_unmasking,5,195,0,0,_five_,talker-p245_sex-f_text-_five_.wav,p245,f,5,27,8.0,7.0,RX81,6,0.0,0.0,7.0,73.34149293193902,babble-reversed_n13_p229-five-p256-three-p307-one-p284-two-p268-eight-p245-six.wav,6,RX81,7,0.0,0.0,8.0,91.58892582949886,mgb_normalisation,91.58892582949886,90.34149293193902,5,2.0,False,1.3124024868011477
,2024-06-25 12:13:15,1,3,distance,cathedral,spatial_unmasking,5,196,0,0,_five_,talker-p245_sex-f_text-_five_.wav,p245,f,5,28,8.0,7.0,RX81,6,0.0,0.0,7.0,74.34149293193902,babble-reversed_n13_p229-three-p256-nine-p318-five-p248-one-p245-eight-p284-two.wav,6,RX81,7,0.0,0.0,8.0,91.58892582949888,mgb_normalisation,91.58892582949886,90.34149293193902,5,3.0,False,2.749794006347656
,2024-06-25 12:13:19,1,3,distance,cathedral,spatial_unmasking,5,197,0,0,_three_,talker-p245_sex-f_text-_three_.wav,p245,f,5,29,8.0,7.0,RX81,6,0.0,0.0,7.0,75.34149293193903,babble-reversed_n13_p229-five-p318-two-p307-eight-p268-three-p248-four-p245-one.wav,6,RX81,7,0.0,0.0,8.0,91.58892582949888,mgb_normalisation,91.58892582949886,90.34149293193902,3,2.0,False,2.187335252761841
,2024-06-25 12:13:25,1,3,distance,cathedral,spatial_unmasking,5,198,0,0,_one_,talker-p245_sex-f_text-_one_.wav,p245,f,5,30,8.0,7.0,RX81,6,0.0,0.0,7.0,76.34149293193902,babble-reversed_n13_p307-two-p229-one-p256-five-p248-nine-p284-three-p268-eight.wav,6,RX81,7,0.0,0.0,8.0,91.58892582949888,mgb_normalisation,91.58892582949886,90.34149293193902,1,3.0,False,2.9372799396514893
,2024-06-25 12:13:28,1,3,distance,cathedral,spatial_unmasking,5,199,0,0,_five_,talker-p245_sex-f_text-_five_.wav,p245,f,5,31,8.0,7.0,RX81,6,0.0,0.0,7.0,77.34149293193902,babble-reversed_n13_p256-four-p229-eight-p307-five-p248-three-p245-one-p284-two.wav,6,RX81,7,0.0,0.0,8.0,91.58892582949886,mgb_normalisation,91.58892582949886,90.34149293193902,5,3.0,False,1.2499089241027832
,2024-06-25 12:13:32,1,3,distance,cathedral,spatial_unmasking,5,200,0,0,_five_,talker-p245_sex-f_text-_five_.wav,p245,f,5,32,8.0,7.0,RX81,6,0.0,0.0,7.0,78.34149293193902,babble-reversed_n13_p229-one-p318-eight-p256-three-p268-nine-p248-five-p284-four.wav,6,RX81,7,0.0,0.0,8.0,91.58892582949886,mgb_normalisation,91.58892582949886,90.34149293193902,5,5.0,True,0.9374024868011476
,2024-06-25 12:13:37,1,3,distance,cathedral,spatial_unmasking,5,201,0,0,_three_,talker-p245_sex-f_text-_three_.wav,p245,f,5,33,8.0,7.0,RX81,6,0.0,0.0,7.0,77.34149293193903,babble-reversed_n13_p229-three-p256-four-p307-nine-p248-five-p284-two-p268-six.wav,6,RX81,7,0.0,0.0,8.0,91.58892582949886,mgb_normalisation,91.58892582949886,90.34149293193902,3,2.0,False,2.3748233318328857
,2024-06-25 12:13:43,1,3,distance,cathedral,spatial_unmasking,5,202,0,0,_four_,talker-p245_sex-f_text-_four_.wav,p245,f,5,34,8.0,7.0,RX81,6,0.0,0.0,7.0,78.34149293193902,babble-reversed_n13_p256-four-p307-eight-p318-two-p248-three-p284-nine-p268-one.wav,6,RX81,7,0.0,0.0,8.0,91.58892582949888,mgb_normalisation,91.58892582949886,90.34149293193902,4,4.0,True,4.1871864795684814
,2024-06-25 12:13:48,1,3,distance,cathedral,spatial_unmasking,5,203,0,0,_four_,talker-p245_sex-f_text-_four_.wav,p245,f,5,35,8.0,7.0,RX81,6,0.0,0.0,7.0,77.34149293193903,babble-reversed_n13_p256-four-p229-eight-p307-five-p248-three-p245-one-p284-two.wav,6,RX81,7,0.0,0.0,8.0,91.58892582949886,mgb_normalisation,91.58892582949886,90.34149293193902,4,2.0,False,2.12484097480774
,2024-06-25 12:13:52,1,3,distance,cathedral,spatial_unmasking,5,204,0,0,_three_,talker-p245_sex-f_text-_three_.wav,p245,f,5,36,8.0,7.0,RX81,6,0.0,0.0,7.0,78.34149293193902,babble-reversed_n13_p318-nine-p256-five-p307-eight-p268-three-p248-one-p245-four.wav,6,RX81,7,0.0,0.0,8.0,91.58892582949888,mgb_normalisation,91.58892582949886,90.34149293193902,3,3.0,True,2.0624098777771
,2024-06-25 12:13:56,1,3,distance,cathedral,spatial_unmasking,6,205,0,0,_five_,talker-p245_sex-f_text-_five_.wav,p245,f,5,1,7.0,7.0,RX81,6,0.0,0.0,7.0,85.34149293193903,babble-reversed_n13_p256-eight-p318-two-p307-five-p245-four-p268-nine-p284-one.wav,5,RX81,6,0.0,0.0,7.0,90.34149293193904,mgb_normalisation,90.34149293193902,90.34149293193902,5,5.0,True,1.4998877048492432
,2024-06-25 12:14:00,1,3,distance,cathedral,spatial_unmasking,6,206,0,0,_four_,talker-p245_sex-f_text-_four_.wav,p245,f,5,2,7.0,7.0,RX81,6,0.0,0.0,7.0,78.34149293193902,babble-reversed_n13_p318-nine-p307-eight-p229-two-p284-one-p248-three-p245-five.wav,5,RX81,6,0.0,0.0,7.0,90.34149293193904,mgb_normalisation,90.34149293193902,90.34149293193902,4,4.0,True,1.687373399734497
,2024-06-25 12:14:04,1,3,distance,cathedral,spatial_unmasking,6,207,0,0,_two_,talker-p245_sex-f_text-_two_.wav,p245,f,5,3,7.0,7.0,RX81,6,0.0,0.0,7.0,71.341492931939,babble-reversed_n13_p256-five-p318-nine-p229-eight-p284-two-p248-six-p245-four.wav,5,RX81,6,0.0,0.0,7.0,90.341492931939,mgb_normalisation,90.34149293193902,90.34149293193902,2,2.0,True,1.749868631362915
,2024-06-25 12:14:09,1,3,distance,cathedral,spatial_unmasking,6,208,0,0,_four_,talker-p245_sex-f_text-_four_.wav,p245,f,5,4,7.0,7.0,RX81,6,0.0,0.0,7.0,64.34149293193903,babble-reversed_n13_p318-eight-p307-five-p229-four-p268-two-p245-six-p248-three.wav,5,RX81,6,0.0,0.0,7.0,90.34149293193904,mgb_normalisation,90.34149293193902,90.34149293193902,4,3.0,False,3.249756336212158
,2024-06-25 12:14:13,1,3,distance,cathedral,spatial_unmasking,6,209,0,0,_one_,talker-p245_sex-f_text-_one_.wav,p245,f,5,5,7.0,7.0,RX81,6,0.0,0.0,7.0,69.341492931939,babble-reversed_n13_p318-five-p256-nine-p307-eight-p248-two-p245-four-p284-three.wav,5,RX81,6,0.0,0.0,7.0,90.34149293193904,mgb_normalisation,90.34149293193902,90.34149293193902,1,2.0,False,1.1874110698699951
,2024-06-25 12:14:17,1,3,distance,cathedral,spatial_unmasking,6,210,0,0,_one_,talker-p245_sex-f_text-_one_.wav,p245,f,5,6,7.0,7.0,RX81,6,0.0,0.0,7.0,74.341492931939,babble-reversed_n13_p318-five-p256-nine-p307-two-p245-eight-p248-one-p284-four.wav,5,RX81,6,0.0,0.0,7.0,90.34149293193904,mgb_normalisation,90.34149293193902,90.34149293193902,1,4.0,False,1.9373548030853271
,2024-06-25 12:14:20,1,3,distance,cathedral,spatial_unmasking,6,211,0,0,_five_,talker-p245_sex-f_text-_five_.wav,p245,f,5,7,7.0,7.0,RX81,6,0.0,0.0,7.0,79.34149293193902,babble-reversed_n13_p307-two-p229-one-p256-five-p248-nine-p284-three-p268-eight.wav,5,RX81,6,0.0,0.0,7.0,90.34149293193904,mgb_normalisation,90.34149293193902,90.34149293193902,5,5.0,True,0.8749303817749023
,2024-06-25 12:14:24,1,3,distance,cathedral,spatial_unmasking,6,212,0,0,_two_,talker-p245_sex-f_text-_two_.wav,p245,f,5,8,7.0,7.0,RX81,6,0.0,0.0,7.0,76.341492931939,babble-reversed_n13_p229-five-p318-three-p307-two-p245-four-p284-nine-p248-eight.wav,5,RX81,6,0.0,0.0,7.0,90.34149293193904,mgb_normalisation,90.34149293193902,90.34149293193902,2,2.0,True,1.4999055862426758
,2024-06-25 12:14:29,1,3,distance,cathedral,spatial_unmasking,6,213,0,0,_two_,talker-p245_sex-f_text-_two_.wav,p245,f,5,9,7.0,7.0,RX81,6,0.0,0.0,7.0,73.341492931939,babble-reversed_n13_p256-nine-p307-four-p229-one-p284-three-p248-two-p245-five.wav,5,RX81,6,0.0,0.0,7.0,90.34149293193904,mgb_normalisation,90.34149293193902,90.34149293193902,2,3.0,False,2.9997754096984863
,2024-06-25 12:14:33,1,3,distance,cathedral,spatial_unmasking,6,214,0,0,_one_,talker-p245_sex-f_text-_one_.wav,p245,f,5,10,7.0,7.0,RX81,6,0.0,0.0,7.0,74.341492931939,babble-reversed_n13_p318-nine-p307-eight-p229-two-p284-one-p248-three-p245-five.wav,5,RX81,6,0.0,0.0,7.0,90.34149293193904,mgb_normalisation,90.34149293193902,90.34149293193902,1,1.0,True,1.374897003173828
,2024-06-25 12:14:37,1,3,distance,cathedral,spatial_unmasking,6,215,0,0,_two_,talker-p245_sex-f_text-_two_.wav,p245,f,5,11,7.0,7.0,RX81,6,0.0,0.0,7.0,73.341492931939,babble-reversed_n13_p229-three-p307-one-p256-five-p248-four-p284-nine-p245-six.wav,5,RX81,6,0.0,0.0,7.0,90.34149293193904,mgb_normalisation,90.34149293193902,90.34149293193902,2,2.0,True,2.0623412132263184
,2024-06-25 12:14:41,1,3,distance,cathedral,spatial_unmasking,6,216,0,0,_one_,talker-p245_sex-f_text-_one_.wav,p245,f,5,12,7.0,7.0,RX81,6,0.0,0.0,7.0,72.341492931939,babble-reversed_n13_p318-one-p307-two-p256-eight-p284-three-p248-five-p245-four.wav,5,RX81,6,0.0,0.0,7.0,90.34149293193904,mgb_normalisation,90.34149293193902,90.34149293193902,1,4.0,False,1.6248784065246582
,2024-06-25 12:14:45,1,3,distance,cathedral,spatial_unmasking,6,217,0,0,_three_,talker-p245_sex-f_text-_three_.wav,p245,f,5,13,7.0,7.0,RX81,6,0.0,0.0,7.0,73.34149293193902,babble-reversed_n13_p229-five-p318-two-p307-eight-p268-three-p248-four-p245-one.wav,5,RX81,6,0.0,0.0,7.0,90.34149293193904,mgb_normalisation,90.34149293193902,90.34149293193902,3,2.0,False,1.6873736381530762
,2024-06-25 12:14:49,1,3,distance,cathedral,spatial_unmasking,6,218,0,0,_three_,talker-p245_sex-f_text-_three_.wav,p245,f,5,14,7.0,7.0,RX81,6,0.0,0.0,7.0,74.34149293193902,babble-reversed_n13_p318-four-p256-five-p229-three-p284-one-p245-eight-p248-nine.wav,5,RX81,6,0.0,0.0,7.0,90.34149293193904,mgb_normalisation,90.34149293193902,90.34149293193902,3,1.0,False,1.3124275207519531
,2024-06-25 12:14:52,1,3,distance,cathedral,spatial_unmasking,6,219,0,0,_four_,talker-p245_sex-f_text-_four_.wav,p245,f,5,15,7.0,7.0,RX81,6,0.0,0.0,7.0,75.34149293193903,babble-reversed_n13_p256-four-p229-eight-p307-five-p248-three-p245-one-p284-two.wav,5,RX81,6,0.0,0.0,7.0,90.341492931939,mgb_normalisation,90.34149293193902,90.34149293193902,4,3.0,False,1.0624206066131592
,2024-06-25 12:14:57,1,3,distance,cathedral,spatial_unmasking,6,220,0,0,_two_,talker-p245_sex-f_text-_two_.wav,p245,f,5,16,7.0,7.0,RX81,6,0.0,0.0,7.0,76.341492931939,babble-reversed_n13_p256-five-p307-nine-p318-three-p284-eight-p268-one-p248-two.wav,5,RX81,6,0.0,0.0,7.0,90.34149293193904,mgb_normalisation,90.34149293193902,90.34149293193902,2,2.0,True,2.3123011589050293
,2024-06-25 12:15:01,1,3,distance,cathedral,spatial_unmasking,6,221,0,0,_five_,talker-p245_sex-f_text-_five_.wav,p245,f,5,17,7.0,7.0,RX81,6,0.0,0.0,7.0,75.34149293193902,babble-reversed_n13_p318-five-p256-nine-p307-two-p245-eight-p248-one-p284-four.wav,5,RX81,6,0.0,0.0,7.0,90.34149293193904,mgb_normalisation,90.34149293193902,90.34149293193902,5,1.0,False,1.999850034713745
,2024-06-25 12:15:05,1,3,distance,cathedral,spatial_unmasking,6,222,0,0,_one_,talker-p245_sex-f_text-_one_.wav,p245,f,5,18,7.0,7.0,RX81,6,0.0,0.0,7.0,76.34149293193902,babble-reversed_n13_p256-eight-p229-three-p307-nine-p245-five-p248-four-p268-two.wav,5,RX81,6,0.0,0.0,7.0,90.341492931939,mgb_normalisation,90.34149293193902,90.34149293193902,1,3.0,False,1.8748595714569087
,2024-06-25 12:15:09,1,3,distance,cathedral,spatial_unmasking,6,223,0,0,_one_,talker-p245_sex-f_text-_one_.wav,p245,f,5,19,7.0,7.0,RX81,6,0.0,0.0,7.0,77.341492931939,babble-reversed_n13_p229-one-p318-nine-p256-four-p284-eight-p268-five-p245-two.wav,5,RX81,6,0.0,0.0,7.0,90.34149293193904,mgb_normalisation,90.34149293193902,90.34149293193902,1,1.0,True,1.8748900890350344
,2024-06-25 12:15:13,1,3,distance,cathedral,spatial_unmasking,6,224,0,0,_two_,talker-p245_sex-f_text-_two_.wav,p245,f,5,20,7.0,7.0,RX81,6,0.0,0.0,7.0,76.341492931939,babble-reversed_n13_p318-five-p229-four-p256-eight-p284-one-p245-three-p248-two.wav,5,RX81,6,0.0,0.0,7.0,90.34149293193904,mgb_normalisation,90.34149293193902,90.34149293193902,2,2.0,True,1.187410593032837
,2024-06-25 12:15:17,1,3,distance,cathedral,spatial_unmasking,6,225,0,0,_five_,talker-p245_sex-f_text-_five_.wav,p245,f,5,21,7.0,7.0,RX81,6,0.0,0.0,7.0,75.34149293193902,babble-reversed_n13_p318-five-p256-nine-p307-eight-p248-two-p245-four-p284-three.wav,5,RX81,6,0.0,0.0,7.0,90.34149293193904,mgb_normalisation,90.34149293193902,90.34149293193902,5,5.0,True,1.4373924732208252
,2024-06-25 12:15:20,1,3,distance,cathedral,spatial_unmasking,6,226,0,0,_four_,talker-p245_sex-f_text-_four_.wav,p245,f,5,22,7.0,7.0,RX81,6,0.0,0.0,7.0,74.34149293193903,babble-reversed_n13_p229-five-p256-three-p318-nine-p248-two-p284-four-p268-one.wav,5,RX81,6,0.0,0.0,7.0,90.34149293193904,mgb_normalisation,90.34149293193902,90.34149293193902,4,1.0,False,1.437391996383667
,2024-06-25 12:15:25,1,3,distance,cathedral,spatial_unmasking,6,227,0,0,_five_,talker-p245_sex-f_text-_five_.wav,p245,f,5,23,7.0,7.0,RX81,6,0.0,0.0,7.0,75.34149293193902,babble-reversed_n13_p318-four-p256-five-p229-three-p284-one-p245-eight-p248-nine.wav,5,RX81,6,0.0,0.0,7.0,90.34149293193904,mgb_normalisation,90.34149293193902,90.34149293193902,5,3.0,False,2.687298536300659
,2024-06-25 12:15:29,1,3,distance,cathedral,spatial_unmasking,6,228,0,0,_two_,talker-p245_sex-f_text-_two_.wav,p245,f,5,24,7.0,7.0,RX81,6,0.0,0.0,7.0,76.341492931939,babble-reversed_n13_p229-three-p256-one-p307-two-p284-eight-p268-five-p248-nine.wav,5,RX81,6,0.0,0.0,7.0,90.34149293193904,mgb_normalisation,90.34149293193902,90.34149293193902,2,1.0,False,1.2499067783355713
,2024-06-25 12:15:34,1,3,distance,cathedral,spatial_unmasking,6,229,0,0,_two_,talker-p245_sex-f_text-_two_.wav,p245,f,5,25,7.0,7.0,RX81,6,0.0,0.0,7.0,77.341492931939,babble-reversed_n13_p307-two-p229-three-p256-one-p284-five-p268-six-p248-nine.wav,5,RX81,6,0.0,0.0,7.0,90.341492931939,mgb_normalisation,90.34149293193902,90.34149293193902,2,1.0,False,2.937279224395752
,2024-06-25 12:15:38,1,3,distance,cathedral,spatial_unmasking,6,230,0,0,_five_,talker-p245_sex-f_text-_five_.wav,p245,f,5,26,7.0,7.0,RX81,6,0.0,0.0,7.0,78.34149293193902,babble-reversed_n13_p318-nine-p229-two-p256-eight-p268-four-p284-six-p245-three.wav,5,RX81,6,0.0,0.0,7.0,90.34149293193904,mgb_normalisation,90.34149293193902,90.34149293193902,5,5.0,True,1.2499055862426758
,2024-06-25 12:15:43,1,3,distance,cathedral,spatial_unmasking,6,231,0,0,_four_,talker-p245_sex-f_text-_four_.wav,p245,f,5,27,7.0,7.0,RX81,6,0.0,0.0,7.0,77.34149293193903,babble-reversed_n13_p307-four-p318-three-p256-eight-p284-two-p245-nine-p248-five.wav,5,RX81,6,0.0,0.0,7.0,90.341492931939,mgb_normalisation,90.34149293193902,90.34149293193902,4,4.0,True,3.0622708797454834
,2024-06-25 12:15:46,1,3,distance,cathedral,spatial_unmasking,6,232,0,0,_five_,talker-p245_sex-f_text-_five_.wav,p245,f,5,28,7.0,7.0,RX81,6,0.0,0.0,7.0,76.34149293193902,babble-reversed_n13_p307-five-p229-three-p318-nine-p245-four-p268-eight-p284-two.wav,5,RX81,6,0.0,0.0,7.0,90.341492931939,mgb_normalisation,90.34149293193902,90.34149293193902,5,5.0,True,0.9999256134033204
,2024-06-25 12:15:50,1,3,distance,cathedral,spatial_unmasking,6,233,0,0,_five_,talker-p245_sex-f_text-_five_.wav,p245,f,5,29,7.0,7.0,RX81,6,0.0,0.0,7.0,75.34149293193902,babble-reversed_n13_p229-five-p256-one-p318-three-p248-nine-p268-four-p284-eight.wav,5,RX81,6,0.0,0.0,7.0,90.341492931939,mgb_normalisation,90.34149293193902,90.34149293193902,5,5.0,True,0.9999239444732666
,2024-06-25 12:15:57,1,3,distance,cathedral,spatial_unmasking,6,234,0,0,_five_,talker-p245_sex-f_text-_five_.wav,p245,f,5,30,7.0,7.0,RX81,6,0.0,0.0,7.0,74.34149293193902,babble-reversed_n13_p318-five-p229-three-p256-four-p268-eight-p248-one-p245-nine.wav,5,RX81,6,0.0,0.0,7.0,90.34149293193904,mgb_normalisation,90.34149293193902,90.34149293193902,5,1.0,False,4.690179824829102
,2024-06-25 12:16:02,1,3,distance,cathedral,spatial_unmasking,6,235,0,0,_one_,talker-p245_sex-f_text-_one_.wav,p245,f,5,31,7.0,7.0,RX81,6,0.0,0.0,7.0,75.341492931939,babble-reversed_n13_p307-nine-p318-four-p229-five-p268-one-p245-eight-p284-six.wav,5,RX81,6,0.0,0.0,7.0,90.34149293193904,mgb_normalisation,90.34149293193902,90.34149293193902,1,4.0,False,2.9997751712799072
,2024-06-25 12:16:06,1,3,distance,cathedral,spatial_unmasking,6,236,0,0,_four_,talker-p245_sex-f_text-_four_.wav,p245,f,5,32,7.0,7.0,RX81,6,0.0,0.0,7.0,76.34149293193903,babble-reversed_n13_p256-three-p318-two-p229-nine-p248-four-p284-one-p268-eight.wav,5,RX81,6,0.0,0.0,7.0,90.341492931939,mgb_normalisation,90.34149293193902,90.34149293193902,4,3.0,False,1.437392234802246
,2024-06-25 12:16:09,1,3,distance,cathedral,spatial_unmasking,6,237,0,0,_four_,talker-p245_sex-f_text-_four_.wav,p245,f,5,33,7.0,7.0,RX81,6,0.0,0.0,7.0,77.34149293193903,babble-reversed_n13_p307-eight-p256-one-p318-nine-p245-three-p248-four-p268-six.wav,5,RX81,6,0.0,0.0,7.0,90.34149293193904,mgb_normalisation,90.34149293193902,90.34149293193902,4,4.0,True,1.3748962879180908
,2024-06-25 12:16:14,1,3,distance,cathedral,spatial_unmasking,6,238,0,0,_one_,talker-p245_sex-f_text-_one_.wav,p245,f,5,34,7.0,7.0,RX81,6,0.0,0.0,7.0,76.34149293193902,babble-reversed_n13_p256-eight-p318-five-p307-four-p245-three-p268-one-p284-nine.wav,5,RX81,6,0.0,0.0,7.0,90.341492931939,mgb_normalisation,90.34149293193902,90.34149293193902,1,3.0,False,2.3748867511749268
,2024-06-25 12:16:17,1,3,distance,cathedral,spatial_unmasking,6,239,0,0,_five_,talker-p245_sex-f_text-_five_.wav,p245,f,5,35,7.0,7.0,RX81,6,0.0,0.0,7.0,77.34149293193902,babble-reversed_n13_p256-nine-p307-four-p229-one-p284-three-p248-two-p245-five.wav,5,RX81,6,0.0,0.0,7.0,90.34149293193904,mgb_normalisation,90.34149293193902,90.34149293193902,5,5.0,True,1.187410593032837
,2024-06-25 12:16:22,1,3,distance,cathedral,spatial_unmasking,6,240,0,0,_three_,talker-p245_sex-f_text-_three_.wav,p245,f,5,36,7.0,7.0,RX81,6,0.0,0.0,7.0,76.34149293193902,babble-reversed_n13_p318-three-p307-one-p256-five-p248-nine-p245-two-p284-eight.wav,5,RX81,6,0.0,0.0,7.0,90.34149293193904,mgb_normalisation,90.34149293193902,90.34149293193902,3,1.0,False,2.374821186065674
,2024-06-25 12:16:26,1,3,distance,cathedral,spatial_unmasking,6,241,0,0,_five_,talker-p245_sex-f_text-_five_.wav,p245,f,5,37,7.0,7.0,RX81,6,0.0,0.0,7.0,77.34149293193902,babble-reversed_n13_p318-one-p307-two-p256-eight-p284-three-p248-five-p245-four.wav,5,RX81,6,0.0,0.0,7.0,90.34149293193903,mgb_normalisation,90.34149293193902,90.34149293193902,5,5.0,True,1.5623860359191895
