event_id,timestamp,subject_id,session_index,plane,setup,task,block,trial_index,headpose_offset_azi,headpose_offset_ele,target_number,target_filename,target_talker,target_sex,target_speaker_id,step_number:,distance_masker,distance_target,target_speaker_proc,target_speaker_chan,target_speaker_azi,target_speaker_ele,target_speaker_dist,target_stim_level,masker_filename,masker_speaker_id,masker_speaker_proc,masker_speaker_chan,masker_speaker_azi,masker_speaker_ele,masker_speaker_dist,masker_stim_level,normalisation_method,normalisation_level_masker,normalisation_level_target,played_number,resp_number,is_correct,reaction_time
,2024-08-07 12:25:28,sub_103_collocated,3,distance,cathedral,spatial_unmasking,1,0,0,0,_five_,talker-p245_sex-f_text-_five_.wav,p245,f,5,1,6.0,7.0,RX81,6,0.0,0.0,7.0,92.34149293193902,babble-reversed_n13_p229-one-p318-eight-p256-three-p268-two-p245-five-p248-nine.wav,4,RX81,5,0.0,0.0,6.0,89.31368318402099,mgb_normalisation,89.31368318402099,90.34149293193902,5,5.0,True,1.265537977218628
,2024-08-07 12:25:32,sub_103_collocated,3,distance,cathedral,spatial_unmasking,1,1,0,0,_one_,talker-p245_sex-f_text-_one_.wav,p245,f,5,2,6.0,7.0,RX81,6,0.0,0.0,7.0,88.34149293193902,babble-reversed_n13_p229-two-p256-three-p318-eight-p284-five-p268-four-p245-one.wav,4,RX81,5,0.0,0.0,6.0,89.31368318402099,mgb_normalisation,89.31368318402099,90.34149293193902,1,1.0,True,1.0624268054962158
,2024-08-07 12:25:35,sub_103_collocated,3,distance,cathedral,spatial_unmasking,1,2,0,0,_five_,talker-p245_sex-f_text-_five_.wav,p245,f,5,3,6.0,7.0,RX81,6,0.0,0.0,7.0,84.341492931939,babble-reversed_n13_p307-nine-p318-two-p256-one-p245-three-p268-four-p248-eight.wav,4,RX81,5,0.0,0.0,6.0,89.31368318402099,mgb_normalisation,89.31368318402099,90.34149293193902,5,5.0,True,1.2030415534973145
,2024-08-07 12:25:39,sub_103_collocated,3,distance,cathedral,spatial_unmasking,1,3,0,0,_six_,talker-p245_sex-f_text-_six_.wav,p245,f,5,4,6.0,7.0,RX81,6,0.0,0.0,7.0,80.341492931939,babble-reversed_n13_p229-nine-p256-four-p318-three-p268-eight-p248-two-p284-five.wav,4,RX81,5,0.0,0.0,6.0,89.31368318402099,mgb_normalisation,89.31368318402099,90.34149293193902,6,6.0,True,1.0624258518218994
,2024-08-07 12:25:43,sub_103_collocated,3,distance,cathedral,spatial_unmasking,1,4,0,0,_two_,talker-p245_sex-f_text-_two_.wav,p245,f,5,5,6.0,7.0,RX81,6,0.0,0.0,7.0,76.341492931939,babble-reversed_n13_p229-nine-p318-one-p307-two-p248-eight-p245-five-p284-four.wav,4,RX81,5,0.0,0.0,6.0,89.31368318402099,mgb_normalisation,89.31368318402099,90.34149293193902,2,2.0,True,1.3905267715454102
,2024-08-07 12:25:48,sub_103_collocated,3,distance,cathedral,spatial_unmasking,1,5,0,0,_nine_,talker-p245_sex-f_text-_nine_.wav,p245,f,5,6,6.0,7.0,RX81,6,0.0,0.0,7.0,72.34149293193902,babble-reversed_n13_p307-five-p229-three-p318-nine-p245-four-p268-eight-p284-two.wav,4,RX81,5,0.0,0.0,6.0,89.31368318402099,mgb_normalisation,89.31368318402099,90.34149293193902,9,1.0,False,1.5155184268951416
,2024-08-07 12:25:52,sub_103_collocated,3,distance,cathedral,spatial_unmasking,1,6,0,0,_nine_,talker-p245_sex-f_text-_nine_.wav,p245,f,5,7,6.0,7.0,RX81,6,0.0,0.0,7.0,74.34149293193902,babble-reversed_n13_p256-nine-p307-four-p229-one-p284-three-p248-two-p245-five.wav,4,RX81,5,0.0,0.0,6.0,89.31368318402099,mgb_normalisation,89.31368318402099,90.34149293193902,9,9.0,True,1.7655036449432373
,2024-08-07 12:25:58,sub_103_collocated,3,distance,cathedral,spatial_unmasking,1,7,0,0,_two_,talker-p245_sex-f_text-_two_.wav,p245,f,5,8,6.0,7.0,RX81,6,0.0,0.0,7.0,74.341492931939,babble-reversed_n13_p256-four-p229-eight-p307-five-p248-three-p245-one-p284-two.wav,4,RX81,5,0.0,0.0,6.0,89.31368318402099,mgb_normalisation,89.31368318402099,90.34149293193902,2,1.0,False,3.234149932861328
,2024-08-07 12:26:02,sub_103_collocated,3,distance,cathedral,spatial_unmasking,1,8,0,0,_three_,talker-p245_sex-f_text-_three_.wav,p245,f,5,9,6.0,7.0,RX81,6,0.0,0.0,7.0,76.34149293193902,babble-reversed_n13_p229-nine-p307-five-p256-two-p248-three-p245-one-p268-eight.wav,4,RX81,5,0.0,0.0,6.0,89.31368318402099,mgb_normalisation,89.31368318402099,90.34149293193902,3,3.0,True,1.3749051094055176
,2024-08-07 12:26:05,sub_103_collocated,3,distance,cathedral,spatial_unmasking,1,9,0,0,_six_,talker-p245_sex-f_text-_six_.wav,p245,f,5,10,6.0,7.0,RX81,6,0.0,0.0,7.0,76.34149293193902,babble-reversed_n13_p229-two-p318-eight-p256-three-p268-one-p248-nine-p284-five.wav,4,RX81,5,0.0,0.0,6.0,89.31368318402099,mgb_normalisation,89.31368318402099,90.34149293193902,6,2.0,False,0.90618634223938
,2024-08-07 12:26:12,sub_103_collocated,3,distance,cathedral,spatial_unmasking,1,10,0,0,_six_,talker-p245_sex-f_text-_six_.wav,p245,f,5,11,6.0,7.0,RX81,6,0.0,0.0,7.0,78.34149293193902,babble-reversed_n13_p318-three-p229-one-p256-eight-p245-five-p248-four-p284-nine.wav,4,RX81,5,0.0,0.0,6.0,89.313683184021,mgb_normalisation,89.31368318402099,90.34149293193902,6,6.0,True,3.468508720397949
,2024-08-07 12:26:17,sub_103_collocated,3,distance,cathedral,spatial_unmasking,1,11,0,0,_nine_,talker-p245_sex-f_text-_nine_.wav,p245,f,5,12,6.0,7.0,RX81,6,0.0,0.0,7.0,78.34149293193902,babble-reversed_n13_p307-nine-p229-one-p256-eight-p248-four-p284-two-p268-three.wav,4,RX81,5,0.0,0.0,6.0,89.31368318402099,mgb_normalisation,89.31368318402099,90.34149293193902,9,3.0,False,1.6405107975006104
,2024-08-07 12:26:20,sub_103_collocated,3,distance,cathedral,spatial_unmasking,1,12,0,0,_two_,talker-p245_sex-f_text-_two_.wav,p245,f,5,13,6.0,7.0,RX81,6,0.0,0.0,7.0,80.341492931939,babble-reversed_n13_p229-nine-p307-five-p256-two-p248-three-p245-one-p268-eight.wav,4,RX81,5,0.0,0.0,6.0,89.31368318402099,mgb_normalisation,89.31368318402099,90.34149293193902,2,2.0,True,1.2030415534973145
,2024-08-07 12:26:26,sub_103_collocated,3,distance,cathedral,spatial_unmasking,1,13,0,0,_four_,talker-p245_sex-f_text-_four_.wav,p245,f,5,14,6.0,7.0,RX81,6,0.0,0.0,7.0,80.34149293193903,babble-reversed_n13_p256-five-p307-nine-p318-three-p284-eight-p268-one-p248-two.wav,4,RX81,5,0.0,0.0,6.0,89.31368318402099,mgb_normalisation,89.31368318402099,90.34149293193902,4,4.0,True,3.234150648117065
,2024-08-07 12:26:31,sub_103_collocated,3,distance,cathedral,spatial_unmasking,1,14,0,0,_one_,talker-p245_sex-f_text-_one_.wav,p245,f,5,15,6.0,7.0,RX81,6,0.0,0.0,7.0,78.341492931939,babble-reversed_n13_p307-five-p229-three-p318-nine-p245-four-p268-eight-p284-two.wav,4,RX81,5,0.0,0.0,6.0,89.31368318402099,mgb_normalisation,89.31368318402099,90.34149293193902,1,5.0,False,2.2185966968536377
,2024-08-07 12:26:35,sub_103_collocated,3,distance,cathedral,spatial_unmasking,1,15,0,0,_one_,talker-p245_sex-f_text-_one_.wav,p245,f,5,16,6.0,7.0,RX81,6,0.0,0.0,7.0,79.341492931939,babble-reversed_n13_p229-five-p256-three-p318-nine-p248-two-p284-four-p268-one.wav,4,RX81,5,0.0,0.0,6.0,89.313683184021,mgb_normalisation,89.31368318402099,90.34149293193902,1,3.0,False,1.3124096393585205
,2024-08-07 12:26:40,sub_103_collocated,3,distance,cathedral,spatial_unmasking,1,16,0,0,_two_,talker-p245_sex-f_text-_two_.wav,p245,f,5,17,6.0,7.0,RX81,6,0.0,0.0,7.0,80.341492931939,babble-reversed_n13_p318-four-p256-five-p229-three-p284-one-p245-eight-p248-nine.wav,4,RX81,5,0.0,0.0,6.0,89.31368318402099,mgb_normalisation,89.31368318402099,90.34149293193902,2,6.0,False,1.9842369556427
,2024-08-07 12:26:44,sub_103_collocated,3,distance,cathedral,spatial_unmasking,1,17,0,0,_four_,talker-p245_sex-f_text-_four_.wav,p245,f,5,18,6.0,7.0,RX81,6,0.0,0.0,7.0,81.34149293193902,babble-reversed_n13_p318-five-p229-four-p256-eight-p284-one-p245-three-p248-two.wav,4,RX81,5,0.0,0.0,6.0,89.31368318402099,mgb_normalisation,89.31368318402099,90.34149293193902,4,4.0,True,1.0936737060546875
,2024-08-07 12:26:49,sub_103_collocated,3,distance,cathedral,spatial_unmasking,1,18,0,0,_nine_,talker-p245_sex-f_text-_nine_.wav,p245,f,5,19,6.0,7.0,RX81,6,0.0,0.0,7.0,81.34149293193902,babble-reversed_n13_p318-five-p229-four-p256-eight-p284-one-p245-three-p248-two.wav,4,RX81,5,0.0,0.0,6.0,89.31368318402099,mgb_normalisation,89.31368318402099,90.34149293193902,9,6.0,False,2.7810566425323486
,2024-08-07 12:26:53,sub_103_collocated,3,distance,cathedral,spatial_unmasking,1,19,0,0,_nine_,talker-p245_sex-f_text-_nine_.wav,p245,f,5,20,6.0,7.0,RX81,6,0.0,0.0,7.0,82.34149293193902,babble-reversed_n13_p307-two-p256-four-p318-three-p284-eight-p248-five-p245-nine.wav,4,RX81,5,0.0,0.0,6.0,89.313683184021,mgb_normalisation,89.31368318402099,90.34149293193902,9,8.0,False,1.3280320167541504
,2024-08-07 12:26:57,sub_103_collocated,3,distance,cathedral,spatial_unmasking,1,20,0,0,_six_,talker-p245_sex-f_text-_six_.wav,p245,f,5,21,6.0,7.0,RX81,6,0.0,0.0,7.0,83.34149293193902,babble-reversed_n13_p318-five-p256-nine-p307-eight-p248-two-p245-four-p284-three.wav,4,RX81,5,0.0,0.0,6.0,89.31368318402099,mgb_normalisation,89.31368318402099,90.34149293193902,6,6.0,True,1.1874170303344729
,2024-08-07 12:27:02,sub_103_collocated,3,distance,cathedral,spatial_unmasking,1,21,0,0,_nine_,talker-p245_sex-f_text-_nine_.wav,p245,f,5,22,6.0,7.0,RX81,6,0.0,0.0,7.0,83.34149293193902,babble-reversed_n13_p307-four-p318-three-p256-eight-p284-two-p245-nine-p248-five.wav,4,RX81,5,0.0,0.0,6.0,89.31368318402099,mgb_normalisation,89.31368318402099,90.34149293193902,9,8.0,False,2.3748350143432617
,2024-08-07 12:27:07,sub_103_collocated,3,distance,cathedral,spatial_unmasking,1,22,0,0,_one_,talker-p245_sex-f_text-_one_.wav,p245,f,5,23,6.0,7.0,RX81,6,0.0,0.0,7.0,84.341492931939,babble-reversed_n13_p256-two-p307-five-p318-nine-p248-eight-p245-four-p284-one.wav,4,RX81,5,0.0,0.0,6.0,89.31368318402099,mgb_normalisation,89.31368318402099,90.34149293193902,1,1.0,True,1.6561355590820312
,2024-08-07 12:27:10,sub_103_collocated,3,distance,cathedral,spatial_unmasking,1,23,0,0,_two_,talker-p245_sex-f_text-_two_.wav,p245,f,5,24,6.0,7.0,RX81,6,0.0,0.0,7.0,84.341492931939,babble-reversed_n13_p307-four-p318-three-p256-eight-p284-two-p245-nine-p248-five.wav,4,RX81,5,0.0,0.0,6.0,89.31368318402099,mgb_normalisation,89.31368318402099,90.34149293193902,2,2.0,True,0.9530584812164308
,2024-08-07 12:27:16,sub_103_collocated,3,distance,cathedral,spatial_unmasking,1,24,0,0,_four_,talker-p245_sex-f_text-_four_.wav,p245,f,5,25,6.0,7.0,RX81,6,0.0,0.0,7.0,83.34149293193903,babble-reversed_n13_p229-one-p318-eight-p256-three-p268-two-p245-five-p248-nine.wav,4,RX81,5,0.0,0.0,6.0,89.31368318402099,mgb_normalisation,89.31368318402099,90.34149293193902,4,4.0,True,2.5154497623443604
,2024-08-07 12:27:20,sub_103_collocated,3,distance,cathedral,spatial_unmasking,1,25,0,0,_one_,talker-p245_sex-f_text-_one_.wav,p245,f,5,26,6.0,7.0,RX81,6,0.0,0.0,7.0,83.34149293193902,babble-reversed_n13_p318-four-p256-five-p229-three-p284-one-p245-eight-p248-nine.wav,4,RX81,5,0.0,0.0,6.0,89.31368318402099,mgb_normalisation,89.31368318402099,90.34149293193902,1,3.0,False,1.3592798709869385
,2024-08-07 12:27:24,sub_103_collocated,3,distance,cathedral,spatial_unmasking,1,26,0,0,_nine_,talker-p245_sex-f_text-_nine_.wav,p245,f,5,27,6.0,7.0,RX81,6,0.0,0.0,7.0,84.341492931939,babble-reversed_n13_p318-five-p229-three-p256-four-p268-eight-p248-one-p245-nine.wav,4,RX81,5,0.0,0.0,6.0,89.31368318402099,mgb_normalisation,89.31368318402099,90.34149293193902,9,9.0,True,1.6717579364776611
,2024-08-07 12:27:29,sub_103_collocated,3,distance,cathedral,spatial_unmasking,1,27,0,0,_one_,talker-p245_sex-f_text-_one_.wav,p245,f,5,28,6.0,7.0,RX81,6,0.0,0.0,7.0,84.341492931939,babble-reversed_n13_p307-five-p229-three-p318-nine-p245-four-p268-eight-p284-two.wav,4,RX81,5,0.0,0.0,6.0,89.31368318402099,mgb_normalisation,89.31368318402099,90.34149293193902,1,4.0,False,1.9061172008514404
,2024-08-07 12:27:34,sub_103_collocated,3,distance,cathedral,spatial_unmasking,1,28,0,0,_eight_,talker-p245_sex-f_text-_eight_.wav,p245,f,5,29,6.0,7.0,RX81,6,0.0,0.0,7.0,85.34149293193903,babble-reversed_n13_p307-two-p229-one-p256-five-p248-nine-p284-three-p268-eight.wav,4,RX81,5,0.0,0.0,6.0,89.313683184021,mgb_normalisation,89.31368318402099,90.34149293193902,8,8.0,True,2.5935699939727783
,2024-08-07 12:27:38,sub_103_collocated,3,distance,cathedral,spatial_unmasking,1,29,0,0,_one_,talker-p245_sex-f_text-_one_.wav,p245,f,5,30,6.0,7.0,RX81,6,0.0,0.0,7.0,85.341492931939,babble-reversed_n13_p256-nine-p307-four-p229-one-p284-three-p248-two-p245-five.wav,4,RX81,5,0.0,0.0,6.0,89.31368318402099,mgb_normalisation,89.31368318402099,90.34149293193902,1,1.0,True,0.9530589580535888
,2024-08-07 12:27:41,sub_103_collocated,3,distance,cathedral,spatial_unmasking,1,30,0,0,_nine_,talker-p245_sex-f_text-_nine_.wav,p245,f,5,31,6.0,7.0,RX81,6,0.0,0.0,7.0,84.341492931939,babble-reversed_n13_p318-nine-p307-eight-p229-two-p284-one-p248-three-p245-five.wav,4,RX81,5,0.0,0.0,6.0,89.31368318402099,mgb_normalisation,89.31368318402099,90.34149293193902,9,9.0,True,1.1249229907989502
,2024-08-07 12:27:45,sub_103_collocated,3,distance,cathedral,spatial_unmasking,1,31,0,0,_nine_,talker-p245_sex-f_text-_nine_.wav,p245,f,5,32,6.0,7.0,RX81,6,0.0,0.0,7.0,84.341492931939,babble-reversed_n13_p318-four-p256-five-p229-three-p284-one-p245-eight-p248-nine.wav,4,RX81,5,0.0,0.0,6.0,89.31368318402099,mgb_normalisation,89.31368318402099,90.34149293193902,9,9.0,True,0.6562061309814453
,2024-08-07 12:27:49,sub_103_collocated,3,distance,cathedral,spatial_unmasking,1,32,0,0,_two_,talker-p245_sex-f_text-_two_.wav,p245,f,5,33,6.0,7.0,RX81,6,0.0,0.0,7.0,83.34149293193902,babble-reversed_n13_p307-five-p229-two-p318-four-p248-three-p245-nine-p268-eight.wav,4,RX81,5,0.0,0.0,6.0,89.31368318402099,mgb_normalisation,89.31368318402099,90.34149293193902,2,3.0,False,1.6092643737792969
,2024-08-07 12:27:53,sub_103_collocated,3,distance,cathedral,spatial_unmasking,1,33,0,0,_nine_,talker-p245_sex-f_text-_nine_.wav,p245,f,5,34,6.0,7.0,RX81,6,0.0,0.0,7.0,84.341492931939,babble-reversed_n13_p256-eight-p229-three-p307-nine-p245-five-p248-four-p268-two.wav,4,RX81,5,0.0,0.0,6.0,89.31368318402099,mgb_normalisation,89.31368318402099,90.34149293193902,9,9.0,True,1.0468025207519531
,2024-08-07 12:27:58,sub_103_collocated,3,distance,cathedral,spatial_unmasking,1,34,0,0,_nine_,talker-p245_sex-f_text-_nine_.wav,p245,f,5,35,6.0,7.0,RX81,6,0.0,0.0,7.0,84.341492931939,babble-reversed_n13_p256-three-p318-two-p229-nine-p248-four-p284-one-p268-eight.wav,4,RX81,5,0.0,0.0,6.0,89.31368318402099,mgb_normalisation,89.31368318402099,90.34149293193902,9,6.0,False,2.327963590621948
,2024-08-07 12:28:01,sub_103_collocated,3,distance,cathedral,spatial_unmasking,1,35,0,0,_four_,talker-p245_sex-f_text-_four_.wav,p245,f,5,36,6.0,7.0,RX81,6,0.0,0.0,7.0,85.34149293193903,babble-reversed_n13_p318-five-p256-nine-p307-eight-p248-two-p245-four-p284-three.wav,4,RX81,5,0.0,0.0,6.0,89.31368318402099,mgb_normalisation,89.31368318402099,90.34149293193902,4,4.0,True,0.999929666519165
,2024-08-07 12:28:05,sub_103_collocated,3,distance,cathedral,spatial_unmasking,1,36,0,0,_one_,talker-p245_sex-f_text-_one_.wav,p245,f,5,37,6.0,7.0,RX81,6,0.0,0.0,7.0,85.341492931939,babble-reversed_n13_p229-five-p318-two-p307-eight-p268-three-p248-four-p245-one.wav,4,RX81,5,0.0,0.0,6.0,89.313683184021,mgb_normalisation,89.31368318402099,90.34149293193902,1,1.0,True,1.1092979907989502
,2024-08-07 12:28:09,sub_103_collocated,3,distance,cathedral,spatial_unmasking,1,37,0,0,_three_,talker-p245_sex-f_text-_three_.wav,p245,f,5,38,6.0,7.0,RX81,6,0.0,0.0,7.0,84.34149293193903,babble-reversed_n13_p229-nine-p307-five-p256-two-p248-three-p245-one-p268-eight.wav,4,RX81,5,0.0,0.0,6.0,89.31368318402099,mgb_normalisation,89.31368318402099,90.34149293193902,3,3.0,True,0.9374349117279052
,2024-08-07 12:28:12,sub_103_collocated,3,distance,cathedral,spatial_unmasking,1,38,0,0,_five_,talker-p245_sex-f_text-_five_.wav,p245,f,5,39,6.0,7.0,RX81,6,0.0,0.0,7.0,84.341492931939,babble-reversed_n13_p318-nine-p256-five-p307-eight-p268-three-p248-one-p245-four.wav,4,RX81,5,0.0,0.0,6.0,89.31368318402099,mgb_normalisation,89.31368318402099,90.34149293193902,5,5.0,True,1.1092960834503174
,2024-08-07 12:28:16,sub_103_collocated,3,distance,cathedral,spatial_unmasking,1,39,0,0,_nine_,talker-p245_sex-f_text-_nine_.wav,p245,f,5,40,6.0,7.0,RX81,6,0.0,0.0,7.0,83.34149293193902,babble-reversed_n13_p318-three-p229-one-p256-eight-p245-five-p248-four-p284-nine.wav,4,RX81,5,0.0,0.0,6.0,89.313683184021,mgb_normalisation,89.31368318402099,90.34149293193902,9,9.0,True,1.0624268054962158
,2024-08-07 12:28:20,sub_103_collocated,3,distance,cathedral,spatial_unmasking,1,40,0,0,_one_,talker-p245_sex-f_text-_one_.wav,p245,f,5,41,6.0,7.0,RX81,6,0.0,0.0,7.0,83.34149293193902,babble-reversed_n13_p318-four-p256-five-p229-three-p284-one-p245-eight-p248-nine.wav,4,RX81,5,0.0,0.0,6.0,89.31368318402099,mgb_normalisation,89.31368318402099,90.34149293193902,1,4.0,False,1.3592808246612549
,2024-08-07 12:28:24,sub_103_collocated,3,distance,cathedral,spatial_unmasking,1,41,0,0,_five_,talker-p245_sex-f_text-_five_.wav,p245,f,5,42,6.0,7.0,RX81,6,0.0,0.0,7.0,84.341492931939,babble-reversed_n13_p307-five-p229-three-p318-nine-p245-four-p268-eight-p284-two.wav,4,RX81,5,0.0,0.0,6.0,89.31368318402099,mgb_normalisation,89.31368318402099,90.34149293193902,5,5.0,True,0.9061870574951172
,2024-08-07 12:28:28,sub_103_collocated,3,distance,cathedral,spatial_unmasking,1,42,0,0,_two_,talker-p245_sex-f_text-_two_.wav,p245,f,5,43,6.0,7.0,RX81,6,0.0,0.0,7.0,84.341492931939,babble-reversed_n13_p307-five-p229-two-p318-four-p248-three-p245-nine-p268-eight.wav,4,RX81,5,0.0,0.0,6.0,89.31368318402099,mgb_normalisation,89.31368318402099,90.34149293193902,2,3.0,False,1.0624258518218994
,2024-08-07 12:28:31,sub_103_collocated,3,distance,cathedral,spatial_unmasking,1,43,0,0,_three_,talker-p245_sex-f_text-_three_.wav,p245,f,5,44,6.0,7.0,RX81,6,0.0,0.0,7.0,85.34149293193903,babble-reversed_n13_p318-five-p229-four-p256-eight-p284-one-p245-three-p248-two.wav,4,RX81,5,0.0,0.0,6.0,89.31368318402099,mgb_normalisation,89.31368318402099,90.34149293193902,3,3.0,True,0.8905634880065918
,2024-08-07 12:28:35,sub_103_collocated,3,distance,cathedral,spatial_unmasking,1,44,0,0,_one_,talker-p245_sex-f_text-_one_.wav,p245,f,5,45,6.0,7.0,RX81,6,0.0,0.0,7.0,85.341492931939,babble-reversed_n13_p318-three-p307-one-p256-five-p248-nine-p245-two-p284-eight.wav,4,RX81,5,0.0,0.0,6.0,89.31368318402099,mgb_normalisation,89.31368318402099,90.34149293193902,1,1.0,True,1.4530248641967771
,2024-08-07 12:28:39,sub_103_collocated,3,distance,cathedral,spatial_unmasking,1,45,0,0,_four_,talker-p245_sex-f_text-_four_.wav,p245,f,5,46,6.0,7.0,RX81,6,0.0,0.0,7.0,84.34149293193903,babble-reversed_n13_p318-three-p307-one-p256-five-p248-nine-p245-two-p284-eight.wav,4,RX81,5,0.0,0.0,6.0,89.31368318402099,mgb_normalisation,89.31368318402099,90.34149293193902,4,3.0,False,1.45302414894104
,2024-08-07 12:28:45,sub_103_collocated,3,distance,cathedral,spatial_unmasking,1,46,0,0,_nine_,talker-p245_sex-f_text-_nine_.wav,p245,f,5,47,6.0,7.0,RX81,6,0.0,0.0,7.0,85.34149293193903,babble-reversed_n13_p256-three-p318-two-p229-nine-p248-four-p284-one-p268-eight.wav,4,RX81,5,0.0,0.0,6.0,89.31368318402099,mgb_normalisation,89.31368318402099,90.34149293193902,9,1.0,False,2.4060819149017334
,2024-08-07 12:28:48,sub_103_collocated,3,distance,cathedral,spatial_unmasking,1,47,0,0,_nine_,talker-p245_sex-f_text-_nine_.wav,p245,f,5,48,6.0,7.0,RX81,6,0.0,0.0,7.0,86.34149293193902,babble-reversed_n13_p318-nine-p307-eight-p229-two-p284-one-p248-three-p245-five.wav,4,RX81,5,0.0,0.0,6.0,89.31368318402099,mgb_normalisation,89.31368318402099,90.34149293193902,9,9.0,True,1.0311787128448486
,2024-08-07 12:28:52,sub_103_collocated,3,distance,cathedral,spatial_unmasking,1,48,0,0,_six_,talker-p245_sex-f_text-_six_.wav,p245,f,5,49,6.0,7.0,RX81,6,0.0,0.0,7.0,86.34149293193902,babble-reversed_n13_p307-four-p318-three-p256-eight-p284-two-p245-nine-p248-five.wav,4,RX81,5,0.0,0.0,6.0,89.31368318402099,mgb_normalisation,89.31368318402099,90.34149293193902,6,6.0,True,1.3592801094055176
,2024-08-07 12:30:10,sub_103_collocated,3,distance,cathedral,spatial_unmasking,2,49,0,0,_eight_,talker-p245_sex-f_text-_eight_.wav,p245,f,5,1,2.0,7.0,RX81,6,0.0,0.0,7.0,92.34149293193902,babble-reversed_n13_p256-four-p307-eight-p318-two-p248-three-p284-nine-p268-one.wav,0,RX81,1,0.0,0.0,2.0,84.40078082039427,mgb_normalisation,84.40078082039426,90.34149293193902,8,8.0,True,1.656135082244873
,2024-08-07 12:30:14,sub_103_collocated,3,distance,cathedral,spatial_unmasking,2,50,0,0,_four_,talker-p245_sex-f_text-_four_.wav,p245,f,5,2,2.0,7.0,RX81,6,0.0,0.0,7.0,88.34149293193903,babble-reversed_n13_p318-nine-p307-eight-p229-two-p284-one-p248-three-p245-five.wav,0,RX81,1,0.0,0.0,2.0,84.40078082039426,mgb_normalisation,84.40078082039426,90.34149293193902,4,4.0,True,1.5467677116394043
,2024-08-07 12:30:17,sub_103_collocated,3,distance,cathedral,spatial_unmasking,2,51,0,0,_six_,talker-p245_sex-f_text-_six_.wav,p245,f,5,3,2.0,7.0,RX81,6,0.0,0.0,7.0,84.341492931939,babble-reversed_n13_p229-five-p318-two-p307-eight-p268-three-p248-four-p245-one.wav,0,RX81,1,0.0,0.0,2.0,84.40078082039427,mgb_normalisation,84.40078082039426,90.34149293193902,6,6.0,True,0.984306573867798
,2024-08-07 12:30:21,sub_103_collocated,3,distance,cathedral,spatial_unmasking,2,52,0,0,_one_,talker-p245_sex-f_text-_one_.wav,p245,f,5,4,2.0,7.0,RX81,6,0.0,0.0,7.0,80.341492931939,babble-reversed_n13_p229-two-p307-five-p318-four-p284-one-p248-nine-p268-eight.wav,0,RX81,1,0.0,0.0,2.0,84.40078082039426,mgb_normalisation,84.40078082039426,90.34149293193902,1,9.0,False,1.3280317783355713
,2024-08-07 12:30:25,sub_103_collocated,3,distance,cathedral,spatial_unmasking,2,53,0,0,_two_,talker-p245_sex-f_text-_two_.wav,p245,f,5,5,2.0,7.0,RX81,6,0.0,0.0,7.0,82.341492931939,babble-reversed_n13_p256-eight-p318-five-p307-four-p245-three-p268-one-p284-nine.wav,0,RX81,1,0.0,0.0,2.0,84.40078082039426,mgb_normalisation,84.40078082039426,90.34149293193902,2,2.0,True,1.0311789512634275
,2024-08-07 12:30:29,sub_103_collocated,3,distance,cathedral,spatial_unmasking,2,54,0,0,_one_,talker-p245_sex-f_text-_one_.wav,p245,f,5,6,2.0,7.0,RX81,6,0.0,0.0,7.0,82.341492931939,babble-reversed_n13_p307-one-p318-five-p229-four-p268-eight-p284-two-p245-three.wav,0,RX81,1,0.0,0.0,2.0,84.40078082039426,mgb_normalisation,84.40078082039426,90.34149293193902,1,1.0,True,0.9999301433563232
,2024-08-07 12:30:32,sub_103_collocated,3,distance,cathedral,spatial_unmasking,2,55,0,0,_two_,talker-p245_sex-f_text-_two_.wav,p245,f,5,7,2.0,7.0,RX81,6,0.0,0.0,7.0,80.341492931939,babble-reversed_n13_p318-three-p229-one-p256-eight-p245-five-p248-four-p284-nine.wav,0,RX81,1,0.0,0.0,2.0,84.40078082039427,mgb_normalisation,84.40078082039426,90.34149293193902,2,2.0,True,0.9374353885650636
,2024-08-07 12:30:37,sub_103_collocated,3,distance,cathedral,spatial_unmasking,2,56,0,0,_nine_,talker-p245_sex-f_text-_nine_.wav,p245,f,5,8,2.0,7.0,RX81,6,0.0,0.0,7.0,80.34149293193903,babble-reversed_n13_p318-three-p229-one-p256-eight-p245-five-p248-four-p284-nine.wav,0,RX81,1,0.0,0.0,2.0,84.40078082039427,mgb_normalisation,84.40078082039426,90.34149293193902,9,3.0,False,2.406083583831787
,2024-08-07 12:30:41,sub_103_collocated,3,distance,cathedral,spatial_unmasking,2,57,0,0,_eight_,talker-p245_sex-f_text-_eight_.wav,p245,f,5,9,2.0,7.0,RX81,6,0.0,0.0,7.0,81.34149293193902,babble-reversed_n13_p256-two-p307-five-p318-nine-p248-eight-p245-four-p284-one.wav,0,RX81,1,0.0,0.0,2.0,84.40078082039426,mgb_normalisation,84.40078082039426,90.34149293193902,8,8.0,True,1.3436555862426758
,2024-08-07 12:30:45,sub_103_collocated,3,distance,cathedral,spatial_unmasking,2,58,0,0,_six_,talker-p245_sex-f_text-_six_.wav,p245,f,5,10,2.0,7.0,RX81,6,0.0,0.0,7.0,81.34149293193902,babble-reversed_n13_p229-five-p256-three-p318-nine-p248-two-p284-four-p268-one.wav,0,RX81,1,0.0,0.0,2.0,84.40078082039427,mgb_normalisation,84.40078082039426,90.34149293193902,6,6.0,True,0.9686827659606934
,2024-08-07 12:30:49,sub_103_collocated,3,distance,cathedral,spatial_unmasking,2,59,0,0,_eight_,talker-p245_sex-f_text-_eight_.wav,p245,f,5,11,2.0,7.0,RX81,6,0.0,0.0,7.0,80.34149293193903,babble-reversed_n13_p256-nine-p307-four-p229-one-p284-three-p248-two-p245-five.wav,0,RX81,1,0.0,0.0,2.0,84.40078082039427,mgb_normalisation,84.40078082039426,90.34149293193902,8,8.0,True,1.109297513961792
,2024-08-07 12:30:56,sub_103_collocated,3,distance,cathedral,spatial_unmasking,2,60,0,0,_eight_,talker-p245_sex-f_text-_eight_.wav,p245,f,5,12,2.0,7.0,RX81,6,0.0,0.0,7.0,80.34149293193903,babble-reversed_n13_p256-four-p229-eight-p307-five-p248-three-p245-one-p284-two.wav,0,RX81,1,0.0,0.0,2.0,84.40078082039426,mgb_normalisation,84.40078082039426,90.34149293193902,8,5.0,False,4.593430757522583
,2024-08-07 12:31:00,sub_103_collocated,3,distance,cathedral,spatial_unmasking,2,61,0,0,_three_,talker-p245_sex-f_text-_three_.wav,p245,f,5,13,2.0,7.0,RX81,6,0.0,0.0,7.0,81.34149293193902,babble-reversed_n13_p307-five-p229-two-p318-four-p248-three-p245-nine-p268-eight.wav,0,RX81,1,0.0,0.0,2.0,84.40078082039426,mgb_normalisation,84.40078082039426,90.34149293193902,3,3.0,True,1.124921798706055
,2024-08-07 12:31:04,sub_103_collocated,3,distance,cathedral,spatial_unmasking,2,62,0,0,_nine_,talker-p245_sex-f_text-_nine_.wav,p245,f,5,14,2.0,7.0,RX81,6,0.0,0.0,7.0,81.34149293193902,babble-reversed_n13_p229-three-p256-one-p307-two-p284-eight-p268-five-p248-nine.wav,0,RX81,1,0.0,0.0,2.0,84.40078082039426,mgb_normalisation,84.40078082039426,90.34149293193902,9,9.0,True,1.1561713218688965
,2024-08-07 12:31:07,sub_103_collocated,3,distance,cathedral,spatial_unmasking,2,63,0,0,_two_,talker-p245_sex-f_text-_two_.wav,p245,f,5,15,2.0,7.0,RX81,6,0.0,0.0,7.0,80.341492931939,babble-reversed_n13_p256-eight-p318-five-p307-four-p245-three-p268-one-p284-nine.wav,0,RX81,1,0.0,0.0,2.0,84.40078082039426,mgb_normalisation,84.40078082039426,90.34149293193902,2,2.0,True,0.999932050704956
,2024-08-07 12:31:11,sub_103_collocated,3,distance,cathedral,spatial_unmasking,2,64,0,0,_six_,talker-p245_sex-f_text-_six_.wav,p245,f,5,16,2.0,7.0,RX81,6,0.0,0.0,7.0,80.341492931939,babble-reversed_n13_p307-five-p229-three-p318-nine-p245-four-p268-eight-p284-two.wav,0,RX81,1,0.0,0.0,2.0,84.40078082039426,mgb_normalisation,84.40078082039426,90.34149293193902,6,6.0,True,0.8124427795410156
,2024-08-07 12:31:15,sub_103_collocated,3,distance,cathedral,spatial_unmasking,2,65,0,0,_six_,talker-p245_sex-f_text-_six_.wav,p245,f,5,17,2.0,7.0,RX81,6,0.0,0.0,7.0,79.341492931939,babble-reversed_n13_p229-five-p318-three-p307-two-p245-four-p284-nine-p248-eight.wav,0,RX81,1,0.0,0.0,2.0,84.40078082039426,mgb_normalisation,84.40078082039426,90.34149293193902,6,6.0,True,0.9061870574951172
,2024-08-07 12:31:18,sub_103_collocated,3,distance,cathedral,spatial_unmasking,2,66,0,0,_six_,talker-p245_sex-f_text-_six_.wav,p245,f,5,18,2.0,7.0,RX81,6,0.0,0.0,7.0,79.341492931939,babble-reversed_n13_p256-five-p307-nine-p318-three-p284-eight-p268-one-p248-two.wav,0,RX81,1,0.0,0.0,2.0,84.40078082039426,mgb_normalisation,84.40078082039426,90.34149293193902,6,6.0,True,0.8124420642852783
,2024-08-07 12:31:22,sub_103_collocated,3,distance,cathedral,spatial_unmasking,2,67,0,0,_one_,talker-p245_sex-f_text-_one_.wav,p245,f,5,19,2.0,7.0,RX81,6,0.0,0.0,7.0,78.341492931939,babble-reversed_n13_p318-five-p229-three-p256-four-p268-eight-p248-one-p245-nine.wav,0,RX81,1,0.0,0.0,2.0,84.40078082039426,mgb_normalisation,84.40078082039426,90.34149293193902,1,6.0,False,1.0311782360076904
,2024-08-07 12:31:26,sub_103_collocated,3,distance,cathedral,spatial_unmasking,2,68,0,0,_nine_,talker-p245_sex-f_text-_nine_.wav,p245,f,5,20,2.0,7.0,RX81,6,0.0,0.0,7.0,79.34149293193902,babble-reversed_n13_p256-eight-p229-three-p307-nine-p245-five-p248-four-p268-two.wav,0,RX81,1,0.0,0.0,2.0,84.40078082039426,mgb_normalisation,84.40078082039426,90.34149293193902,9,9.0,True,0.9999303817749025
,2024-08-07 12:31:30,sub_103_collocated,3,distance,cathedral,spatial_unmasking,2,69,0,0,_six_,talker-p245_sex-f_text-_six_.wav,p245,f,5,21,2.0,7.0,RX81,6,0.0,0.0,7.0,79.341492931939,babble-reversed_n13_p318-three-p307-one-p256-five-p248-nine-p245-two-p284-eight.wav,0,RX81,1,0.0,0.0,2.0,84.40078082039426,mgb_normalisation,84.40078082039426,90.34149293193902,6,6.0,True,0.9218130111694336
,2024-08-07 12:31:34,sub_103_collocated,3,distance,cathedral,spatial_unmasking,2,70,0,0,_four_,talker-p245_sex-f_text-_four_.wav,p245,f,5,22,2.0,7.0,RX81,6,0.0,0.0,7.0,78.34149293193902,babble-reversed_n13_p307-two-p256-four-p318-three-p284-eight-p248-five-p245-nine.wav,0,RX81,1,0.0,0.0,2.0,84.40078082039427,mgb_normalisation,84.40078082039426,90.34149293193902,4,3.0,False,1.281161546707153
,2024-08-07 12:31:38,sub_103_collocated,3,distance,cathedral,spatial_unmasking,2,71,0,0,_one_,talker-p245_sex-f_text-_one_.wav,p245,f,5,23,2.0,7.0,RX81,6,0.0,0.0,7.0,79.341492931939,babble-reversed_n13_p229-five-p256-three-p318-nine-p248-two-p284-four-p268-one.wav,0,RX81,1,0.0,0.0,2.0,84.40078082039427,mgb_normalisation,84.40078082039426,90.34149293193902,1,1.0,True,1.6873822212219238
,2024-08-07 12:31:43,sub_103_collocated,3,distance,cathedral,spatial_unmasking,2,72,0,0,_one_,talker-p245_sex-f_text-_one_.wav,p245,f,5,24,2.0,7.0,RX81,6,0.0,0.0,7.0,79.341492931939,babble-reversed_n13_p256-three-p318-two-p229-nine-p248-four-p284-one-p268-eight.wav,0,RX81,1,0.0,0.0,2.0,84.40078082039426,mgb_normalisation,84.40078082039426,90.34149293193902,1,1.0,True,2.0311083793640137
,2024-08-07 12:31:48,sub_103_collocated,3,distance,cathedral,spatial_unmasking,2,73,0,0,_three_,talker-p245_sex-f_text-_three_.wav,p245,f,5,25,2.0,7.0,RX81,6,0.0,0.0,7.0,78.34149293193902,babble-reversed_n13_p229-nine-p307-five-p256-two-p248-three-p245-one-p268-eight.wav,0,RX81,1,0.0,0.0,2.0,84.40078082039426,mgb_normalisation,84.40078082039426,90.34149293193902,3,5.0,False,2.3435873985290527
,2024-08-07 12:31:51,sub_103_collocated,3,distance,cathedral,spatial_unmasking,2,74,0,0,_six_,talker-p245_sex-f_text-_six_.wav,p245,f,5,26,2.0,7.0,RX81,6,0.0,0.0,7.0,79.341492931939,babble-reversed_n13_p318-five-p256-nine-p307-two-p245-eight-p248-one-p284-four.wav,0,RX81,1,0.0,0.0,2.0,84.40078082039427,mgb_normalisation,84.40078082039426,90.34149293193902,6,6.0,True,1.078049898147583
,2024-08-07 12:31:56,sub_103_collocated,3,distance,cathedral,spatial_unmasking,2,75,0,0,_three_,talker-p245_sex-f_text-_three_.wav,p245,f,5,27,2.0,7.0,RX81,6,0.0,0.0,7.0,79.34149293193902,babble-reversed_n13_p256-two-p307-five-p318-nine-p248-eight-p245-four-p284-one.wav,0,RX81,1,0.0,0.0,2.0,84.40078082039426,mgb_normalisation,84.40078082039426,90.34149293193902,3,3.0,True,1.6717588901519775
,2024-08-07 12:34:06,sub_103_collocated,3,distance,cathedral,spatial_unmasking,3,76,0,0,_three_,talker-p245_sex-f_text-_three_.wav,p245,f,5,1,10.0,7.0,RX81,6,0.0,0.0,7.0,92.34149293193902,babble-reversed_n13_p307-four-p318-three-p256-eight-p284-two-p245-nine-p248-five.wav,8,RX81,9,0.0,0.0,10.0,92.0152836843556,mgb_normalisation,92.0152836843556,90.34149293193902,3,3.0,True,1.4530243873596191
,2024-08-07 12:34:10,sub_103_collocated,3,distance,cathedral,spatial_unmasking,3,77,0,0,_nine_,talker-p245_sex-f_text-_nine_.wav,p245,f,5,2,10.0,7.0,RX81,6,0.0,0.0,7.0,88.34149293193902,babble-reversed_n13_p256-three-p318-two-p229-nine-p248-four-p284-one-p268-eight.wav,8,RX81,9,0.0,0.0,10.0,92.0152836843556,mgb_normalisation,92.0152836843556,90.34149293193902,9,9.0,True,1.6092643737792969
,2024-08-07 12:34:14,sub_103_collocated,3,distance,cathedral,spatial_unmasking,3,78,0,0,_three_,talker-p245_sex-f_text-_three_.wav,p245,f,5,3,10.0,7.0,RX81,6,0.0,0.0,7.0,84.34149293193903,babble-reversed_n13_p256-three-p318-two-p229-nine-p248-four-p284-one-p268-eight.wav,8,RX81,9,0.0,0.0,10.0,92.0152836843556,mgb_normalisation,92.0152836843556,90.34149293193902,3,3.0,True,1.1249210834503174
,2024-08-07 12:34:20,sub_103_collocated,3,distance,cathedral,spatial_unmasking,3,79,0,0,_one_,talker-p245_sex-f_text-_one_.wav,p245,f,5,4,10.0,7.0,RX81,6,0.0,0.0,7.0,80.341492931939,babble-reversed_n13_p307-five-p229-two-p318-four-p248-three-p245-nine-p268-eight.wav,8,RX81,9,0.0,0.0,10.0,92.0152836843556,mgb_normalisation,92.0152836843556,90.34149293193902,1,4.0,False,3.140407085418701
,2024-08-07 12:34:25,sub_103_collocated,3,distance,cathedral,spatial_unmasking,3,80,0,0,_four_,talker-p245_sex-f_text-_four_.wav,p245,f,5,5,10.0,7.0,RX81,6,0.0,0.0,7.0,82.34149293193902,babble-reversed_n13_p229-five-p256-three-p318-nine-p248-two-p284-four-p268-one.wav,8,RX81,9,0.0,0.0,10.0,92.0152836843556,mgb_normalisation,92.0152836843556,90.34149293193902,4,2.0,False,2.234220027923584
,2024-08-07 12:34:29,sub_103_collocated,3,distance,cathedral,spatial_unmasking,3,81,0,0,_one_,talker-p245_sex-f_text-_one_.wav,p245,f,5,6,10.0,7.0,RX81,6,0.0,0.0,7.0,84.341492931939,babble-reversed_n13_p256-four-p229-eight-p307-five-p248-three-p245-one-p284-two.wav,8,RX81,9,0.0,0.0,10.0,92.0152836843556,mgb_normalisation,92.0152836843556,90.34149293193902,1,9.0,False,1.1561694145202637
,2024-08-07 12:34:32,sub_103_collocated,3,distance,cathedral,spatial_unmasking,3,82,0,0,_six_,talker-p245_sex-f_text-_six_.wav,p245,f,5,7,10.0,7.0,RX81,6,0.0,0.0,7.0,86.34149293193902,babble-reversed_n13_p318-three-p229-one-p256-eight-p245-five-p248-four-p284-nine.wav,8,RX81,9,0.0,0.0,10.0,92.0152836843556,mgb_normalisation,92.0152836843556,90.34149293193902,6,6.0,True,0.781195878982544
,2024-08-07 12:34:38,sub_103_collocated,3,distance,cathedral,spatial_unmasking,3,83,0,0,_four_,talker-p245_sex-f_text-_four_.wav,p245,f,5,8,10.0,7.0,RX81,6,0.0,0.0,7.0,86.34149293193902,babble-reversed_n13_p256-nine-p307-four-p229-one-p284-three-p248-two-p245-five.wav,8,RX81,9,0.0,0.0,10.0,92.0152836843556,mgb_normalisation,92.0152836843556,90.34149293193902,4,2.0,False,2.7654337882995605
,2024-08-07 12:34:41,sub_103_collocated,3,distance,cathedral,spatial_unmasking,3,84,0,0,_nine_,talker-p245_sex-f_text-_nine_.wav,p245,f,5,9,10.0,7.0,RX81,6,0.0,0.0,7.0,88.34149293193902,babble-reversed_n13_p307-four-p318-three-p256-eight-p284-two-p245-nine-p248-five.wav,8,RX81,9,0.0,0.0,10.0,92.0152836843556,mgb_normalisation,92.0152836843556,90.34149293193902,9,9.0,True,0.9374349117279052
,2024-08-07 12:34:46,sub_103_collocated,3,distance,cathedral,spatial_unmasking,3,85,0,0,_five_,talker-p245_sex-f_text-_five_.wav,p245,f,5,10,10.0,7.0,RX81,6,0.0,0.0,7.0,88.34149293193902,babble-reversed_n13_p307-five-p229-two-p318-four-p248-three-p245-nine-p268-eight.wav,8,RX81,9,0.0,0.0,10.0,92.0152836843556,mgb_normalisation,92.0152836843556,90.34149293193902,5,5.0,True,1.3592774868011477
,2024-08-07 12:34:49,sub_103_collocated,3,distance,cathedral,spatial_unmasking,3,86,0,0,_two_,talker-p245_sex-f_text-_two_.wav,p245,f,5,11,10.0,7.0,RX81,6,0.0,0.0,7.0,86.341492931939,babble-reversed_n13_p318-five-p229-four-p256-eight-p284-one-p245-three-p248-two.wav,8,RX81,9,0.0,0.0,10.0,92.0152836843556,mgb_normalisation,92.0152836843556,90.34149293193902,2,2.0,True,0.7811965942382812
,2024-08-07 12:34:53,sub_103_collocated,3,distance,cathedral,spatial_unmasking,3,87,0,0,_eight_,talker-p245_sex-f_text-_eight_.wav,p245,f,5,12,10.0,7.0,RX81,6,0.0,0.0,7.0,86.34149293193902,babble-reversed_n13_p256-four-p229-two-p318-five-p268-one-p248-eight-p245-three.wav,8,RX81,9,0.0,0.0,10.0,92.0152836843556,mgb_normalisation,92.0152836843556,90.34149293193902,8,8.0,True,1.249913454055786
,2024-08-07 12:34:57,sub_103_collocated,3,distance,cathedral,spatial_unmasking,3,88,0,0,_six_,talker-p245_sex-f_text-_six_.wav,p245,f,5,13,10.0,7.0,RX81,6,0.0,0.0,7.0,84.341492931939,babble-reversed_n13_p229-two-p318-eight-p256-three-p268-one-p248-nine-p284-five.wav,8,RX81,9,0.0,0.0,10.0,92.0152836843556,mgb_normalisation,92.0152836843556,90.34149293193902,6,6.0,True,0.8593153953552246
,2024-08-07 12:35:01,sub_103_collocated,3,distance,cathedral,spatial_unmasking,3,89,0,0,_one_,talker-p245_sex-f_text-_one_.wav,p245,f,5,14,10.0,7.0,RX81,6,0.0,0.0,7.0,84.341492931939,babble-reversed_n13_p307-two-p229-one-p256-five-p248-nine-p284-three-p268-eight.wav,8,RX81,9,0.0,0.0,10.0,92.0152836843556,mgb_normalisation,92.0152836843556,90.34149293193902,1,3.0,False,1.5936386585235596
,2024-08-07 12:35:05,sub_103_collocated,3,distance,cathedral,spatial_unmasking,3,90,0,0,_five_,talker-p245_sex-f_text-_five_.wav,p245,f,5,15,10.0,7.0,RX81,6,0.0,0.0,7.0,85.34149293193903,babble-reversed_n13_p256-four-p229-two-p318-five-p268-one-p248-eight-p245-three.wav,8,RX81,9,0.0,0.0,10.0,92.0152836843556,mgb_normalisation,92.0152836843556,90.34149293193902,5,2.0,False,0.999929428100586
,2024-08-07 12:35:08,sub_103_collocated,3,distance,cathedral,spatial_unmasking,3,91,0,0,_five_,talker-p245_sex-f_text-_five_.wav,p245,f,5,16,10.0,7.0,RX81,6,0.0,0.0,7.0,86.34149293193902,babble-reversed_n13_p229-three-p307-one-p318-two-p245-eight-p268-five-p284-four.wav,8,RX81,9,0.0,0.0,10.0,92.0152836843556,mgb_normalisation,92.0152836843556,90.34149293193902,5,5.0,True,0.8124451637268066
,2024-08-07 12:35:12,sub_103_collocated,3,distance,cathedral,spatial_unmasking,3,92,0,0,_two_,talker-p245_sex-f_text-_two_.wav,p245,f,5,17,10.0,7.0,RX81,6,0.0,0.0,7.0,86.341492931939,babble-reversed_n13_p318-nine-p307-eight-p229-two-p284-one-p248-three-p245-five.wav,8,RX81,9,0.0,0.0,10.0,92.0152836843556,mgb_normalisation,92.0152836843556,90.34149293193902,2,2.0,True,1.062424898147583
,2024-08-07 12:35:16,sub_103_collocated,3,distance,cathedral,spatial_unmasking,3,93,0,0,_nine_,talker-p245_sex-f_text-_nine_.wav,p245,f,5,18,10.0,7.0,RX81,6,0.0,0.0,7.0,85.34149293193903,babble-reversed_n13_p229-nine-p307-five-p256-two-p248-three-p245-one-p268-eight.wav,8,RX81,9,0.0,0.0,10.0,92.0152836843556,mgb_normalisation,92.0152836843556,90.34149293193902,9,3.0,False,1.3280329704284668
,2024-08-07 12:35:20,sub_103_collocated,3,distance,cathedral,spatial_unmasking,3,94,0,0,_eight_,talker-p245_sex-f_text-_eight_.wav,p245,f,5,19,10.0,7.0,RX81,6,0.0,0.0,7.0,86.34149293193902,babble-reversed_n13_p256-eight-p318-five-p307-four-p245-three-p268-one-p284-nine.wav,8,RX81,9,0.0,0.0,10.0,92.0152836843556,mgb_normalisation,92.0152836843556,90.34149293193902,8,8.0,True,1.20304274559021
,2024-08-07 12:35:23,sub_103_collocated,3,distance,cathedral,spatial_unmasking,3,95,0,0,_five_,talker-p245_sex-f_text-_five_.wav,p245,f,5,20,10.0,7.0,RX81,6,0.0,0.0,7.0,86.34149293193902,babble-reversed_n13_p229-five-p318-two-p307-eight-p268-three-p248-four-p245-one.wav,8,RX81,9,0.0,0.0,10.0,92.0152836843556,mgb_normalisation,92.0152836843556,90.34149293193902,5,5.0,True,1.0311775207519531
,2024-08-07 12:35:29,sub_103_collocated,3,distance,cathedral,spatial_unmasking,3,96,0,0,_four_,talker-p245_sex-f_text-_four_.wav,p245,f,5,21,10.0,7.0,RX81,6,0.0,0.0,7.0,85.34149293193903,babble-reversed_n13_p256-five-p307-nine-p318-three-p284-eight-p268-one-p248-two.wav,8,RX81,9,0.0,0.0,10.0,92.0152836843556,mgb_normalisation,92.0152836843556,90.34149293193902,4,3.0,False,3.015416622161865
,2024-08-07 12:35:33,sub_103_collocated,3,distance,cathedral,spatial_unmasking,3,97,0,0,_six_,talker-p245_sex-f_text-_six_.wav,p245,f,5,22,10.0,7.0,RX81,6,0.0,0.0,7.0,86.34149293193902,babble-reversed_n13_p318-five-p229-three-p256-four-p268-eight-p248-one-p245-nine.wav,8,RX81,9,0.0,0.0,10.0,92.0152836843556,mgb_normalisation,92.0152836843556,90.34149293193902,6,6.0,True,1.0780513286590576
,2024-08-07 12:35:37,sub_103_collocated,3,distance,cathedral,spatial_unmasking,3,98,0,0,_three_,talker-p245_sex-f_text-_three_.wav,p245,f,5,23,10.0,7.0,RX81,6,0.0,0.0,7.0,86.34149293193902,babble-reversed_n13_p256-four-p229-two-p318-five-p268-one-p248-eight-p245-three.wav,8,RX81,9,0.0,0.0,10.0,92.0152836843556,mgb_normalisation,92.0152836843556,90.34149293193902,3,3.0,True,0.9061872959136964
,2024-08-07 12:35:40,sub_103_collocated,3,distance,cathedral,spatial_unmasking,3,99,0,0,_two_,talker-p245_sex-f_text-_two_.wav,p245,f,5,24,10.0,7.0,RX81,6,0.0,0.0,7.0,85.341492931939,babble-reversed_n13_p229-three-p256-nine-p318-five-p248-one-p245-eight-p284-two.wav,8,RX81,9,0.0,0.0,10.0,92.0152836843556,mgb_normalisation,92.0152836843556,90.34149293193902,2,2.0,True,0.8124432563781738
,2024-08-07 12:35:44,sub_103_collocated,3,distance,cathedral,spatial_unmasking,3,100,0,0,_five_,talker-p245_sex-f_text-_five_.wav,p245,f,5,25,10.0,7.0,RX81,6,0.0,0.0,7.0,85.34149293193903,babble-reversed_n13_p318-five-p256-nine-p307-eight-p248-two-p245-four-p284-three.wav,8,RX81,9,0.0,0.0,10.0,92.0152836843556,mgb_normalisation,92.0152836843556,90.34149293193902,5,5.0,True,0.9843075275421144
,2024-08-07 12:35:48,sub_103_collocated,3,distance,cathedral,spatial_unmasking,3,101,0,0,_one_,talker-p245_sex-f_text-_one_.wav,p245,f,5,26,10.0,7.0,RX81,6,0.0,0.0,7.0,84.341492931939,babble-reversed_n13_p256-four-p229-two-p318-five-p268-one-p248-eight-p245-three.wav,8,RX81,9,0.0,0.0,10.0,92.0152836843556,mgb_normalisation,92.0152836843556,90.34149293193902,1,2.0,False,1.0155541896820068
,2024-08-07 12:35:51,sub_103_collocated,3,distance,cathedral,spatial_unmasking,3,102,0,0,_nine_,talker-p245_sex-f_text-_nine_.wav,p245,f,5,27,10.0,7.0,RX81,6,0.0,0.0,7.0,85.34149293193903,babble-reversed_n13_p229-five-p318-three-p307-two-p245-four-p284-nine-p248-eight.wav,8,RX81,9,0.0,0.0,10.0,92.0152836843556,mgb_normalisation,92.0152836843556,90.34149293193902,9,9.0,True,0.9530596733093262
,2024-08-07 12:35:54,sub_103_collocated,3,distance,cathedral,spatial_unmasking,3,103,0,0,_six_,talker-p245_sex-f_text-_six_.wav,p245,f,5,28,10.0,7.0,RX81,6,0.0,0.0,7.0,85.341492931939,babble-reversed_n13_p318-five-p256-nine-p307-two-p245-eight-p248-one-p284-four.wav,8,RX81,9,0.0,0.0,10.0,92.0152836843556,mgb_normalisation,92.0152836843556,90.34149293193902,6,6.0,True,0.7343237400054932
,2024-08-07 12:35:58,sub_103_collocated,3,distance,cathedral,spatial_unmasking,3,104,0,0,_four_,talker-p245_sex-f_text-_four_.wav,p245,f,5,29,10.0,7.0,RX81,6,0.0,0.0,7.0,84.34149293193903,babble-reversed_n13_p229-nine-p256-four-p318-three-p268-eight-p248-two-p284-five.wav,8,RX81,9,0.0,0.0,10.0,92.0152836843556,mgb_normalisation,92.0152836843556,90.34149293193902,4,3.0,False,0.9218106269836426
,2024-08-07 12:36:02,sub_103_collocated,3,distance,cathedral,spatial_unmasking,3,105,0,0,_one_,talker-p245_sex-f_text-_one_.wav,p245,f,5,30,10.0,7.0,RX81,6,0.0,0.0,7.0,85.341492931939,babble-reversed_n13_p229-eight-p256-nine-p318-four-p245-three-p268-five-p284-two.wav,8,RX81,9,0.0,0.0,10.0,92.0152836843556,mgb_normalisation,92.0152836843556,90.34149293193902,1,1.0,True,0.921811819076538
,2024-08-07 12:36:05,sub_103_collocated,3,distance,cathedral,spatial_unmasking,3,106,0,0,_six_,talker-p245_sex-f_text-_six_.wav,p245,f,5,31,10.0,7.0,RX81,6,0.0,0.0,7.0,85.341492931939,babble-reversed_n13_p229-eight-p256-nine-p318-four-p245-three-p268-five-p284-two.wav,8,RX81,9,0.0,0.0,10.0,92.0152836843556,mgb_normalisation,92.0152836843556,90.34149293193902,6,6.0,True,0.9843053817749025
,2024-08-07 12:37:04,sub_103_collocated,3,distance,cathedral,spatial_unmasking,4,107,0,0,_two_,talker-p245_sex-f_text-_two_.wav,p245,f,5,1,8.0,7.0,RX81,6,0.0,0.0,7.0,92.341492931939,babble-reversed_n13_p307-two-p229-one-p256-five-p248-nine-p284-three-p268-eight.wav,6,RX81,7,0.0,0.0,8.0,91.58892582949888,mgb_normalisation,91.58892582949886,90.34149293193902,2,2.0,True,1.1405460834503174
,2024-08-07 12:37:07,sub_103_collocated,3,distance,cathedral,spatial_unmasking,4,108,0,0,_one_,talker-p245_sex-f_text-_one_.wav,p245,f,5,2,8.0,7.0,RX81,6,0.0,0.0,7.0,88.34149293193902,babble-reversed_n13_p229-three-p307-one-p318-two-p245-eight-p268-five-p284-four.wav,6,RX81,7,0.0,0.0,8.0,91.58892582949888,mgb_normalisation,91.58892582949886,90.34149293193902,1,1.0,True,0.9686822891235352
,2024-08-07 12:37:12,sub_103_collocated,3,distance,cathedral,spatial_unmasking,4,109,0,0,_one_,talker-p245_sex-f_text-_one_.wav,p245,f,5,3,8.0,7.0,RX81,6,0.0,0.0,7.0,84.341492931939,babble-reversed_n13_p307-one-p318-five-p229-four-p268-eight-p284-two-p245-three.wav,6,RX81,7,0.0,0.0,8.0,91.58892582949886,mgb_normalisation,91.58892582949886,90.34149293193902,1,1.0,True,1.8436219692230225
,2024-08-07 12:37:16,sub_103_collocated,3,distance,cathedral,spatial_unmasking,4,110,0,0,_three_,talker-p245_sex-f_text-_three_.wav,p245,f,5,4,8.0,7.0,RX81,6,0.0,0.0,7.0,80.34149293193903,babble-reversed_n13_p229-three-p256-nine-p318-five-p248-one-p245-eight-p284-two.wav,6,RX81,7,0.0,0.0,8.0,91.58892582949888,mgb_normalisation,91.58892582949886,90.34149293193902,3,9.0,False,1.265537977218628
,2024-08-07 12:37:20,sub_103_collocated,3,distance,cathedral,spatial_unmasking,4,111,0,0,_five_,talker-p245_sex-f_text-_five_.wav,p245,f,5,5,8.0,7.0,RX81,6,0.0,0.0,7.0,82.34149293193902,babble-reversed_n13_p229-one-p318-eight-p256-three-p268-nine-p248-five-p284-four.wav,6,RX81,7,0.0,0.0,8.0,91.58892582949886,mgb_normalisation,91.58892582949886,90.34149293193902,5,5.0,True,1.218665361404419
,2024-08-07 12:37:25,sub_103_collocated,3,distance,cathedral,spatial_unmasking,4,112,0,0,_nine_,talker-p245_sex-f_text-_nine_.wav,p245,f,5,6,8.0,7.0,RX81,6,0.0,0.0,7.0,82.34149293193902,babble-reversed_n13_p307-five-p229-three-p318-nine-p245-four-p268-eight-p284-two.wav,6,RX81,7,0.0,0.0,8.0,91.58892582949886,mgb_normalisation,91.58892582949886,90.34149293193902,9,4.0,False,2.562323093414306
,2024-08-07 12:37:29,sub_103_collocated,3,distance,cathedral,spatial_unmasking,4,113,0,0,_four_,talker-p245_sex-f_text-_four_.wav,p245,f,5,7,8.0,7.0,RX81,6,0.0,0.0,7.0,84.34149293193903,babble-reversed_n13_p318-five-p256-nine-p307-two-p245-eight-p248-one-p284-four.wav,6,RX81,7,0.0,0.0,8.0,91.58892582949888,mgb_normalisation,91.58892582949886,90.34149293193902,4,4.0,True,1.078049659729004
,2024-08-07 12:37:33,sub_103_collocated,3,distance,cathedral,spatial_unmasking,4,114,0,0,_eight_,talker-p245_sex-f_text-_eight_.wav,p245,f,5,8,8.0,7.0,RX81,6,0.0,0.0,7.0,84.341492931939,babble-reversed_n13_p256-nine-p307-four-p229-one-p284-three-p248-two-p245-five.wav,6,RX81,7,0.0,0.0,8.0,91.58892582949888,mgb_normalisation,91.58892582949886,90.34149293193902,8,8.0,True,1.0624258518218994
,2024-08-07 12:37:37,sub_103_collocated,3,distance,cathedral,spatial_unmasking,4,115,0,0,_four_,talker-p245_sex-f_text-_four_.wav,p245,f,5,9,8.0,7.0,RX81,6,0.0,0.0,7.0,82.34149293193902,babble-reversed_n13_p229-five-p256-three-p318-nine-p248-two-p284-four-p268-one.wav,6,RX81,7,0.0,0.0,8.0,91.58892582949888,mgb_normalisation,91.58892582949886,90.34149293193902,4,4.0,True,1.968614101409912
,2024-08-07 12:37:41,sub_103_collocated,3,distance,cathedral,spatial_unmasking,4,116,0,0,_two_,talker-p245_sex-f_text-_two_.wav,p245,f,5,10,8.0,7.0,RX81,6,0.0,0.0,7.0,82.341492931939,babble-reversed_n13_p318-nine-p256-five-p307-eight-p268-three-p248-one-p245-four.wav,6,RX81,7,0.0,0.0,8.0,91.58892582949888,mgb_normalisation,91.58892582949886,90.34149293193902,2,2.0,True,0.9374346733093262
,2024-08-07 12:37:45,sub_103_collocated,3,distance,cathedral,spatial_unmasking,4,117,0,0,_six_,talker-p245_sex-f_text-_six_.wav,p245,f,5,11,8.0,7.0,RX81,6,0.0,0.0,7.0,80.341492931939,babble-reversed_n13_p318-five-p256-nine-p307-two-p245-eight-p248-one-p284-four.wav,6,RX81,7,0.0,0.0,8.0,91.58892582949888,mgb_normalisation,91.58892582949886,90.34149293193902,6,6.0,True,1.5467674732208252
,2024-08-07 12:37:54,sub_103_collocated,3,distance,cathedral,spatial_unmasking,4,118,0,0,_six_,talker-p245_sex-f_text-_six_.wav,p245,f,5,12,8.0,7.0,RX81,6,0.0,0.0,7.0,80.341492931939,babble-reversed_n13_p256-eight-p318-two-p307-five-p245-four-p268-nine-p284-one.wav,6,RX81,7,0.0,0.0,8.0,91.58892582949888,mgb_normalisation,91.58892582949886,90.34149293193902,6,4.0,False,5.5152428150177
,2024-08-07 12:37:57,sub_103_collocated,3,distance,cathedral,spatial_unmasking,4,119,0,0,_one_,talker-p245_sex-f_text-_one_.wav,p245,f,5,13,8.0,7.0,RX81,6,0.0,0.0,7.0,81.341492931939,babble-reversed_n13_p318-five-p229-three-p256-four-p268-eight-p248-one-p245-nine.wav,6,RX81,7,0.0,0.0,8.0,91.58892582949888,mgb_normalisation,91.58892582949886,90.34149293193902,1,9.0,False,1.046802282333374
,2024-08-07 12:38:01,sub_103_collocated,3,distance,cathedral,spatial_unmasking,4,120,0,0,_four_,talker-p245_sex-f_text-_four_.wav,p245,f,5,14,8.0,7.0,RX81,6,0.0,0.0,7.0,82.34149293193902,babble-reversed_n13_p256-nine-p307-four-p229-one-p284-three-p248-two-p245-five.wav,6,RX81,7,0.0,0.0,8.0,91.58892582949888,mgb_normalisation,91.58892582949886,90.34149293193902,4,5.0,False,0.9218087196350098
,2024-08-07 12:38:05,sub_103_collocated,3,distance,cathedral,spatial_unmasking,4,121,0,0,_nine_,talker-p245_sex-f_text-_nine_.wav,p245,f,5,15,8.0,7.0,RX81,6,0.0,0.0,7.0,83.34149293193902,babble-reversed_n13_p256-three-p318-two-p229-nine-p248-four-p284-one-p268-eight.wav,6,RX81,7,0.0,0.0,8.0,91.58892582949886,mgb_normalisation,91.58892582949886,90.34149293193902,9,9.0,True,1.0468018054962158
,2024-08-07 12:38:08,sub_103_collocated,3,distance,cathedral,spatial_unmasking,4,122,0,0,_six_,talker-p245_sex-f_text-_six_.wav,p245,f,5,16,8.0,7.0,RX81,6,0.0,0.0,7.0,83.34149293193902,babble-reversed_n13_p318-five-p256-nine-p307-eight-p248-two-p245-four-p284-three.wav,6,RX81,7,0.0,0.0,8.0,91.58892582949886,mgb_normalisation,91.58892582949886,90.34149293193902,6,6.0,True,0.9218111038208008
,2024-08-07 12:38:12,sub_103_collocated,3,distance,cathedral,spatial_unmasking,4,123,0,0,_four_,talker-p245_sex-f_text-_four_.wav,p245,f,5,17,8.0,7.0,RX81,6,0.0,0.0,7.0,82.34149293193902,babble-reversed_n13_p318-five-p229-four-p256-eight-p284-one-p245-three-p248-two.wav,6,RX81,7,0.0,0.0,8.0,91.58892582949888,mgb_normalisation,91.58892582949886,90.34149293193902,4,8.0,False,0.7811980247497559
,2024-08-07 12:38:16,sub_103_collocated,3,distance,cathedral,spatial_unmasking,4,124,0,0,_six_,talker-p245_sex-f_text-_six_.wav,p245,f,5,18,8.0,7.0,RX81,6,0.0,0.0,7.0,83.34149293193902,babble-reversed_n13_p229-five-p256-three-p318-nine-p248-two-p284-four-p268-one.wav,6,RX81,7,0.0,0.0,8.0,91.58892582949888,mgb_normalisation,91.58892582949886,90.34149293193902,6,6.0,True,1.093672275543213
,2024-08-07 12:38:19,sub_103_collocated,3,distance,cathedral,spatial_unmasking,4,125,0,0,_six_,talker-p245_sex-f_text-_six_.wav,p245,f,5,19,8.0,7.0,RX81,6,0.0,0.0,7.0,83.34149293193902,babble-reversed_n13_p318-four-p256-five-p229-three-p284-one-p245-eight-p248-nine.wav,6,RX81,7,0.0,0.0,8.0,91.58892582949888,mgb_normalisation,91.58892582949886,90.34149293193902,6,6.0,True,0.9218111038208008
,2024-08-07 12:38:23,sub_103_collocated,3,distance,cathedral,spatial_unmasking,4,126,0,0,_eight_,talker-p245_sex-f_text-_eight_.wav,p245,f,5,20,8.0,7.0,RX81,6,0.0,0.0,7.0,82.34149293193902,babble-reversed_n13_p229-eight-p256-nine-p318-four-p245-three-p268-five-p284-two.wav,6,RX81,7,0.0,0.0,8.0,91.58892582949886,mgb_normalisation,91.58892582949886,90.34149293193902,8,8.0,True,1.156169891357422
,2024-08-07 12:38:27,sub_103_collocated,3,distance,cathedral,spatial_unmasking,4,127,0,0,_six_,talker-p245_sex-f_text-_six_.wav,p245,f,5,21,8.0,7.0,RX81,6,0.0,0.0,7.0,82.34149293193902,babble-reversed_n13_p318-five-p229-three-p256-four-p268-eight-p248-one-p245-nine.wav,6,RX81,7,0.0,0.0,8.0,91.58892582949888,mgb_normalisation,91.58892582949886,90.34149293193902,6,6.0,True,1.0155541896820068
,2024-08-07 12:38:30,sub_103_collocated,3,distance,cathedral,spatial_unmasking,4,128,0,0,_five_,talker-p245_sex-f_text-_five_.wav,p245,f,5,22,8.0,7.0,RX81,6,0.0,0.0,7.0,81.34149293193902,babble-reversed_n13_p318-three-p307-one-p256-five-p248-nine-p245-two-p284-eight.wav,6,RX81,7,0.0,0.0,8.0,91.58892582949888,mgb_normalisation,91.58892582949886,90.34149293193902,5,8.0,False,0.9686839580535888
,2024-08-07 12:38:35,sub_103_collocated,3,distance,cathedral,spatial_unmasking,4,129,0,0,_nine_,talker-p245_sex-f_text-_nine_.wav,p245,f,5,23,8.0,7.0,RX81,6,0.0,0.0,7.0,82.34149293193902,babble-reversed_n13_p229-two-p307-five-p318-four-p284-one-p248-nine-p268-eight.wav,6,RX81,7,0.0,0.0,8.0,91.58892582949888,mgb_normalisation,91.58892582949886,90.34149293193902,9,3.0,False,1.8592443466186523
,2024-08-07 12:38:39,sub_103_collocated,3,distance,cathedral,spatial_unmasking,4,130,0,0,_six_,talker-p245_sex-f_text-_six_.wav,p245,f,5,24,8.0,7.0,RX81,6,0.0,0.0,7.0,83.34149293193902,babble-reversed_n13_p256-eight-p318-two-p307-five-p245-four-p268-nine-p284-one.wav,6,RX81,7,0.0,0.0,8.0,91.58892582949888,mgb_normalisation,91.58892582949886,90.34149293193902,6,6.0,True,1.031177997589111
,2024-08-07 12:38:42,sub_103_collocated,3,distance,cathedral,spatial_unmasking,4,131,0,0,_four_,talker-p245_sex-f_text-_four_.wav,p245,f,5,25,8.0,7.0,RX81,6,0.0,0.0,7.0,83.34149293193903,babble-reversed_n13_p256-nine-p307-four-p229-one-p284-three-p248-two-p245-five.wav,6,RX81,7,0.0,0.0,8.0,91.58892582949888,mgb_normalisation,91.58892582949886,90.34149293193902,4,8.0,False,1.109296798706055
,2024-08-07 12:38:46,sub_103_collocated,3,distance,cathedral,spatial_unmasking,4,132,0,0,_four_,talker-p245_sex-f_text-_four_.wav,p245,f,5,26,8.0,7.0,RX81,6,0.0,0.0,7.0,84.34149293193903,babble-reversed_n13_p256-nine-p307-four-p229-one-p284-three-p248-two-p245-five.wav,6,RX81,7,0.0,0.0,8.0,91.58892582949888,mgb_normalisation,91.58892582949886,90.34149293193902,4,8.0,False,1.2655367851257324
,2024-08-07 12:38:50,sub_103_collocated,3,distance,cathedral,spatial_unmasking,4,133,0,0,_six_,talker-p245_sex-f_text-_six_.wav,p245,f,5,27,8.0,7.0,RX81,6,0.0,0.0,7.0,85.341492931939,babble-reversed_n13_p318-five-p256-nine-p307-two-p245-eight-p248-one-p284-four.wav,6,RX81,7,0.0,0.0,8.0,91.58892582949888,mgb_normalisation,91.58892582949886,90.34149293193902,6,6.0,True,1.078049659729004
,2024-08-07 12:38:54,sub_103_collocated,3,distance,cathedral,spatial_unmasking,4,134,0,0,_five_,talker-p245_sex-f_text-_five_.wav,p245,f,5,28,8.0,7.0,RX81,6,0.0,0.0,7.0,85.34149293193903,babble-reversed_n13_p256-five-p307-nine-p318-three-p284-eight-p268-one-p248-two.wav,6,RX81,7,0.0,0.0,8.0,91.58892582949886,mgb_normalisation,91.58892582949886,90.34149293193902,5,5.0,True,1.4530243873596191
,2024-08-07 12:38:58,sub_103_collocated,3,distance,cathedral,spatial_unmasking,4,135,0,0,_five_,talker-p245_sex-f_text-_five_.wav,p245,f,5,29,8.0,7.0,RX81,6,0.0,0.0,7.0,84.341492931939,babble-reversed_n13_p318-five-p256-nine-p307-two-p245-eight-p248-one-p284-four.wav,6,RX81,7,0.0,0.0,8.0,91.58892582949888,mgb_normalisation,91.58892582949886,90.34149293193902,5,5.0,True,1.015554904937744
,2024-08-07 12:39:02,sub_103_collocated,3,distance,cathedral,spatial_unmasking,4,136,0,0,_two_,talker-p245_sex-f_text-_two_.wav,p245,f,5,30,8.0,7.0,RX81,6,0.0,0.0,7.0,84.341492931939,babble-reversed_n13_p307-two-p256-four-p318-three-p284-eight-p248-five-p245-nine.wav,6,RX81,7,0.0,0.0,8.0,91.58892582949888,mgb_normalisation,91.58892582949886,90.34149293193902,2,2.0,True,1.3280324935913086
,2024-08-07 12:39:06,sub_103_collocated,3,distance,cathedral,spatial_unmasking,4,137,0,0,_six_,talker-p245_sex-f_text-_six_.wav,p245,f,5,31,8.0,7.0,RX81,6,0.0,0.0,7.0,83.34149293193902,babble-reversed_n13_p229-nine-p256-four-p318-three-p268-eight-p248-two-p284-five.wav,6,RX81,7,0.0,0.0,8.0,91.58892582949888,mgb_normalisation,91.58892582949886,90.34149293193902,6,6.0,True,1.2499139308929443
,2024-08-07 12:39:11,sub_103_collocated,3,distance,cathedral,spatial_unmasking,4,138,0,0,_nine_,talker-p245_sex-f_text-_nine_.wav,p245,f,5,32,8.0,7.0,RX81,6,0.0,0.0,7.0,83.34149293193902,babble-reversed_n13_p307-nine-p229-one-p256-eight-p248-four-p284-two-p268-three.wav,6,RX81,7,0.0,0.0,8.0,91.58892582949888,mgb_normalisation,91.58892582949886,90.34149293193902,9,8.0,False,1.9529900550842283
,2024-08-07 12:39:14,sub_103_collocated,3,distance,cathedral,spatial_unmasking,4,139,0,0,_nine_,talker-p245_sex-f_text-_nine_.wav,p245,f,5,33,8.0,7.0,RX81,6,0.0,0.0,7.0,84.341492931939,babble-reversed_n13_p318-three-p229-one-p256-eight-p245-five-p248-four-p284-nine.wav,6,RX81,7,0.0,0.0,8.0,91.58892582949888,mgb_normalisation,91.58892582949886,90.34149293193902,9,9.0,True,0.9218106269836426
,2024-08-07 12:39:18,sub_103_collocated,3,distance,cathedral,spatial_unmasking,4,140,0,0,_nine_,talker-p245_sex-f_text-_nine_.wav,p245,f,5,34,8.0,7.0,RX81,6,0.0,0.0,7.0,84.341492931939,babble-reversed_n13_p256-five-p307-nine-p318-three-p284-eight-p268-one-p248-two.wav,6,RX81,7,0.0,0.0,8.0,91.58892582949886,mgb_normalisation,91.58892582949886,90.34149293193902,9,9.0,True,0.781196117401123
,2024-08-07 12:39:22,sub_103_collocated,3,distance,cathedral,spatial_unmasking,4,141,0,0,_two_,talker-p245_sex-f_text-_two_.wav,p245,f,5,35,8.0,7.0,RX81,6,0.0,0.0,7.0,83.34149293193902,babble-reversed_n13_p229-three-p256-one-p307-two-p284-eight-p268-five-p248-nine.wav,6,RX81,7,0.0,0.0,8.0,91.58892582949888,mgb_normalisation,91.58892582949886,90.34149293193902,2,2.0,True,1.1405456066131592
,2024-08-07 12:39:26,sub_103_collocated,3,distance,cathedral,spatial_unmasking,4,142,0,0,_nine_,talker-p245_sex-f_text-_nine_.wav,p245,f,5,36,8.0,7.0,RX81,6,0.0,0.0,7.0,83.34149293193902,babble-reversed_n13_p229-three-p307-one-p318-two-p245-eight-p268-five-p284-four.wav,6,RX81,7,0.0,0.0,8.0,91.58892582949888,mgb_normalisation,91.58892582949886,90.34149293193902,9,3.0,False,1.71863055229187
,2024-08-07 12:39:30,sub_103_collocated,3,distance,cathedral,spatial_unmasking,4,143,0,0,_two_,talker-p245_sex-f_text-_two_.wav,p245,f,5,37,8.0,7.0,RX81,6,0.0,0.0,7.0,84.341492931939,babble-reversed_n13_p256-three-p318-one-p307-two-p284-nine-p268-four-p245-eight.wav,6,RX81,7,0.0,0.0,8.0,91.58892582949888,mgb_normalisation,91.58892582949886,90.34149293193902,2,2.0,True,1.0936782360076904
,2024-08-07 12:39:33,sub_103_collocated,3,distance,cathedral,spatial_unmasking,4,144,0,0,_three_,talker-p245_sex-f_text-_three_.wav,p245,f,5,38,8.0,7.0,RX81,6,0.0,0.0,7.0,84.34149293193903,babble-reversed_n13_p229-five-p318-two-p307-eight-p268-three-p248-four-p245-one.wav,6,RX81,7,0.0,0.0,8.0,91.58892582949888,mgb_normalisation,91.58892582949886,90.34149293193902,3,3.0,True,1.046802997589111
,2024-08-07 12:41:42,sub_103_collocated,3,distance,cathedral,spatial_unmasking,5,145,0,0,_one_,talker-p245_sex-f_text-_one_.wav,p245,f,5,1,4.0,7.0,RX81,6,0.0,0.0,7.0,92.341492931939,babble-reversed_n13_p229-two-p307-five-p318-four-p284-one-p248-nine-p268-eight.wav,2,RX81,3,0.0,0.0,4.0,87.57049330475357,mgb_normalisation,87.57049330475357,90.34149293193902,1,1.0,True,1.9373672008514404
,2024-08-07 12:41:45,sub_103_collocated,3,distance,cathedral,spatial_unmasking,5,146,0,0,_three_,talker-p245_sex-f_text-_three_.wav,p245,f,5,2,4.0,7.0,RX81,6,0.0,0.0,7.0,88.34149293193903,babble-reversed_n13_p256-four-p307-eight-p318-two-p248-three-p284-nine-p268-one.wav,2,RX81,3,0.0,0.0,4.0,87.57049330475357,mgb_normalisation,87.57049330475357,90.34149293193902,3,3.0,True,1.0155534744262695
,2024-08-07 12:41:49,sub_103_collocated,3,distance,cathedral,spatial_unmasking,5,147,0,0,_nine_,talker-p245_sex-f_text-_nine_.wav,p245,f,5,3,4.0,7.0,RX81,6,0.0,0.0,7.0,84.341492931939,babble-reversed_n13_p229-two-p256-three-p318-eight-p284-five-p268-four-p245-one.wav,2,RX81,3,0.0,0.0,4.0,87.57049330475357,mgb_normalisation,87.57049330475357,90.34149293193902,9,9.0,True,0.9843072891235352
,2024-08-07 12:41:53,sub_103_collocated,3,distance,cathedral,spatial_unmasking,5,148,0,0,_five_,talker-p245_sex-f_text-_five_.wav,p245,f,5,4,4.0,7.0,RX81,6,0.0,0.0,7.0,80.34149293193903,babble-reversed_n13_p307-two-p256-four-p318-three-p284-eight-p248-five-p245-nine.wav,2,RX81,3,0.0,0.0,4.0,87.57049330475357,mgb_normalisation,87.57049330475357,90.34149293193902,5,8.0,False,1.3905270099639893
,2024-08-07 12:41:57,sub_103_collocated,3,distance,cathedral,spatial_unmasking,5,149,0,0,_four_,talker-p245_sex-f_text-_four_.wav,p245,f,5,5,4.0,7.0,RX81,6,0.0,0.0,7.0,82.34149293193902,babble-reversed_n13_p318-three-p307-one-p256-five-p248-nine-p245-two-p284-eight.wav,2,RX81,3,0.0,0.0,4.0,87.57049330475357,mgb_normalisation,87.57049330475357,90.34149293193902,4,8.0,False,1.0780482292175293
,2024-08-07 12:42:00,sub_103_collocated,3,distance,cathedral,spatial_unmasking,5,150,0,0,_nine_,talker-p245_sex-f_text-_nine_.wav,p245,f,5,6,4.0,7.0,RX81,6,0.0,0.0,7.0,84.341492931939,babble-reversed_n13_p229-five-p318-three-p307-two-p245-four-p284-nine-p248-eight.wav,2,RX81,3,0.0,0.0,4.0,87.57049330475357,mgb_normalisation,87.57049330475357,90.34149293193902,9,9.0,True,0.8436906337738037
,2024-08-07 12:42:04,sub_103_collocated,3,distance,cathedral,spatial_unmasking,5,151,0,0,_eight_,talker-p245_sex-f_text-_eight_.wav,p245,f,5,7,4.0,7.0,RX81,6,0.0,0.0,7.0,84.341492931939,babble-reversed_n13_p256-two-p307-five-p318-nine-p248-eight-p245-four-p284-one.wav,2,RX81,3,0.0,0.0,4.0,87.57049330475357,mgb_normalisation,87.57049330475357,90.34149293193902,8,8.0,True,0.953059196472168
,2024-08-07 12:42:08,sub_103_collocated,3,distance,cathedral,spatial_unmasking,5,152,0,0,_three_,talker-p245_sex-f_text-_three_.wav,p245,f,5,8,4.0,7.0,RX81,6,0.0,0.0,7.0,82.34149293193902,babble-reversed_n13_p256-four-p229-eight-p307-five-p248-three-p245-one-p284-two.wav,2,RX81,3,0.0,0.0,4.0,87.57049330475355,mgb_normalisation,87.57049330475357,90.34149293193902,3,3.0,True,1.3905282020568848
,2024-08-07 12:42:15,sub_103_collocated,3,distance,cathedral,spatial_unmasking,5,153,0,0,_nine_,talker-p245_sex-f_text-_nine_.wav,p245,f,5,9,4.0,7.0,RX81,6,0.0,0.0,7.0,82.34149293193902,babble-reversed_n13_p256-three-p318-two-p229-nine-p248-four-p284-one-p268-eight.wav,2,RX81,3,0.0,0.0,4.0,87.57049330475355,mgb_normalisation,87.57049330475357,90.34149293193902,9,4.0,False,4.218456983566284
,2024-08-07 12:42:19,sub_103_collocated,3,distance,cathedral,spatial_unmasking,5,154,0,0,_three_,talker-p245_sex-f_text-_three_.wav,p245,f,5,10,4.0,7.0,RX81,6,0.0,0.0,7.0,83.34149293193903,babble-reversed_n13_p229-nine-p318-one-p307-two-p248-eight-p245-five-p284-four.wav,2,RX81,3,0.0,0.0,4.0,87.57049330475357,mgb_normalisation,87.57049330475357,90.34149293193902,3,3.0,True,1.1405479907989502
,2024-08-07 12:42:23,sub_103_collocated,3,distance,cathedral,spatial_unmasking,5,155,0,0,_two_,talker-p245_sex-f_text-_two_.wav,p245,f,5,11,4.0,7.0,RX81,6,0.0,0.0,7.0,83.34149293193902,babble-reversed_n13_p229-two-p307-five-p318-four-p284-one-p248-nine-p268-eight.wav,2,RX81,3,0.0,0.0,4.0,87.57049330475357,mgb_normalisation,87.57049330475357,90.34149293193902,2,2.0,True,1.2811613082885742
,2024-08-07 12:42:27,sub_103_collocated,3,distance,cathedral,spatial_unmasking,5,156,0,0,_five_,talker-p245_sex-f_text-_five_.wav,p245,f,5,12,4.0,7.0,RX81,6,0.0,0.0,7.0,82.34149293193902,babble-reversed_n13_p229-one-p318-eight-p256-three-p268-two-p245-five-p248-nine.wav,2,RX81,3,0.0,0.0,4.0,87.57049330475355,mgb_normalisation,87.57049330475357,90.34149293193902,5,9.0,False,0.9686827659606934
,2024-08-07 12:42:31,sub_103_collocated,3,distance,cathedral,spatial_unmasking,5,157,0,0,_three_,talker-p245_sex-f_text-_three_.wav,p245,f,5,13,4.0,7.0,RX81,6,0.0,0.0,7.0,83.34149293193903,babble-reversed_n13_p307-five-p229-three-p318-nine-p245-four-p268-eight-p284-two.wav,2,RX81,3,0.0,0.0,4.0,87.57049330475355,mgb_normalisation,87.57049330475357,90.34149293193902,3,3.0,True,1.390528440475464
,2024-08-07 12:42:35,sub_103_collocated,3,distance,cathedral,spatial_unmasking,5,158,0,0,_eight_,talker-p245_sex-f_text-_eight_.wav,p245,f,5,14,4.0,7.0,RX81,6,0.0,0.0,7.0,83.34149293193902,babble-reversed_n13_p256-four-p229-eight-p307-five-p248-three-p245-one-p284-two.wav,2,RX81,3,0.0,0.0,4.0,87.57049330475355,mgb_normalisation,87.57049330475357,90.34149293193902,8,8.0,True,1.3280324935913086
,2024-08-07 12:42:39,sub_103_collocated,3,distance,cathedral,spatial_unmasking,5,159,0,0,_three_,talker-p245_sex-f_text-_three_.wav,p245,f,5,15,4.0,7.0,RX81,6,0.0,0.0,7.0,82.34149293193902,babble-reversed_n13_p307-nine-p318-two-p256-one-p245-three-p268-four-p248-eight.wav,2,RX81,3,0.0,0.0,4.0,87.57049330475355,mgb_normalisation,87.57049330475357,90.34149293193902,3,3.0,True,1.140547752380371
,2024-08-07 12:42:43,sub_103_collocated,3,distance,cathedral,spatial_unmasking,5,160,0,0,_six_,talker-p245_sex-f_text-_six_.wav,p245,f,5,16,4.0,7.0,RX81,6,0.0,0.0,7.0,82.34149293193902,babble-reversed_n13_p229-one-p318-nine-p256-four-p284-eight-p268-five-p245-two.wav,2,RX81,3,0.0,0.0,4.0,87.57049330475357,mgb_normalisation,87.57049330475357,90.34149293193902,6,6.0,True,1.1717925071716309
,2024-08-07 12:42:46,sub_103_collocated,3,distance,cathedral,spatial_unmasking,5,161,0,0,_one_,talker-p245_sex-f_text-_one_.wav,p245,f,5,17,4.0,7.0,RX81,6,0.0,0.0,7.0,81.341492931939,babble-reversed_n13_p229-three-p256-one-p307-two-p284-eight-p268-five-p248-nine.wav,2,RX81,3,0.0,0.0,4.0,87.57049330475357,mgb_normalisation,87.57049330475357,90.34149293193902,1,1.0,True,0.984306573867798
,2024-08-07 12:42:50,sub_103_collocated,3,distance,cathedral,spatial_unmasking,5,162,0,0,_three_,talker-p245_sex-f_text-_three_.wav,p245,f,5,18,4.0,7.0,RX81,6,0.0,0.0,7.0,81.34149293193902,babble-reversed_n13_p229-two-p256-three-p318-eight-p284-five-p268-four-p245-one.wav,2,RX81,3,0.0,0.0,4.0,87.57049330475357,mgb_normalisation,87.57049330475357,90.34149293193902,3,3.0,True,0.8280670642852783
,2024-08-07 12:42:53,sub_103_collocated,3,distance,cathedral,spatial_unmasking,5,163,0,0,_three_,talker-p245_sex-f_text-_three_.wav,p245,f,5,19,4.0,7.0,RX81,6,0.0,0.0,7.0,80.34149293193903,babble-reversed_n13_p229-nine-p307-five-p256-two-p248-three-p245-one-p268-eight.wav,2,RX81,3,0.0,0.0,4.0,87.57049330475357,mgb_normalisation,87.57049330475357,90.34149293193902,3,3.0,True,0.85931396484375
,2024-08-07 12:42:57,sub_103_collocated,3,distance,cathedral,spatial_unmasking,5,164,0,0,_two_,talker-p245_sex-f_text-_two_.wav,p245,f,5,20,4.0,7.0,RX81,6,0.0,0.0,7.0,80.341492931939,babble-reversed_n13_p229-nine-p256-four-p318-three-p268-eight-p248-two-p284-five.wav,2,RX81,3,0.0,0.0,4.0,87.57049330475357,mgb_normalisation,87.57049330475357,90.34149293193902,2,2.0,True,0.9061880111694336
,2024-08-07 12:43:01,sub_103_collocated,3,distance,cathedral,spatial_unmasking,5,165,0,0,_two_,talker-p245_sex-f_text-_two_.wav,p245,f,5,21,4.0,7.0,RX81,6,0.0,0.0,7.0,79.341492931939,babble-reversed_n13_p229-five-p318-three-p307-two-p245-four-p284-nine-p248-eight.wav,2,RX81,3,0.0,0.0,4.0,87.57049330475357,mgb_normalisation,87.57049330475357,90.34149293193902,2,2.0,True,0.8124444484710693
,2024-08-07 12:43:05,sub_103_collocated,3,distance,cathedral,spatial_unmasking,5,166,0,0,_nine_,talker-p245_sex-f_text-_nine_.wav,p245,f,5,22,4.0,7.0,RX81,6,0.0,0.0,7.0,79.34149293193902,babble-reversed_n13_p318-three-p229-one-p256-eight-p245-five-p248-four-p284-nine.wav,2,RX81,3,0.0,0.0,4.0,87.57049330475357,mgb_normalisation,87.57049330475357,90.34149293193902,9,9.0,True,1.5780143737792969
,2024-08-07 12:43:09,sub_103_collocated,3,distance,cathedral,spatial_unmasking,5,167,0,0,_nine_,talker-p245_sex-f_text-_nine_.wav,p245,f,5,23,4.0,7.0,RX81,6,0.0,0.0,7.0,78.34149293193902,babble-reversed_n13_p229-one-p318-nine-p256-four-p284-eight-p268-five-p245-two.wav,2,RX81,3,0.0,0.0,4.0,87.57049330475357,mgb_normalisation,87.57049330475357,90.34149293193902,9,8.0,False,1.4842731952667236
,2024-08-07 12:43:13,sub_103_collocated,3,distance,cathedral,spatial_unmasking,5,168,0,0,_six_,talker-p245_sex-f_text-_six_.wav,p245,f,5,24,4.0,7.0,RX81,6,0.0,0.0,7.0,79.341492931939,babble-reversed_n13_p256-five-p307-nine-p318-three-p284-eight-p268-one-p248-two.wav,2,RX81,3,0.0,0.0,4.0,87.57049330475357,mgb_normalisation,87.57049330475357,90.34149293193902,6,6.0,True,1.3124096393585205
,2024-08-07 12:43:17,sub_103_collocated,3,distance,cathedral,spatial_unmasking,5,169,0,0,_five_,talker-p245_sex-f_text-_five_.wav,p245,f,5,25,4.0,7.0,RX81,6,0.0,0.0,7.0,79.34149293193902,babble-reversed_n13_p229-nine-p256-four-p318-three-p268-eight-p248-two-p284-five.wav,2,RX81,3,0.0,0.0,4.0,87.57049330475357,mgb_normalisation,87.57049330475357,90.34149293193902,5,9.0,False,0.9686834812164308
,2024-08-07 12:43:21,sub_103_collocated,3,distance,cathedral,spatial_unmasking,5,170,0,0,_one_,talker-p245_sex-f_text-_one_.wav,p245,f,5,26,4.0,7.0,RX81,6,0.0,0.0,7.0,80.341492931939,babble-reversed_n13_p229-nine-p318-one-p307-two-p248-eight-p245-five-p284-four.wav,2,RX81,3,0.0,0.0,4.0,87.57049330475357,mgb_normalisation,87.57049330475357,90.34149293193902,1,4.0,False,1.843623399734497
,2024-08-07 12:43:26,sub_103_collocated,3,distance,cathedral,spatial_unmasking,5,171,0,0,_eight_,talker-p245_sex-f_text-_eight_.wav,p245,f,5,27,4.0,7.0,RX81,6,0.0,0.0,7.0,81.34149293193902,babble-reversed_n13_p256-four-p229-eight-p307-five-p248-three-p245-one-p284-two.wav,2,RX81,3,0.0,0.0,4.0,87.57049330475355,mgb_normalisation,87.57049330475357,90.34149293193902,8,8.0,True,2.062357187271118
,2024-08-07 12:43:31,sub_103_collocated,3,distance,cathedral,spatial_unmasking,5,172,0,0,_nine_,talker-p245_sex-f_text-_nine_.wav,p245,f,5,28,4.0,7.0,RX81,6,0.0,0.0,7.0,81.34149293193902,babble-reversed_n13_p229-two-p307-five-p318-four-p284-one-p248-nine-p268-eight.wav,2,RX81,3,0.0,0.0,4.0,87.57049330475357,mgb_normalisation,87.57049330475357,90.34149293193902,9,3.0,False,2.437330961227417
,2024-08-07 12:43:35,sub_103_collocated,3,distance,cathedral,spatial_unmasking,5,173,0,0,_five_,talker-p245_sex-f_text-_five_.wav,p245,f,5,29,4.0,7.0,RX81,6,0.0,0.0,7.0,82.34149293193902,babble-reversed_n13_p256-five-p307-nine-p318-three-p284-eight-p268-one-p248-two.wav,2,RX81,3,0.0,0.0,4.0,87.57049330475357,mgb_normalisation,87.57049330475357,90.34149293193902,5,9.0,False,1.71863055229187
,2024-08-07 12:43:39,sub_103_collocated,3,distance,cathedral,spatial_unmasking,5,174,0,0,_two_,talker-p245_sex-f_text-_two_.wav,p245,f,5,30,4.0,7.0,RX81,6,0.0,0.0,7.0,83.34149293193902,babble-reversed_n13_p229-two-p318-eight-p256-three-p268-one-p248-nine-p284-five.wav,2,RX81,3,0.0,0.0,4.0,87.57049330475355,mgb_normalisation,87.57049330475357,90.34149293193902,2,2.0,True,0.7968196868896484
,2024-08-07 12:43:43,sub_103_collocated,3,distance,cathedral,spatial_unmasking,5,175,0,0,_six_,talker-p245_sex-f_text-_six_.wav,p245,f,5,31,4.0,7.0,RX81,6,0.0,0.0,7.0,83.34149293193902,babble-reversed_n13_p229-three-p256-nine-p318-five-p248-one-p245-eight-p284-two.wav,2,RX81,3,0.0,0.0,4.0,87.57049330475357,mgb_normalisation,87.57049330475357,90.34149293193902,6,6.0,True,0.9843063354492188
,2024-08-07 12:43:47,sub_103_collocated,3,distance,cathedral,spatial_unmasking,5,176,0,0,_three_,talker-p245_sex-f_text-_three_.wav,p245,f,5,32,4.0,7.0,RX81,6,0.0,0.0,7.0,82.34149293193902,babble-reversed_n13_p318-five-p229-three-p256-four-p268-eight-p248-one-p245-nine.wav,2,RX81,3,0.0,0.0,4.0,87.57049330475357,mgb_normalisation,87.57049330475357,90.34149293193902,3,3.0,True,2.265467643737793
,2024-08-07 12:43:51,sub_103_collocated,3,distance,cathedral,spatial_unmasking,5,177,0,0,_nine_,talker-p245_sex-f_text-_nine_.wav,p245,f,5,33,4.0,7.0,RX81,6,0.0,0.0,7.0,82.34149293193902,babble-reversed_n13_p229-one-p318-eight-p256-three-p268-two-p245-five-p248-nine.wav,2,RX81,3,0.0,0.0,4.0,87.57049330475355,mgb_normalisation,87.57049330475357,90.34149293193902,9,9.0,True,1.1249208450317385
,2024-08-07 12:43:55,sub_103_collocated,3,distance,cathedral,spatial_unmasking,5,178,0,0,_five_,talker-p245_sex-f_text-_five_.wav,p245,f,5,34,4.0,7.0,RX81,6,0.0,0.0,7.0,81.34149293193902,babble-reversed_n13_p229-one-p318-eight-p256-three-p268-two-p245-five-p248-nine.wav,2,RX81,3,0.0,0.0,4.0,87.57049330475355,mgb_normalisation,87.57049330475357,90.34149293193902,5,9.0,False,0.9374344348907472
,2024-08-07 12:43:59,sub_103_collocated,3,distance,cathedral,spatial_unmasking,5,179,0,0,_nine_,talker-p245_sex-f_text-_nine_.wav,p245,f,5,35,4.0,7.0,RX81,6,0.0,0.0,7.0,82.34149293193902,babble-reversed_n13_p256-three-p318-one-p307-two-p284-nine-p268-four-p245-eight.wav,2,RX81,3,0.0,0.0,4.0,87.57049330475357,mgb_normalisation,87.57049330475357,90.34149293193902,9,5.0,False,1.9217429161071773
,2024-08-07 12:44:03,sub_103_collocated,3,distance,cathedral,spatial_unmasking,5,180,0,0,_four_,talker-p245_sex-f_text-_four_.wav,p245,f,5,36,4.0,7.0,RX81,6,0.0,0.0,7.0,83.34149293193903,babble-reversed_n13_p318-three-p229-one-p256-eight-p245-five-p248-four-p284-nine.wav,2,RX81,3,0.0,0.0,4.0,87.57049330475357,mgb_normalisation,87.57049330475357,90.34149293193902,4,4.0,True,0.9530584812164308
,2024-08-07 12:44:07,sub_103_collocated,3,distance,cathedral,spatial_unmasking,5,181,0,0,_four_,talker-p245_sex-f_text-_four_.wav,p245,f,5,37,4.0,7.0,RX81,6,0.0,0.0,7.0,83.34149293193903,babble-reversed_n13_p229-three-p307-one-p318-two-p245-eight-p268-five-p284-four.wav,2,RX81,3,0.0,0.0,4.0,87.57049330475357,mgb_normalisation,87.57049330475357,90.34149293193902,4,4.0,True,1.6873817443847656
,2024-08-07 12:44:11,sub_103_collocated,3,distance,cathedral,spatial_unmasking,5,182,0,0,_four_,talker-p245_sex-f_text-_four_.wav,p245,f,5,38,4.0,7.0,RX81,6,0.0,0.0,7.0,82.34149293193902,babble-reversed_n13_p229-two-p256-three-p318-eight-p284-five-p268-four-p245-one.wav,2,RX81,3,0.0,0.0,4.0,87.57049330475357,mgb_normalisation,87.57049330475357,90.34149293193902,4,3.0,False,1.0936729907989502
,2024-08-07 12:44:15,sub_103_collocated,3,distance,cathedral,spatial_unmasking,5,183,0,0,_two_,talker-p245_sex-f_text-_two_.wav,p245,f,5,39,4.0,7.0,RX81,6,0.0,0.0,7.0,83.34149293193902,babble-reversed_n13_p318-three-p229-one-p256-eight-p245-five-p248-four-p284-nine.wav,2,RX81,3,0.0,0.0,4.0,87.57049330475357,mgb_normalisation,87.57049330475357,90.34149293193902,2,2.0,True,1.1561686992645264
,2024-08-07 12:44:19,sub_103_collocated,3,distance,cathedral,spatial_unmasking,5,184,0,0,_four_,talker-p245_sex-f_text-_four_.wav,p245,f,5,40,4.0,7.0,RX81,6,0.0,0.0,7.0,83.34149293193903,babble-reversed_n13_p256-eight-p318-two-p307-five-p245-four-p268-nine-p284-one.wav,2,RX81,3,0.0,0.0,4.0,87.57049330475357,mgb_normalisation,87.57049330475357,90.34149293193902,4,8.0,False,1.0468013286590576
,2024-08-07 12:44:23,sub_103_collocated,3,distance,cathedral,spatial_unmasking,5,185,0,0,_six_,talker-p245_sex-f_text-_six_.wav,p245,f,5,41,4.0,7.0,RX81,6,0.0,0.0,7.0,84.341492931939,babble-reversed_n13_p229-one-p318-eight-p256-three-p268-two-p245-five-p248-nine.wav,2,RX81,3,0.0,0.0,4.0,87.57049330475355,mgb_normalisation,87.57049330475357,90.34149293193902,6,6.0,True,1.1717944145202637
,2024-08-07 12:44:26,sub_103_collocated,3,distance,cathedral,spatial_unmasking,5,186,0,0,_two_,talker-p245_sex-f_text-_two_.wav,p245,f,5,42,4.0,7.0,RX81,6,0.0,0.0,7.0,84.341492931939,babble-reversed_n13_p307-five-p229-two-p318-four-p248-three-p245-nine-p268-eight.wav,2,RX81,3,0.0,0.0,4.0,87.57049330475355,mgb_normalisation,87.57049330475357,90.34149293193902,2,2.0,True,0.906186580657959
,2024-08-07 12:45:39,sub_103_collocated,3,distance,cathedral,spatial_unmasking,6,187,0,0,_three_,talker-p245_sex-f_text-_three_.wav,p245,f,5,1,12.0,7.0,RX81,6,0.0,0.0,7.0,92.34149293193902,babble-reversed_n13_p256-four-p307-eight-p318-two-p248-three-p284-nine-p268-one.wav,10,RX81,11,0.0,0.0,12.0,93.00003341222718,mgb_normalisation,93.00003341222715,90.34149293193902,3,3.0,True,1.359280347824097
,2024-08-07 12:45:43,sub_103_collocated,3,distance,cathedral,spatial_unmasking,6,188,0,0,_six_,talker-p245_sex-f_text-_six_.wav,p245,f,5,2,12.0,7.0,RX81,6,0.0,0.0,7.0,88.34149293193902,babble-reversed_n13_p229-nine-p256-four-p318-three-p268-eight-p248-two-p284-five.wav,10,RX81,11,0.0,0.0,12.0,93.00003341222718,mgb_normalisation,93.00003341222715,90.34149293193902,6,6.0,True,1.4756650924682615
,2024-08-07 12:45:47,sub_103_collocated,3,distance,cathedral,spatial_unmasking,6,189,0,0,_five_,talker-p245_sex-f_text-_five_.wav,p245,f,5,3,12.0,7.0,RX81,6,0.0,0.0,7.0,84.341492931939,babble-reversed_n13_p229-three-p307-one-p318-two-p245-eight-p268-five-p284-four.wav,10,RX81,11,0.0,0.0,12.0,93.00003341222718,mgb_normalisation,93.00003341222715,90.34149293193902,5,5.0,True,1.2499125003814695
,2024-08-07 12:45:51,sub_103_collocated,3,distance,cathedral,spatial_unmasking,6,190,0,0,_six_,talker-p245_sex-f_text-_six_.wav,p245,f,5,4,12.0,7.0,RX81,6,0.0,0.0,7.0,80.341492931939,babble-reversed_n13_p318-five-p256-nine-p307-eight-p248-two-p245-four-p284-three.wav,10,RX81,11,0.0,0.0,12.0,93.00003341222718,mgb_normalisation,93.00003341222715,90.34149293193902,6,6.0,True,0.984307050704956
,2024-08-07 12:45:55,sub_103_collocated,3,distance,cathedral,spatial_unmasking,6,191,0,0,_eight_,talker-p245_sex-f_text-_eight_.wav,p245,f,5,5,12.0,7.0,RX81,6,0.0,0.0,7.0,76.34149293193902,babble-reversed_n13_p229-nine-p318-one-p307-two-p248-eight-p245-five-p284-four.wav,10,RX81,11,0.0,0.0,12.0,93.00003341222718,mgb_normalisation,93.00003341222715,90.34149293193902,8,8.0,True,1.859244585037232
,2024-08-07 12:46:00,sub_103_collocated,3,distance,cathedral,spatial_unmasking,6,192,0,0,_nine_,talker-p245_sex-f_text-_nine_.wav,p245,f,5,6,12.0,7.0,RX81,6,0.0,0.0,7.0,72.34149293193902,babble-reversed_n13_p307-nine-p318-two-p256-one-p245-three-p268-four-p248-eight.wav,10,RX81,11,0.0,0.0,12.0,93.00003341222715,mgb_normalisation,93.00003341222715,90.34149293193902,9,8.0,False,1.5936403274536133
,2024-08-07 12:46:04,sub_103_collocated,3,distance,cathedral,spatial_unmasking,6,193,0,0,_eight_,talker-p245_sex-f_text-_eight_.wav,p245,f,5,7,12.0,7.0,RX81,6,0.0,0.0,7.0,74.34149293193902,babble-reversed_n13_p229-five-p318-two-p307-eight-p268-three-p248-four-p245-one.wav,10,RX81,11,0.0,0.0,12.0,93.00003341222718,mgb_normalisation,93.00003341222715,90.34149293193902,8,4.0,False,1.546766996383667
,2024-08-07 12:46:08,sub_103_collocated,3,distance,cathedral,spatial_unmasking,6,194,0,0,_nine_,talker-p245_sex-f_text-_nine_.wav,p245,f,5,8,12.0,7.0,RX81,6,0.0,0.0,7.0,76.34149293193902,babble-reversed_n13_p256-four-p229-eight-p307-five-p248-three-p245-one-p284-two.wav,10,RX81,11,0.0,0.0,12.0,93.00003341222715,mgb_normalisation,93.00003341222715,90.34149293193902,9,3.0,False,1.2186636924743652
,2024-08-07 12:46:12,sub_103_collocated,3,distance,cathedral,spatial_unmasking,6,195,0,0,_four_,talker-p245_sex-f_text-_four_.wav,p245,f,5,9,12.0,7.0,RX81,6,0.0,0.0,7.0,78.34149293193902,babble-reversed_n13_p307-nine-p318-two-p256-one-p245-three-p268-four-p248-eight.wav,10,RX81,11,0.0,0.0,12.0,93.00003341222715,mgb_normalisation,93.00003341222715,90.34149293193902,4,1.0,False,1.093672513961792
,2024-08-07 12:46:16,sub_103_collocated,3,distance,cathedral,spatial_unmasking,6,196,0,0,_eight_,talker-p245_sex-f_text-_eight_.wav,p245,f,5,10,12.0,7.0,RX81,6,0.0,0.0,7.0,80.34149293193903,babble-reversed_n13_p229-two-p318-eight-p256-three-p268-one-p248-nine-p284-five.wav,10,RX81,11,0.0,0.0,12.0,93.00003341222715,mgb_normalisation,93.00003341222715,90.34149293193902,8,8.0,True,1.2967844009399414
,2024-08-07 12:46:21,sub_103_collocated,3,distance,cathedral,spatial_unmasking,6,197,0,0,_two_,talker-p245_sex-f_text-_two_.wav,p245,f,5,11,12.0,7.0,RX81,6,0.0,0.0,7.0,80.341492931939,babble-reversed_n13_p256-eight-p318-two-p307-five-p245-four-p268-nine-p284-one.wav,10,RX81,11,0.0,0.0,12.0,93.00003341222718,mgb_normalisation,93.00003341222715,90.34149293193902,2,3.0,False,2.671689033508301
,2024-08-07 12:46:25,sub_103_collocated,3,distance,cathedral,spatial_unmasking,6,198,0,0,_two_,talker-p245_sex-f_text-_two_.wav,p245,f,5,12,12.0,7.0,RX81,6,0.0,0.0,7.0,82.341492931939,babble-reversed_n13_p307-two-p256-four-p318-three-p284-eight-p248-five-p245-nine.wav,10,RX81,11,0.0,0.0,12.0,93.00003341222718,mgb_normalisation,93.00003341222715,90.34149293193902,2,2.0,True,0.984306573867798
,2024-08-07 12:46:29,sub_103_collocated,3,distance,cathedral,spatial_unmasking,6,199,0,0,_three_,talker-p245_sex-f_text-_three_.wav,p245,f,5,13,12.0,7.0,RX81,6,0.0,0.0,7.0,82.34149293193902,babble-reversed_n13_p307-one-p318-five-p229-four-p268-eight-p284-two-p245-three.wav,10,RX81,11,0.0,0.0,12.0,93.00003341222715,mgb_normalisation,93.00003341222715,90.34149293193902,3,3.0,True,0.93743634223938
,2024-08-07 12:46:35,sub_103_collocated,3,distance,cathedral,spatial_unmasking,6,200,0,0,_one_,talker-p245_sex-f_text-_one_.wav,p245,f,5,14,12.0,7.0,RX81,6,0.0,0.0,7.0,80.341492931939,babble-reversed_n13_p307-five-p229-two-p318-four-p248-three-p245-nine-p268-eight.wav,10,RX81,11,0.0,0.0,12.0,93.00003341222715,mgb_normalisation,93.00003341222715,90.34149293193902,1,3.0,False,3.952850818634033
,2024-08-07 12:46:39,sub_103_collocated,3,distance,cathedral,spatial_unmasking,6,201,0,0,_nine_,talker-p245_sex-f_text-_nine_.wav,p245,f,5,15,12.0,7.0,RX81,6,0.0,0.0,7.0,81.34149293193902,babble-reversed_n13_p256-three-p318-one-p307-two-p284-nine-p268-four-p245-eight.wav,10,RX81,11,0.0,0.0,12.0,93.00003341222718,mgb_normalisation,93.00003341222715,90.34149293193902,9,9.0,True,1.0780491828918457
,2024-08-07 12:46:43,sub_103_collocated,3,distance,cathedral,spatial_unmasking,6,202,0,0,_four_,talker-p245_sex-f_text-_four_.wav,p245,f,5,16,12.0,7.0,RX81,6,0.0,0.0,7.0,81.34149293193902,babble-reversed_n13_p307-two-p256-four-p318-three-p284-eight-p248-five-p245-nine.wav,10,RX81,11,0.0,0.0,12.0,93.00003341222718,mgb_normalisation,93.00003341222715,90.34149293193902,4,4.0,True,1.281163454055786
,2024-08-07 12:46:47,sub_103_collocated,3,distance,cathedral,spatial_unmasking,6,203,0,0,_six_,talker-p245_sex-f_text-_six_.wav,p245,f,5,17,12.0,7.0,RX81,6,0.0,0.0,7.0,80.341492931939,babble-reversed_n13_p229-one-p318-eight-p256-three-p268-nine-p248-five-p284-four.wav,10,RX81,11,0.0,0.0,12.0,93.00003341222715,mgb_normalisation,93.00003341222715,90.34149293193902,6,6.0,True,0.921811580657959
,2024-08-07 12:46:51,sub_103_collocated,3,distance,cathedral,spatial_unmasking,6,204,0,0,_three_,talker-p245_sex-f_text-_three_.wav,p245,f,5,18,12.0,7.0,RX81,6,0.0,0.0,7.0,80.34149293193903,babble-reversed_n13_p256-nine-p307-four-p229-one-p284-three-p248-two-p245-five.wav,10,RX81,11,0.0,0.0,12.0,93.00003341222718,mgb_normalisation,93.00003341222715,90.34149293193902,3,3.0,True,1.093674659729004
,2024-08-07 12:46:54,sub_103_collocated,3,distance,cathedral,spatial_unmasking,6,205,0,0,_six_,talker-p245_sex-f_text-_six_.wav,p245,f,5,19,12.0,7.0,RX81,6,0.0,0.0,7.0,79.341492931939,babble-reversed_n13_p307-two-p229-one-p256-five-p248-nine-p284-three-p268-eight.wav,10,RX81,11,0.0,0.0,12.0,93.00003341222718,mgb_normalisation,93.00003341222715,90.34149293193902,6,6.0,True,1.1405456066131592
,2024-08-07 12:46:58,sub_103_collocated,3,distance,cathedral,spatial_unmasking,6,206,0,0,_three_,talker-p245_sex-f_text-_three_.wav,p245,f,5,20,12.0,7.0,RX81,6,0.0,0.0,7.0,79.34149293193902,babble-reversed_n13_p256-five-p229-one-p318-three-p248-nine-p284-eight-p268-two.wav,10,RX81,11,0.0,0.0,12.0,93.00003341222718,mgb_normalisation,93.00003341222715,90.34149293193902,3,3.0,True,0.9374353885650636
,2024-08-07 12:47:03,sub_103_collocated,3,distance,cathedral,spatial_unmasking,6,207,0,0,_one_,talker-p245_sex-f_text-_one_.wav,p245,f,5,21,12.0,7.0,RX81,6,0.0,0.0,7.0,78.341492931939,babble-reversed_n13_p307-one-p318-five-p229-four-p268-eight-p284-two-p245-three.wav,10,RX81,11,0.0,0.0,12.0,93.00003341222715,mgb_normalisation,93.00003341222715,90.34149293193902,1,1.0,True,1.765502691268921
,2024-08-07 12:47:06,sub_103_collocated,3,distance,cathedral,spatial_unmasking,6,208,0,0,_two_,talker-p245_sex-f_text-_two_.wav,p245,f,5,22,12.0,7.0,RX81,6,0.0,0.0,7.0,78.341492931939,babble-reversed_n13_p307-four-p318-three-p256-eight-p284-two-p245-nine-p248-five.wav,10,RX81,11,0.0,0.0,12.0,93.00003341222715,mgb_normalisation,93.00003341222715,90.34149293193902,2,3.0,False,1.1561713218688965
,2024-08-07 12:47:10,sub_103_collocated,3,distance,cathedral,spatial_unmasking,6,209,0,0,_six_,talker-p245_sex-f_text-_six_.wav,p245,f,5,23,12.0,7.0,RX81,6,0.0,0.0,7.0,79.341492931939,babble-reversed_n13_p307-five-p229-three-p318-nine-p245-four-p268-eight-p284-two.wav,10,RX81,11,0.0,0.0,12.0,93.00003341222715,mgb_normalisation,93.00003341222715,90.34149293193902,6,6.0,True,1.2186639308929443
,2024-08-07 12:47:14,sub_103_collocated,3,distance,cathedral,spatial_unmasking,6,210,0,0,_five_,talker-p245_sex-f_text-_five_.wav,p245,f,5,24,12.0,7.0,RX81,6,0.0,0.0,7.0,79.34149293193902,babble-reversed_n13_p229-one-p318-nine-p256-four-p284-eight-p268-five-p245-two.wav,10,RX81,11,0.0,0.0,12.0,93.00003341222715,mgb_normalisation,93.00003341222715,90.34149293193902,5,5.0,True,1.078049659729004
,2024-08-07 12:47:18,sub_103_collocated,3,distance,cathedral,spatial_unmasking,6,211,0,0,_nine_,talker-p245_sex-f_text-_nine_.wav,p245,f,5,25,12.0,7.0,RX81,6,0.0,0.0,7.0,78.34149293193902,babble-reversed_n13_p229-three-p256-one-p307-two-p284-eight-p268-five-p248-nine.wav,10,RX81,11,0.0,0.0,12.0,93.00003341222718,mgb_normalisation,93.00003341222715,90.34149293193902,9,9.0,True,0.9686813354492188
,2024-08-07 12:47:22,sub_103_collocated,3,distance,cathedral,spatial_unmasking,6,212,0,0,_eight_,talker-p245_sex-f_text-_eight_.wav,p245,f,5,26,12.0,7.0,RX81,6,0.0,0.0,7.0,78.34149293193902,babble-reversed_n13_p229-one-p318-eight-p256-three-p268-two-p245-five-p248-nine.wav,10,RX81,11,0.0,0.0,12.0,93.00003341222715,mgb_normalisation,93.00003341222715,90.34149293193902,8,3.0,False,1.2967846393585205
,2024-08-07 12:47:25,sub_103_collocated,3,distance,cathedral,spatial_unmasking,6,213,0,0,_six_,talker-p245_sex-f_text-_six_.wav,p245,f,5,27,12.0,7.0,RX81,6,0.0,0.0,7.0,79.341492931939,babble-reversed_n13_p318-five-p256-nine-p307-two-p245-eight-p248-one-p284-four.wav,10,RX81,11,0.0,0.0,12.0,93.00003341222718,mgb_normalisation,93.00003341222715,90.34149293193902,6,6.0,True,0.9843063354492188
,2024-08-07 12:47:30,sub_103_collocated,3,distance,cathedral,spatial_unmasking,6,214,0,0,_nine_,talker-p245_sex-f_text-_nine_.wav,p245,f,5,28,12.0,7.0,RX81,6,0.0,0.0,7.0,79.34149293193902,babble-reversed_n13_p256-four-p307-eight-p318-two-p248-three-p284-nine-p268-one.wav,10,RX81,11,0.0,0.0,12.0,93.00003341222718,mgb_normalisation,93.00003341222715,90.34149293193902,9,3.0,False,1.609261989593506
,2024-08-07 12:47:33,sub_103_collocated,3,distance,cathedral,spatial_unmasking,6,215,0,0,_four_,talker-p245_sex-f_text-_four_.wav,p245,f,5,29,12.0,7.0,RX81,6,0.0,0.0,7.0,80.34149293193903,babble-reversed_n13_p256-four-p307-eight-p318-two-p248-three-p284-nine-p268-one.wav,10,RX81,11,0.0,0.0,12.0,93.00003341222718,mgb_normalisation,93.00003341222715,90.34149293193902,4,3.0,False,0.8280682563781738
,2024-08-07 12:47:37,sub_103_collocated,3,distance,cathedral,spatial_unmasking,6,216,0,0,_two_,talker-p245_sex-f_text-_two_.wav,p245,f,5,30,12.0,7.0,RX81,6,0.0,0.0,7.0,81.341492931939,babble-reversed_n13_p256-eight-p318-two-p307-five-p245-four-p268-nine-p284-one.wav,10,RX81,11,0.0,0.0,12.0,93.00003341222718,mgb_normalisation,93.00003341222715,90.34149293193902,2,2.0,True,1.109297275543213
,2024-08-07 12:47:41,sub_103_collocated,3,distance,cathedral,spatial_unmasking,6,217,0,0,_one_,talker-p245_sex-f_text-_one_.wav,p245,f,5,31,12.0,7.0,RX81,6,0.0,0.0,7.0,81.341492931939,babble-reversed_n13_p229-three-p256-one-p307-two-p284-eight-p268-five-p248-nine.wav,10,RX81,11,0.0,0.0,12.0,93.00003341222718,mgb_normalisation,93.00003341222715,90.34149293193902,1,1.0,True,0.984306573867798
,2024-08-07 12:47:45,sub_103_collocated,3,distance,cathedral,spatial_unmasking,6,218,0,0,_eight_,talker-p245_sex-f_text-_eight_.wav,p245,f,5,32,12.0,7.0,RX81,6,0.0,0.0,7.0,80.34149293193903,babble-reversed_n13_p229-two-p256-three-p318-eight-p284-five-p268-four-p245-one.wav,10,RX81,11,0.0,0.0,12.0,93.00003341222718,mgb_normalisation,93.00003341222715,90.34149293193902,8,8.0,True,1.3749048709869385
,2024-08-07 12:47:50,sub_103_collocated,3,distance,cathedral,spatial_unmasking,6,219,0,0,_one_,talker-p245_sex-f_text-_one_.wav,p245,f,5,33,12.0,7.0,RX81,6,0.0,0.0,7.0,80.341492931939,babble-reversed_n13_p318-five-p256-nine-p307-eight-p248-two-p245-four-p284-three.wav,10,RX81,11,0.0,0.0,12.0,93.00003341222718,mgb_normalisation,93.00003341222715,90.34149293193902,1,2.0,False,2.5154500007629395
,2024-08-07 12:47:54,sub_103_collocated,3,distance,cathedral,spatial_unmasking,6,220,0,0,_five_,talker-p245_sex-f_text-_five_.wav,p245,f,5,34,12.0,7.0,RX81,6,0.0,0.0,7.0,81.34149293193902,babble-reversed_n13_p307-nine-p318-two-p256-one-p245-three-p268-four-p248-eight.wav,10,RX81,11,0.0,0.0,12.0,93.00003341222715,mgb_normalisation,93.00003341222715,90.34149293193902,5,5.0,True,0.9374358654022216
,2024-08-07 12:47:57,sub_103_collocated,3,distance,cathedral,spatial_unmasking,6,221,0,0,_six_,talker-p245_sex-f_text-_six_.wav,p245,f,5,35,12.0,7.0,RX81,6,0.0,0.0,7.0,81.34149293193902,babble-reversed_n13_p229-one-p318-eight-p256-three-p268-nine-p248-five-p284-four.wav,10,RX81,11,0.0,0.0,12.0,93.00003341222715,mgb_normalisation,93.00003341222715,90.34149293193902,6,6.0,True,0.8749394416809082
,2024-08-07 12:48:01,sub_103_collocated,3,distance,cathedral,spatial_unmasking,6,222,0,0,_three_,talker-p245_sex-f_text-_three_.wav,p245,f,5,36,12.0,7.0,RX81,6,0.0,0.0,7.0,80.34149293193903,babble-reversed_n13_p318-five-p229-four-p256-eight-p284-one-p245-three-p248-two.wav,10,RX81,11,0.0,0.0,12.0,93.00003341222718,mgb_normalisation,93.00003341222715,90.34149293193902,3,3.0,True,0.8593156337738037
,2024-08-07 12:48:05,sub_103_collocated,3,distance,cathedral,spatial_unmasking,6,223,0,0,_five_,talker-p245_sex-f_text-_five_.wav,p245,f,5,37,12.0,7.0,RX81,6,0.0,0.0,7.0,80.34149293193903,babble-reversed_n13_p229-five-p318-two-p307-eight-p268-three-p248-four-p245-one.wav,10,RX81,11,0.0,0.0,12.0,93.00003341222718,mgb_normalisation,93.00003341222715,90.34149293193902,5,5.0,True,1.624887466430664
,2024-08-07 12:48:10,sub_103_collocated,3,distance,cathedral,spatial_unmasking,6,224,0,0,_five_,talker-p245_sex-f_text-_five_.wav,p245,f,5,38,12.0,7.0,RX81,6,0.0,0.0,7.0,79.34149293193902,babble-reversed_n13_p229-five-p256-three-p318-nine-p248-two-p284-four-p268-one.wav,10,RX81,11,0.0,0.0,12.0,93.00003341222718,mgb_normalisation,93.00003341222715,90.34149293193902,5,4.0,False,2.0779802799224854
,2024-08-07 12:48:14,sub_103_collocated,3,distance,cathedral,spatial_unmasking,6,225,0,0,_five_,talker-p245_sex-f_text-_five_.wav,p245,f,5,39,12.0,7.0,RX81,6,0.0,0.0,7.0,80.34149293193903,babble-reversed_n13_p256-eight-p318-five-p307-four-p245-three-p268-one-p284-nine.wav,10,RX81,11,0.0,0.0,12.0,93.00003341222715,mgb_normalisation,93.00003341222715,90.34149293193902,5,5.0,True,1.0780491828918457
,2024-08-07 12:48:17,sub_103_collocated,3,distance,cathedral,spatial_unmasking,6,226,0,0,_four_,talker-p245_sex-f_text-_four_.wav,p245,f,5,40,12.0,7.0,RX81,6,0.0,0.0,7.0,80.34149293193903,babble-reversed_n13_p229-three-p256-one-p307-two-p284-eight-p268-five-p248-nine.wav,10,RX81,11,0.0,0.0,12.0,93.00003341222718,mgb_normalisation,93.00003341222715,90.34149293193902,4,4.0,True,0.9374349117279052
,2024-08-07 12:49:18,sub_103_collocated,3,distance,cathedral,spatial_unmasking,7,227,0,0,_five_,talker-p245_sex-f_text-_five_.wav,p245,f,5,1,7.0,7.0,RX81,6,0.0,0.0,7.0,92.34149293193902,babble-reversed_n13_p256-eight-p318-five-p307-four-p245-three-p268-one-p284-nine.wav,5,RX81,6,0.0,0.0,7.0,90.341492931939,mgb_normalisation,90.34149293193902,90.34149293193902,5,5.0,True,1.3905274868011477
,2024-08-07 12:49:21,sub_103_collocated,3,distance,cathedral,spatial_unmasking,7,228,0,0,_two_,talker-p245_sex-f_text-_two_.wav,p245,f,5,2,7.0,7.0,RX81,6,0.0,0.0,7.0,88.34149293193902,babble-reversed_n13_p318-five-p229-four-p256-eight-p284-one-p245-three-p248-two.wav,5,RX81,6,0.0,0.0,7.0,90.34149293193904,mgb_normalisation,90.34149293193902,90.34149293193902,2,2.0,True,1.0936744213104248
,2024-08-07 12:49:25,sub_103_collocated,3,distance,cathedral,spatial_unmasking,7,229,0,0,_eight_,talker-p245_sex-f_text-_eight_.wav,p245,f,5,3,7.0,7.0,RX81,6,0.0,0.0,7.0,84.341492931939,babble-reversed_n13_p318-three-p307-one-p256-five-p248-nine-p245-two-p284-eight.wav,5,RX81,6,0.0,0.0,7.0,90.34149293193904,mgb_normalisation,90.34149293193902,90.34149293193902,8,8.0,True,1.1249241828918457
,2024-08-07 12:49:29,sub_103_collocated,3,distance,cathedral,spatial_unmasking,7,230,0,0,_two_,talker-p245_sex-f_text-_two_.wav,p245,f,5,4,7.0,7.0,RX81,6,0.0,0.0,7.0,80.341492931939,babble-reversed_n13_p229-nine-p318-one-p307-two-p248-eight-p245-five-p284-four.wav,5,RX81,6,0.0,0.0,7.0,90.34149293193904,mgb_normalisation,90.34149293193902,90.34149293193902,2,2.0,True,1.17179274559021
,2024-08-07 12:49:33,sub_103_collocated,3,distance,cathedral,spatial_unmasking,7,231,0,0,_eight_,talker-p245_sex-f_text-_eight_.wav,p245,f,5,5,7.0,7.0,RX81,6,0.0,0.0,7.0,76.34149293193902,babble-reversed_n13_p229-nine-p256-four-p318-three-p268-eight-p248-two-p284-five.wav,5,RX81,6,0.0,0.0,7.0,90.34149293193904,mgb_normalisation,90.34149293193902,90.34149293193902,8,3.0,False,1.687382698059082
,2024-08-07 12:49:37,sub_103_collocated,3,distance,cathedral,spatial_unmasking,7,232,0,0,_five_,talker-p245_sex-f_text-_five_.wav,p245,f,5,6,7.0,7.0,RX81,6,0.0,0.0,7.0,78.34149293193902,babble-reversed_n13_p318-five-p256-nine-p307-two-p245-eight-p248-one-p284-four.wav,5,RX81,6,0.0,0.0,7.0,90.34149293193904,mgb_normalisation,90.34149293193902,90.34149293193902,5,5.0,True,1.7342543601989746
,2024-08-07 12:49:42,sub_103_collocated,3,distance,cathedral,spatial_unmasking,7,233,0,0,_eight_,talker-p245_sex-f_text-_eight_.wav,p245,f,5,7,7.0,7.0,RX81,6,0.0,0.0,7.0,78.34149293193902,babble-reversed_n13_p256-five-p229-one-p318-three-p248-nine-p284-eight-p268-two.wav,5,RX81,6,0.0,0.0,7.0,90.34149293193904,mgb_normalisation,90.34149293193902,90.34149293193902,8,9.0,False,1.71863055229187
,2024-08-07 12:49:45,sub_103_collocated,3,distance,cathedral,spatial_unmasking,7,234,0,0,_three_,talker-p245_sex-f_text-_three_.wav,p245,f,5,8,7.0,7.0,RX81,6,0.0,0.0,7.0,80.34149293193903,babble-reversed_n13_p256-two-p307-five-p318-nine-p248-eight-p245-four-p284-one.wav,5,RX81,6,0.0,0.0,7.0,90.34149293193904,mgb_normalisation,90.34149293193902,90.34149293193902,3,3.0,True,1.0624258518218994
,2024-08-07 12:49:49,sub_103_collocated,3,distance,cathedral,spatial_unmasking,7,235,0,0,_two_,talker-p245_sex-f_text-_two_.wav,p245,f,5,9,7.0,7.0,RX81,6,0.0,0.0,7.0,80.341492931939,babble-reversed_n13_p256-eight-p229-three-p307-nine-p245-five-p248-four-p268-two.wav,5,RX81,6,0.0,0.0,7.0,90.341492931939,mgb_normalisation,90.34149293193902,90.34149293193902,2,2.0,True,0.9374353885650636
,2024-08-07 12:49:52,sub_103_collocated,3,distance,cathedral,spatial_unmasking,7,236,0,0,_eight_,talker-p245_sex-f_text-_eight_.wav,p245,f,5,10,7.0,7.0,RX81,6,0.0,0.0,7.0,78.34149293193902,babble-reversed_n13_p229-five-p318-two-p307-eight-p268-three-p248-four-p245-one.wav,5,RX81,6,0.0,0.0,7.0,90.34149293193904,mgb_normalisation,90.34149293193902,90.34149293193902,8,8.0,True,1.093675136566162
,2024-08-07 12:49:56,sub_103_collocated,3,distance,cathedral,spatial_unmasking,7,237,0,0,_three_,talker-p245_sex-f_text-_three_.wav,p245,f,5,11,7.0,7.0,RX81,6,0.0,0.0,7.0,78.34149293193902,babble-reversed_n13_p318-five-p229-four-p256-eight-p284-one-p245-three-p248-two.wav,5,RX81,6,0.0,0.0,7.0,90.34149293193904,mgb_normalisation,90.34149293193902,90.34149293193902,3,3.0,True,1.046802282333374
,2024-08-07 12:49:59,sub_103_collocated,3,distance,cathedral,spatial_unmasking,7,238,0,0,_one_,talker-p245_sex-f_text-_one_.wav,p245,f,5,12,7.0,7.0,RX81,6,0.0,0.0,7.0,76.34149293193902,babble-reversed_n13_p256-two-p307-five-p318-nine-p248-eight-p245-four-p284-one.wav,5,RX81,6,0.0,0.0,7.0,90.34149293193904,mgb_normalisation,90.34149293193902,90.34149293193902,1,3.0,False,0.9686832427978516
,2024-08-07 12:50:03,sub_103_collocated,3,distance,cathedral,spatial_unmasking,7,239,0,0,_five_,talker-p245_sex-f_text-_five_.wav,p245,f,5,13,7.0,7.0,RX81,6,0.0,0.0,7.0,77.34149293193902,babble-reversed_n13_p256-eight-p318-five-p307-four-p245-three-p268-one-p284-nine.wav,5,RX81,6,0.0,0.0,7.0,90.341492931939,mgb_normalisation,90.34149293193902,90.34149293193902,5,5.0,True,1.2655360698699951
,2024-08-07 12:50:07,sub_103_collocated,3,distance,cathedral,spatial_unmasking,7,240,0,0,_three_,talker-p245_sex-f_text-_three_.wav,p245,f,5,14,7.0,7.0,RX81,6,0.0,0.0,7.0,77.34149293193903,babble-reversed_n13_p229-one-p318-eight-p256-three-p268-two-p245-five-p248-nine.wav,5,RX81,6,0.0,0.0,7.0,90.341492931939,mgb_normalisation,90.34149293193902,90.34149293193902,3,3.0,True,1.4530234336853027
,2024-08-07 12:50:11,sub_103_collocated,3,distance,cathedral,spatial_unmasking,7,241,0,0,_eight_,talker-p245_sex-f_text-_eight_.wav,p245,f,5,15,7.0,7.0,RX81,6,0.0,0.0,7.0,76.34149293193902,babble-reversed_n13_p256-five-p307-nine-p318-three-p284-eight-p268-one-p248-two.wav,5,RX81,6,0.0,0.0,7.0,90.34149293193904,mgb_normalisation,90.34149293193902,90.34149293193902,8,8.0,True,1.265535831451416
,2024-08-07 12:50:15,sub_103_collocated,3,distance,cathedral,spatial_unmasking,7,242,0,0,_one_,talker-p245_sex-f_text-_one_.wav,p245,f,5,16,7.0,7.0,RX81,6,0.0,0.0,7.0,76.34149293193902,babble-reversed_n13_p256-eight-p318-two-p307-five-p245-four-p268-nine-p284-one.wav,5,RX81,6,0.0,0.0,7.0,90.34149293193904,mgb_normalisation,90.34149293193902,90.34149293193902,1,4.0,False,1.6405084133148191
,2024-08-07 12:50:19,sub_103_collocated,3,distance,cathedral,spatial_unmasking,7,243,0,0,_three_,talker-p245_sex-f_text-_three_.wav,p245,f,5,17,7.0,7.0,RX81,6,0.0,0.0,7.0,77.34149293193903,babble-reversed_n13_p229-five-p318-three-p307-two-p245-four-p284-nine-p248-eight.wav,5,RX81,6,0.0,0.0,7.0,90.34149293193904,mgb_normalisation,90.34149293193902,90.34149293193902,3,3.0,True,1.4374020099639893
,2024-08-07 12:50:23,sub_103_collocated,3,distance,cathedral,spatial_unmasking,7,244,0,0,_six_,talker-p245_sex-f_text-_six_.wav,p245,f,5,18,7.0,7.0,RX81,6,0.0,0.0,7.0,77.34149293193902,babble-reversed_n13_p318-nine-p256-five-p307-eight-p268-three-p248-one-p245-four.wav,5,RX81,6,0.0,0.0,7.0,90.34149293193904,mgb_normalisation,90.34149293193902,90.34149293193902,6,3.0,False,0.9374346733093262
,2024-08-07 12:50:26,sub_103_collocated,3,distance,cathedral,spatial_unmasking,7,245,0,0,_nine_,talker-p245_sex-f_text-_nine_.wav,p245,f,5,19,7.0,7.0,RX81,6,0.0,0.0,7.0,78.34149293193902,babble-reversed_n13_p256-four-p229-two-p318-five-p268-one-p248-eight-p245-three.wav,5,RX81,6,0.0,0.0,7.0,90.341492931939,mgb_normalisation,90.34149293193902,90.34149293193902,9,8.0,False,1.0311777591705322
,2024-08-07 12:50:30,sub_103_collocated,3,distance,cathedral,spatial_unmasking,7,246,0,0,_six_,talker-p245_sex-f_text-_six_.wav,p245,f,5,20,7.0,7.0,RX81,6,0.0,0.0,7.0,79.341492931939,babble-reversed_n13_p229-three-p256-nine-p318-five-p248-one-p245-eight-p284-two.wav,5,RX81,6,0.0,0.0,7.0,90.34149293193904,mgb_normalisation,90.34149293193902,90.34149293193902,6,9.0,False,0.9686822891235352
,2024-08-07 12:50:34,sub_103_collocated,3,distance,cathedral,spatial_unmasking,7,247,0,0,_nine_,talker-p245_sex-f_text-_nine_.wav,p245,f,5,21,7.0,7.0,RX81,6,0.0,0.0,7.0,80.34149293193903,babble-reversed_n13_p256-three-p318-one-p307-two-p284-nine-p268-four-p245-eight.wav,5,RX81,6,0.0,0.0,7.0,90.34149293193904,mgb_normalisation,90.34149293193902,90.34149293193902,9,1.0,False,1.4842705726623535
,2024-08-07 12:50:38,sub_103_collocated,3,distance,cathedral,spatial_unmasking,7,248,0,0,_eight_,talker-p245_sex-f_text-_eight_.wav,p245,f,5,22,7.0,7.0,RX81,6,0.0,0.0,7.0,81.34149293193902,babble-reversed_n13_p318-four-p256-five-p229-three-p284-one-p245-eight-p248-nine.wav,5,RX81,6,0.0,0.0,7.0,90.34149293193904,mgb_normalisation,90.34149293193902,90.34149293193902,8,9.0,False,1.515519618988037
,2024-08-07 12:50:42,sub_103_collocated,3,distance,cathedral,spatial_unmasking,7,249,0,0,_nine_,talker-p245_sex-f_text-_nine_.wav,p245,f,5,23,7.0,7.0,RX81,6,0.0,0.0,7.0,82.34149293193902,babble-reversed_n13_p307-two-p229-one-p256-five-p248-nine-p284-three-p268-eight.wav,5,RX81,6,0.0,0.0,7.0,90.34149293193904,mgb_normalisation,90.34149293193902,90.34149293193902,9,9.0,True,1.8748679161071773
,2024-08-07 12:50:46,sub_103_collocated,3,distance,cathedral,spatial_unmasking,7,250,0,0,_one_,talker-p245_sex-f_text-_one_.wav,p245,f,5,24,7.0,7.0,RX81,6,0.0,0.0,7.0,82.341492931939,babble-reversed_n13_p229-five-p256-one-p318-three-p248-nine-p268-four-p284-eight.wav,5,RX81,6,0.0,0.0,7.0,90.341492931939,mgb_normalisation,90.34149293193902,90.34149293193902,1,4.0,False,1.390528440475464
,2024-08-07 12:50:50,sub_103_collocated,3,distance,cathedral,spatial_unmasking,7,251,0,0,_two_,talker-p245_sex-f_text-_two_.wav,p245,f,5,25,7.0,7.0,RX81,6,0.0,0.0,7.0,83.34149293193902,babble-reversed_n13_p229-three-p307-one-p318-two-p245-eight-p268-five-p284-four.wav,5,RX81,6,0.0,0.0,7.0,90.34149293193904,mgb_normalisation,90.34149293193902,90.34149293193902,2,2.0,True,0.9374346733093262
