,event_id,subject_id,timestamp,session_index,plane,setup,task,block,trial_index,stim_number,stim_type,stim_country_ids,stim_sexes,stim_talker_ids,speaker_ids,stim_level,resp_number,is_correct,speaker_distance_mean,speaker_distance_st_dev,reaction_time,spectral_coverage
0,,sub_111,2024-07-10 10:38:40,3,distance,cathedral,numerosity_judgement,1,0,3,countries_reversed,"['_Yemen_reversed', '_Oman_reversed', '_Japan_reversed']","['f', 'm', 'm']","['p245', 'p256', 'p229']","[9, 5, 1]","[92.00610777531934, 90.34149293193902, 86.2038576498559]",3.0,True,7.0,4.0,3.7475745677948,0.7413119963681761
0,,sub_111,2024-07-10 10:38:46,3,distance,cathedral,numerosity_judgement,1,1,5,countries_reversed,"['_Cuba_reversed', '_Togo_reversed', '_Syria_reversed', '_Oman_reversed', '_Tonga_reversed']","['f', 'f', 'm', 'm', 'f']","['p268', 'p248', 'p256', 'p307', 'p284']","[6, 5, 3, 7, 2]","[91.58892582949886, 90.34149293193902, 89.14911522239515, 91.73820004985969, 87.57049330475357]",4.0,False,6.6,2.073644135332772,4.566437721252441,0.7439791170128249
0,,sub_111,2024-07-10 10:38:50,3,distance,cathedral,numerosity_judgement,1,2,6,countries_reversed,"['_Peru_reversed', '_Oman_reversed', '_Yemen_reversed', '_Mali_reversed', '_Sudan_reversed', '_Tonga_reversed']","['f', 'm', 'f', 'f', 'm', 'f']","['p268', 'p229', 'p284', 'p245', 'p256', 'p248']","[3, 6, 0, 8, 2, 9]","[89.14911522239515, 91.58892582949886, 84.40078082039426, 92.0152836843556, 87.57049330475357, 92.00610777531934]",3.0,False,6.666666666666667,3.559026084010437,3.000293731689453,0.7663261831801158
0,,sub_111,2024-07-10 10:38:55,3,distance,cathedral,numerosity_judgement,1,3,4,countries_reversed,"['_Mali_reversed', '_Peru_reversed', '_Tonga_reversed', '_Japan_reversed']","['m', 'f', 'm', 'm']","['p307', 'p284', 'p256', 'p229']","[4, 7, 1, 2]","[89.31368318402099, 91.73820004985969, 86.2038576498559, 87.57049330475357]",3.0,False,5.5,2.6457513110645907,3.8161890506744385,0.9467937805016456
0,,sub_111,2024-07-10 10:38:58,3,distance,cathedral,numerosity_judgement,1,4,2,countries_reversed,"['_Tonga_reversed', '_Britain_reversed']","['f', 'm']","['p268', 'p318']","[9, 8]","[92.00610777531934, 92.0152836843556]",4.0,False,10.5,0.7071067811865476,1.8776040077209473,0.8607990012484394
0,,sub_111,2024-07-10 10:39:03,3,distance,cathedral,numerosity_judgement,1,5,5,countries_reversed,"['_Oman_reversed', '_Peru_reversed', '_Congo_reversed', '_Tonga_reversed', '_Cuba_reversed']","['f', 'm', 'f', 'm', 'f']","['p248', 'p229', 'p268', 'p318', 'p284']","[10, 9, 5, 7, 4]","[93.00003341222717, 92.00610777531934, 90.34149293193902, 91.73820004985969, 89.31368318402099]",4.0,False,9.0,2.5495097567963922,3.251488447189331,0.7894450119169221
0,,sub_111,2024-07-10 10:39:08,3,distance,cathedral,numerosity_judgement,1,6,4,countries_reversed,"['_Cuba_reversed', '_Congo_reversed', '_Yemen_reversed', '_Oman_reversed']","['f', 'f', 'm', 'm']","['p245', 'p284', 'p318', 'p229']","[7, 2, 3, 0]","[91.73820004985969, 87.57049330475357, 89.14911522239515, 84.40078082039426]",5.0,False,5.0,2.943920288775949,4.5000951290130615,0.6892407218249915
0,,sub_111,2024-07-10 10:39:13,3,distance,cathedral,numerosity_judgement,1,7,2,countries_reversed,"['_Oman_reversed', '_Sudan_reversed']","['f', 'm']","['p245', 'p307']","[9, 6]","[92.00610777531934, 91.58892582949886]",4.0,False,9.5,2.1213203435596424,3.6263725757598877,0.8158097832255136
0,,sub_111,2024-07-10 10:39:16,3,distance,cathedral,numerosity_judgement,1,8,6,countries_reversed,"['_Cuba_reversed', '_Peru_reversed', '_Oman_reversed', '_Yemen_reversed', '_Sudan_reversed', '_Syria_reversed']","['f', 'f', 'f', 'm', 'f', 'm']","['p248', 'p268', 'p284', 'p229', 'p245', 'p307']","[10, 6, 0, 5, 4, 1]","[93.00003341222717, 91.58892582949886, 84.40078082039426, 90.34149293193902, 89.31368318402099, 86.2038576498559]",5.0,False,6.333333333333333,3.6147844564602556,1.4964985847473145,0.8122120077176257
0,,sub_111,2024-07-10 10:39:20,3,distance,cathedral,numerosity_judgement,1,9,3,countries_reversed,"['_Cuba_reversed', '_Tonga_reversed', '_Oman_reversed']","['m', 'f', 'f']","['p307', 'p284', 'p245']","[7, 9, 5]","[91.73820004985969, 92.00610777531934, 90.34149293193902]",4.0,False,9.0,2.0,2.3127262592315674,0.5873453637498581
0,,sub_111,2024-07-10 10:39:25,3,distance,cathedral,numerosity_judgement,1,10,2,countries_reversed,"['_Japan_reversed', '_Mali_reversed']","['m', 'm']","['p307', 'p229']","[2, 6]","[87.57049330475357, 91.58892582949886]",2.0,True,6.0,2.8284271247461903,3.434335231781006,0.8929519918283964
0,,sub_111,2024-07-10 10:39:28,3,distance,cathedral,numerosity_judgement,1,11,4,countries_reversed,"['_Tonga_reversed', '_Cuba_reversed', '_Britain_reversed', '_Belgium_reversed']","['f', 'f', 'm', 'm']","['p284', 'p245', 'p256', 'p318']","[9, 5, 10, 1]","[92.00610777531934, 90.34149293193902, 93.00003341222717, 86.2038576498559]",3.0,False,8.25,4.112987559751022,2.249556303024292,0.6731472023606855
0,,sub_111,2024-07-10 10:39:32,3,distance,cathedral,numerosity_judgement,1,12,5,countries_reversed,"['_Belgium_reversed', '_Togo_reversed', '_Sudan_reversed', '_Cuba_reversed', '_Mali_reversed']","['m', 'f', 'f', 'f', 'm']","['p318', 'p245', 'p248', 'p284', 'p307']","[8, 2, 5, 6, 9]","[92.0152836843556, 87.57049330475357, 90.34149293193902, 91.58892582949886, 92.00610777531934]",4.0,False,8.0,2.7386127875258306,2.25128436088562,0.8868573374191352
0,,sub_111,2024-07-10 10:39:35,3,distance,cathedral,numerosity_judgement,1,13,3,countries_reversed,"['_Sudan_reversed', '_Oman_reversed', '_Tonga_reversed']","['f', 'f', 'm']","['p284', 'p248', 'p307']","[5, 9, 3]","[90.34149293193902, 92.00610777531934, 89.14911522239515]",4.0,False,7.666666666666667,3.0550504633038935,2.3127264976501465,0.7052888434910907
0,,sub_111,2024-07-10 10:39:38,3,distance,cathedral,numerosity_judgement,1,14,6,countries_reversed,"['_Belgium_reversed', '_Congo_reversed', '_Cuba_reversed', '_Syria_reversed', '_Japan_reversed', '_Peru_reversed']","['f', 'm', 'm', 'm', 'f', 'f']","['p268', 'p307', 'p256', 'p229', 'p248', 'p284']","[4, 5, 6, 1, 9, 7]","[89.31368318402099, 90.34149293193902, 91.58892582949886, 86.2038576498559, 92.00610777531934, 91.73820004985969]",5.0,False,7.333333333333333,2.7325202042558927,1.12778902053833,0.8573714674838271
0,,sub_111,2024-07-10 10:39:41,3,distance,cathedral,numerosity_judgement,1,15,4,countries_reversed,"['_Peru_reversed', '_Belgium_reversed', '_Togo_reversed', '_Congo_reversed']","['f', 'm', 'f', 'm']","['p284', 'p318', 'p248', 'p229']","[3, 0, 2, 5]","[89.14911522239515, 84.40078082039426, 87.57049330475357, 90.34149293193902]",5.0,False,4.5,2.0816659994661326,2.1933367252349854,0.9233344682782884
0,,sub_111,2024-07-10 10:39:46,3,distance,cathedral,numerosity_judgement,1,16,3,countries_reversed,"['_Togo_reversed', '_Congo_reversed', '_Syria_reversed']","['m', 'm', 'f']","['p307', 'p229', 'p268']","[4, 1, 9]","[89.31368318402099, 86.2038576498559, 92.00610777531934]",4.0,False,6.666666666666667,4.041451884327381,3.188318967819214,0.9165134490977188
0,,sub_111,2024-07-10 10:39:49,3,distance,cathedral,numerosity_judgement,1,17,6,countries_reversed,"['_Belgium_reversed', '_Britain_reversed', '_Oman_reversed', '_Sudan_reversed', '_Togo_reversed', '_Mali_reversed']","['f', 'f', 'm', 'f', 'f', 'm']","['p248', 'p245', 'p318', 'p268', 'p284', 'p229']","[1, 0, 9, 6, 10, 4]","[86.2038576498559, 84.40078082039426, 92.00610777531934, 91.58892582949886, 93.00003341222717, 89.31368318402099]",5.0,False,7.0,4.09878030638384,1.8751840591430664,0.9475201452729544
0,,sub_111,2024-07-10 10:39:52,3,distance,cathedral,numerosity_judgement,1,18,2,countries_reversed,"['_Togo_reversed', '_Sudan_reversed']","['m', 'm']","['p256', 'p229']","[2, 5]","[87.57049330475357, 90.34149293193902]",3.0,False,5.5,2.1213203435596424,1.6889903545379639,0.951458404267393
0,,sub_111,2024-07-10 10:39:56,3,distance,cathedral,numerosity_judgement,1,19,5,countries_reversed,"['_Mali_reversed', '_Britain_reversed', '_Togo_reversed', '_Cuba_reversed', '_Oman_reversed']","['f', 'f', 'm', 'm', 'm']","['p248', 'p245', 'p256', 'p229', 'p307']","[0, 10, 6, 7, 5]","[84.40078082039426, 93.00003341222717, 91.58892582949886, 91.73820004985969, 90.34149293193902]",4.0,False,7.6,3.646916505762094,2.3127267360687256,0.6807399841107706
0,,sub_111,2024-07-10 10:39:59,3,distance,cathedral,numerosity_judgement,1,20,4,countries_reversed,"['_Japan_reversed', '_Britain_reversed', '_Peru_reversed', '_Cuba_reversed']","['f', 'm', 'm', 'm']","['p284', 'p229', 'p256', 'p307']","[9, 1, 4, 2]","[92.00610777531934, 86.2038576498559, 89.31368318402099, 87.57049330475357]",5.0,False,6.0,3.559026084010437,2.1877148151397705,0.8700147542844172
0,,sub_111,2024-07-10 10:40:04,3,distance,cathedral,numerosity_judgement,1,21,3,countries_reversed,"['_Cuba_reversed', '_Belgium_reversed', '_Mali_reversed']","['f', 'm', 'f']","['p248', 'p229', 'p268']","[8, 2, 10]","[92.0152836843556, 87.57049330475357, 93.00003341222717]",4.0,False,8.666666666666666,4.163331998932265,3.501746416091919,0.7859834298036545
0,,sub_111,2024-07-10 10:40:07,3,distance,cathedral,numerosity_judgement,1,22,5,countries_reversed,"['_Yemen_reversed', '_Peru_reversed', '_Britain_reversed', '_Oman_reversed', '_Congo_reversed']","['f', 'f', 'f', 'm', 'm']","['p248', 'p268', 'p245', 'p229', 'p307']","[3, 6, 7, 10, 8]","[89.14911522239515, 91.58892582949886, 91.73820004985969, 93.00003341222717, 92.0152836843556]",5.0,True,8.8,2.588435821108957,1.4993226528167725,0.7161162183634093
0,,sub_111,2024-07-10 10:40:11,3,distance,cathedral,numerosity_judgement,1,23,6,countries_reversed,"['_Sudan_reversed', '_Tonga_reversed', '_Britain_reversed', '_Japan_reversed', '_Peru_reversed', '_Oman_reversed']","['m', 'f', 'm', 'f', 'm', 'f']","['p256', 'p248', 'p307', 'p284', 'p318', 'p245']","[0, 8, 5, 6, 9, 2]","[84.40078082039426, 92.0152836843556, 90.34149293193902, 91.58892582949886, 92.00610777531934, 87.57049330475357]",6.0,True,7.0,3.4641016151377544,3.1846253871917725,0.9477925320621948
0,,sub_111,2024-07-10 10:40:15,3,distance,cathedral,numerosity_judgement,1,24,2,countries_reversed,"['_Tonga_reversed', '_Belgium_reversed']","['f', 'm']","['p245', 'p318']","[4, 7]","[89.31368318402099, 91.73820004985969]",5.0,False,7.5,2.1213203435596424,2.812776803970337,0.8090795596413574
0,,sub_111,2024-07-10 10:40:18,3,distance,cathedral,numerosity_judgement,1,25,5,countries_reversed,"['_Belgium_reversed', '_Cuba_reversed', '_Oman_reversed', '_Peru_reversed', '_Britain_reversed']","['f', 'f', 'm', 'm', 'f']","['p284', 'p245', 'p229', 'p256', 'p268']","[3, 6, 5, 10, 9]","[89.14911522239515, 91.58892582949886, 90.34149293193902, 93.00003341222717, 92.00610777531934]",6.0,False,8.6,2.8809720581775866,1.8739542961120605,0.8195778004766768
0,,sub_111,2024-07-10 10:40:23,3,distance,cathedral,numerosity_judgement,1,26,2,countries_reversed,"['_Britain_reversed', '_Tonga_reversed']","['m', 'm']","['p256', 'p307']","[2, 3]","[87.57049330475357, 89.14911522239515]",5.0,False,4.5,0.7071067811865476,3.3154964447021484,0.6901259788900238
0,,sub_111,2024-07-10 10:40:27,3,distance,cathedral,numerosity_judgement,1,27,4,countries_reversed,"['_Tonga_reversed', '_Britain_reversed', '_Japan_reversed', '_Oman_reversed']","['f', 'm', 'm', 'f']","['p268', 'p256', 'p229', 'p248']","[7, 5, 6, 8]","[91.73820004985969, 90.34149293193902, 91.58892582949886, 92.0152836843556]",4.0,True,8.5,1.2909944487358056,2.6873888969421387,0.8825785949381455
0,,sub_111,2024-07-10 10:40:31,3,distance,cathedral,numerosity_judgement,1,28,3,countries_reversed,"['_Sudan_reversed', '_Britain_reversed', '_Japan_reversed']","['f', 'f', 'f']","['p245', 'p284', 'p268']","[1, 10, 0]","[86.2038576498559, 93.00003341222717, 84.40078082039426]",5.0,False,5.666666666666667,5.507570547286102,2.8750078678131104,0.9521507206900466
0,,sub_111,2024-07-10 10:40:35,3,distance,cathedral,numerosity_judgement,1,29,6,countries_reversed,"['_Yemen_reversed', '_Sudan_reversed', '_Cuba_reversed', '_Britain_reversed', '_Oman_reversed', '_Congo_reversed']","['m', 'f', 'f', 'm', 'f', 'f']","['p229', 'p248', 'p245', 'p307', 'p284', 'p268']","[6, 10, 5, 7, 0, 3]","[91.58892582949886, 93.00003341222717, 90.34149293193902, 91.73820004985969, 84.40078082039426, 89.14911522239515]",6.0,True,7.166666666666667,3.4302575219167823,3.0627999305725098,0.6710135058449666
0,,sub_111,2024-07-10 10:40:39,3,distance,cathedral,numerosity_judgement,1,30,4,countries_reversed,"['_Yemen_reversed', '_Sudan_reversed', '_Britain_reversed', '_Cuba_reversed']","['m', 'f', 'm', 'f']","['p318', 'p248', 'p229', 'p245']","[7, 3, 10, 5]","[91.73820004985969, 89.14911522239515, 93.00003341222717, 90.34149293193902]",6.0,False,8.25,2.9860788111948193,2.7552433013916016,0.7132902054250368
0,,sub_111,2024-07-10 10:40:44,3,distance,cathedral,numerosity_judgement,1,31,5,countries_reversed,"['_Syria_reversed', '_Oman_reversed', '_Britain_reversed', '_Sudan_reversed', '_Belgium_reversed']","['f', 'f', 'm', 'f', 'm']","['p268', 'p248', 'p256', 'p284', 'p307']","[10, 4, 1, 9, 6]","[93.00003341222717, 89.31368318402099, 86.2038576498559, 92.00610777531934, 91.58892582949886]",6.0,False,8.0,3.6742346141747673,3.1218104362487793,0.9573828169333788
0,,sub_111,2024-07-10 10:40:47,3,distance,cathedral,numerosity_judgement,1,32,2,countries_reversed,"['_Cuba_reversed', '_Congo_reversed']","['m', 'm']","['p229', 'p256']","[6, 5]","[91.58892582949886, 90.34149293193902]",4.0,False,7.5,0.7071067811865476,2.1264874935150146,0.715491998638066
0,,sub_111,2024-07-10 10:40:50,3,distance,cathedral,numerosity_judgement,1,33,6,countries_reversed,"['_Japan_reversed', '_Syria_reversed', '_Cuba_reversed', '_Peru_reversed', '_Mali_reversed', '_Tonga_reversed']","['f', 'f', 'f', 'm', 'm', 'f']","['p248', 'p245', 'p268', 'p229', 'p307', 'p284']","[10, 4, 3, 6, 8, 1]","[93.00003341222717, 89.31368318402099, 89.14911522239515, 91.58892582949886, 92.0152836843556, 86.2038576498559]",6.0,True,7.333333333333333,3.32665998663324,1.9376938343048096,0.79056860742254
0,,sub_111,2024-07-10 10:40:55,3,distance,cathedral,numerosity_judgement,1,34,3,countries_reversed,"['_Japan_reversed', '_Sudan_reversed', '_Belgium_reversed']","['m', 'm', 'm']","['p318', 'p256', 'p229']","[4, 10, 5]","[89.31368318402099, 93.00003341222717, 90.34149293193902]",4.0,False,8.333333333333334,3.214550253664318,3.1878132820129395,0.8207808421291567
0,,sub_111,2024-07-10 10:40:58,3,distance,cathedral,numerosity_judgement,1,35,6,countries_reversed,"['_Togo_reversed', '_Britain_reversed', '_Tonga_reversed', '_Oman_reversed', '_Mali_reversed', '_Cuba_reversed']","['m', 'm', 'f', 'f', 'm', 'm']","['p318', 'p229', 'p284', 'p268', 'p256', 'p307']","[5, 3, 1, 6, 4, 7]","[90.34149293193902, 89.14911522239515, 86.2038576498559, 91.58892582949886, 89.31368318402099, 91.73820004985969]",5.0,False,6.333333333333333,2.160246899469287,2.1286768913269043,0.7108387243218703
0,,sub_111,2024-07-10 10:41:02,3,distance,cathedral,numerosity_judgement,1,36,4,countries_reversed,"['_Peru_reversed', '_Oman_reversed', '_Sudan_reversed', '_Cuba_reversed']","['m', 'f', 'f', 'f']","['p256', 'p245', 'p248', 'p268']","[3, 1, 0, 6]","[89.14911522239515, 86.2038576498559, 84.40078082039426, 91.58892582949886]",4.0,True,4.5,2.6457513110645907,2.5001380443573,0.7645443196004994
0,,sub_111,2024-07-10 10:41:05,3,distance,cathedral,numerosity_judgement,1,37,3,countries_reversed,"['_Peru_reversed', '_Belgium_reversed', '_Congo_reversed']","['m', 'f', 'f']","['p318', 'p268', 'p245']","[8, 9, 2]","[92.0152836843556, 92.00610777531934, 87.57049330475357]",3.0,True,8.333333333333334,3.7859388972001824,1.5626566410064697,0.890795596413574
0,,sub_111,2024-07-10 10:41:09,3,distance,cathedral,numerosity_judgement,1,38,5,countries_reversed,"['_Britain_reversed', '_Syria_reversed', '_Oman_reversed', '_Sudan_reversed', '_Peru_reversed']","['f', 'f', 'm', 'm', 'm']","['p245', 'p268', 'p229', 'p318', 'p256']","[5, 6, 7, 0, 10]","[90.34149293193902, 91.58892582949886, 91.73820004985969, 84.40078082039426, 93.00003341222717]",5.0,True,7.6,3.646916505762094,2.6756069660186768,0.9103053001929406
0,,sub_111,2024-07-10 10:41:13,3,distance,cathedral,numerosity_judgement,1,39,2,countries_reversed,"['_Syria_reversed', '_Sudan_reversed']","['m', 'f']","['p256', 'p248']","[4, 9]","[89.31368318402099, 92.00610777531934]",3.0,False,8.5,3.5355339059327378,2.547532320022583,0.8982294858699353
0,,sub_111,2024-07-10 10:41:16,3,distance,cathedral,numerosity_judgement,1,40,3,countries_reversed,"['_Oman_reversed', '_Togo_reversed', '_Cuba_reversed']","['m', 'm', 'm']","['p256', 'p229', 'p307']","[6, 10, 5]","[91.58892582949886, 93.00003341222717, 90.34149293193902]",4.0,False,9.0,2.6457513110645907,1.750178337097168,0.616956077630235
0,,sub_111,2024-07-10 10:41:19,3,distance,cathedral,numerosity_judgement,1,41,5,countries_reversed,"['_Togo_reversed', '_Tonga_reversed', '_Oman_reversed', '_Mali_reversed', '_Yemen_reversed']","['f', 'm', 'm', 'm', 'f']","['p245', 'p256', 'p307', 'p318', 'p248']","[10, 3, 6, 9, 5]","[93.00003341222717, 89.14911522239515, 91.58892582949886, 92.00610777531934, 90.34149293193902]",5.0,True,8.6,2.8809720581775866,2.125208616256714,0.6536828963795256
0,,sub_111,2024-07-10 10:41:23,3,distance,cathedral,numerosity_judgement,1,42,2,countries_reversed,"['_Mali_reversed', '_Yemen_reversed']","['m', 'f']","['p307', 'p248']","[8, 3]","[92.0152836843556, 89.14911522239515]",3.0,False,7.5,3.5355339059327378,2.4230947494506836,0.6426739303143798
0,,sub_111,2024-07-10 10:41:27,3,distance,cathedral,numerosity_judgement,1,43,4,countries_reversed,"['_Yemen_reversed', '_Peru_reversed', '_Cuba_reversed', '_Belgium_reversed']","['f', 'f', 'm', 'f']","['p284', 'p248', 'p229', 'p268']","[8, 1, 3, 5]","[92.0152836843556, 86.2038576498559, 89.14911522239515, 90.34149293193902]",4.0,True,6.25,2.9860788111948193,3.062816858291626,0.8044035864260584
0,,sub_111,2024-07-10 10:41:30,3,distance,cathedral,numerosity_judgement,1,44,6,countries_reversed,"['_Oman_reversed', '_Sudan_reversed', '_Yemen_reversed', '_Japan_reversed', '_Cuba_reversed', '_Togo_reversed']","['m', 'f', 'm', 'm', 'f', 'f']","['p229', 'p248', 'p307', 'p318', 'p245', 'p284']","[2, 5, 10, 4, 7, 3]","[87.57049330475357, 90.34149293193902, 93.00003341222717, 89.31368318402099, 91.73820004985969, 89.14911522239515]",6.0,True,7.166666666666667,2.9268868558020253,1.6251592636108398,0.7232550221314267
0,,sub_111,2024-07-10 10:41:33,3,distance,cathedral,numerosity_judgement,1,45,4,countries_reversed,"['_Tonga_reversed', '_Yemen_reversed', '_Togo_reversed', '_Mali_reversed']","['m', 'f', 'm', 'm']","['p307', 'p248', 'p229', 'p318']","[7, 3, 2, 6]","[91.73820004985969, 89.14911522239515, 87.57049330475357, 91.58892582949886]",6.0,False,6.5,2.3804761428476167,1.750955581665039,0.8216660991941891
0,,sub_111,2024-07-10 10:41:36,3,distance,cathedral,numerosity_judgement,1,46,5,countries_reversed,"['_Peru_reversed', '_Belgium_reversed', '_Mali_reversed', '_Sudan_reversed', '_Oman_reversed']","['f', 'f', 'f', 'm', 'm']","['p245', 'p268', 'p284', 'p229', 'p318']","[2, 10, 3, 8, 7]","[87.57049330475357, 93.00003341222717, 89.14911522239515, 92.0152836843556, 91.73820004985969]",6.0,False,8.0,3.391164991562634,1.8094737529754639,0.930688911587788
0,,sub_111,2024-07-10 10:41:39,3,distance,cathedral,numerosity_judgement,1,47,6,countries_reversed,"['_Oman_reversed', '_Togo_reversed', '_Cuba_reversed', '_Tonga_reversed', '_Syria_reversed', '_Mali_reversed']","['m', 'm', 'f', 'f', 'f', 'm']","['p307', 'p256', 'p284', 'p268', 'p245', 'p318']","[3, 5, 8, 6, 4, 0]","[89.14911522239515, 90.34149293193902, 92.0152836843556, 91.58892582949886, 89.31368318402099, 84.40078082039426]",6.0,True,6.333333333333333,2.7325202042558927,1.5626530647277832,0.8755986834638521
0,,sub_111,2024-07-10 10:41:42,3,distance,cathedral,numerosity_judgement,1,48,3,countries_reversed,"['_Togo_reversed', '_Congo_reversed', '_Sudan_reversed']","['m', 'm', 'm']","['p307', 'p229', 'p318']","[8, 7, 1]","[92.0152836843556, 91.73820004985969, 86.2038576498559]",5.0,False,7.333333333333333,3.7859388972001824,1.8126134872436523,0.921484508001362
0,,sub_111,2024-07-10 10:41:45,3,distance,cathedral,numerosity_judgement,1,49,2,countries_reversed,"['_Japan_reversed', '_Togo_reversed']","['m', 'f']","['p229', 'p284']","[4, 3]","[89.31368318402099, 89.14911522239515]",4.0,False,5.5,0.7071067811865476,1.437640905380249,0.9629326977641584
0,,sub_111,2024-07-10 10:41:48,3,distance,cathedral,numerosity_judgement,1,50,6,countries_reversed,"['_Togo_reversed', '_Mali_reversed', '_Congo_reversed', '_Yemen_reversed', '_Cuba_reversed', '_Oman_reversed']","['f', 'm', 'm', 'f', 'm', 'f']","['p248', 'p318', 'p256', 'p284', 'p229', 'p268']","[0, 3, 7, 4, 1, 10]","[84.40078082039426, 89.14911522239515, 91.73820004985969, 89.31368318402099, 86.2038576498559, 93.00003341222717]",6.0,True,6.166666666666667,3.763863263545405,1.7384426593780518,0.9210645783679492
0,,sub_111,2024-07-10 10:41:53,3,distance,cathedral,numerosity_judgement,1,51,3,countries_reversed,"['_Tonga_reversed', '_Yemen_reversed', '_Japan_reversed']","['f', 'm', 'm']","['p245', 'p307', 'p256']","[7, 8, 5]","[91.73820004985969, 92.0152836843556, 90.34149293193902]",6.0,False,8.666666666666666,1.5275252316519468,3.8750569820404053,0.6445919872886166
0,,sub_111,2024-07-10 10:41:57,3,distance,cathedral,numerosity_judgement,1,52,4,countries_reversed,"['_Cuba_reversed', '_Congo_reversed', '_Mali_reversed', '_Peru_reversed']","['f', 'f', 'f', 'm']","['p284', 'p248', 'p268', 'p229']","[2, 10, 3, 4]","[87.57049330475357, 93.00003341222717, 89.14911522239515, 89.31368318402099]",4.0,True,6.75,3.593976442141304,2.1246683597564697,0.8298604017705141
0,,sub_111,2024-07-10 10:42:01,3,distance,cathedral,numerosity_judgement,1,53,5,countries_reversed,"['_Yemen_reversed', '_Oman_reversed', '_Mali_reversed', '_Congo_reversed', '_Togo_reversed']","['f', 'm', 'f', 'm', 'm']","['p268', 'p256', 'p284', 'p229', 'p307']","[4, 9, 6, 1, 7]","[89.31368318402099, 92.00610777531934, 91.58892582949886, 86.2038576498559, 91.73820004985969]",5.0,True,7.4,3.0495901363953815,3.3790218830108643,0.7046305754170923
0,,sub_111,2024-07-10 10:42:05,3,distance,cathedral,numerosity_judgement,1,54,2,countries_reversed,"['_Yemen_reversed', '_Cuba_reversed']","['f', 'm']","['p248', 'p307']","[9, 5]","[92.00610777531934, 90.34149293193902]",3.0,False,9.0,2.8284271247461903,2.1251814365386963,0.5836227442969016
0,,sub_111,2024-07-10 10:42:09,3,distance,cathedral,numerosity_judgement,1,55,6,countries_reversed,"['_Mali_reversed', '_Belgium_reversed', '_Yemen_reversed', '_Cuba_reversed', '_Britain_reversed', '_Peru_reversed']","['m', 'f', 'm', 'm', 'f', 'f']","['p256', 'p284', 'p307', 'p229', 'p245', 'p248']","[9, 2, 10, 0, 5, 4]","[92.00610777531934, 87.57049330475357, 93.00003341222717, 84.40078082039426, 90.34149293193902, 89.31368318402099]",4.0,False,7.0,3.8987177379235853,3.4872262477874756,0.8939166950402906
0,,sub_111,2024-07-10 10:42:14,3,distance,cathedral,numerosity_judgement,1,56,2,countries_reversed,"['_Yemen_reversed', '_Oman_reversed']","['m', 'f']","['p256', 'p245']","[3, 7]","[89.14911522239515, 91.73820004985969]",3.0,False,7.0,2.8284271247461903,3.5624783039093018,0.5731245034615822
0,,sub_111,2024-07-10 10:42:20,3,distance,cathedral,numerosity_judgement,1,57,4,countries_reversed,"['_Oman_reversed', '_Yemen_reversed', '_Britain_reversed', '_Mali_reversed']","['m', 'm', 'm', 'm']","['p229', 'p318', 'p307', 'p256']","[5, 7, 9, 6]","[90.34149293193902, 91.73820004985969, 92.00610777531934, 91.58892582949886]",2.0,False,8.75,1.707825127659933,4.314021825790405,0.6135966405629327
0,,sub_111,2024-07-10 10:42:24,3,distance,cathedral,numerosity_judgement,1,58,5,countries_reversed,"['_Syria_reversed', '_Peru_reversed', '_Japan_reversed', '_Cuba_reversed', '_Congo_reversed']","['f', 'm', 'f', 'm', 'f']","['p248', 'p256', 'p268', 'p229', 'p245']","[9, 3, 1, 10, 4]","[92.00610777531934, 89.14911522239515, 86.2038576498559, 93.00003341222717, 89.31368318402099]",3.0,False,7.4,3.9115214431215892,2.814110517501831,0.8631029395074339
0,,sub_111,2024-07-10 10:42:27,3,distance,cathedral,numerosity_judgement,1,59,3,countries_reversed,"['_Tonga_reversed', '_Belgium_reversed', '_Oman_reversed']","['f', 'm', 'm']","['p245', 'p307', 'p256']","[4, 7, 1]","[89.31368318402099, 91.73820004985969, 86.2038576498559]",4.0,False,6.0,3.0,1.8622305393218994,0.7950516399954602
0,,sub_111,2024-07-10 10:42:30,3,distance,cathedral,numerosity_judgement,1,60,5,countries_reversed,"['_Syria_reversed', '_Peru_reversed', '_Congo_reversed', '_Yemen_reversed', '_Cuba_reversed']","['f', 'm', 'f', 'm', 'f']","['p245', 'p256', 'p248', 'p229', 'p268']","[0, 1, 5, 2, 6]","[84.40078082039426, 86.2038576498559, 90.34149293193902, 87.57049330475357, 91.58892582949886]",5.0,True,4.8,2.588435821108957,1.8126780986785889,0.8071161048689138
0,,sub_111,2024-07-10 10:42:33,3,distance,cathedral,numerosity_judgement,1,61,6,countries_reversed,"['_Tonga_reversed', '_Japan_reversed', '_Oman_reversed', '_Mali_reversed', '_Congo_reversed', '_Cuba_reversed']","['f', 'f', 'f', 'f', 'm', 'm']","['p268', 'p248', 'p284', 'p245', 'p318', 'p307']","[6, 10, 2, 5, 1, 7]","[91.58892582949886, 93.00003341222717, 87.57049330475357, 90.34149293193902, 86.2038576498559, 91.73820004985969]",6.0,True,7.166666666666667,3.3115957885386114,1.6244490146636963,0.6877879922823743
0,,sub_111,2024-07-10 10:42:38,3,distance,cathedral,numerosity_judgement,1,62,3,countries_reversed,"['_Mali_reversed', '_Tonga_reversed', '_Yemen_reversed']","['f', 'f', 'm']","['p248', 'p245', 'p307']","[10, 6, 9]","[93.00003341222717, 91.58892582949886, 92.00610777531934]",3.0,True,10.333333333333334,2.0816659994661326,3.438753366470337,0.6603790716150266
0,,sub_111,2024-07-10 10:42:41,3,distance,cathedral,numerosity_judgement,1,63,2,countries_reversed,"['_Britain_reversed', '_Yemen_reversed']","['m', 'm']","['p307', 'p256']","[3, 10]","[89.14911522239515, 93.00003341222717]",3.0,False,8.5,4.949747468305833,2.3091683387756348,0.6303597775507888
0,,sub_111,2024-07-10 10:42:45,3,distance,cathedral,numerosity_judgement,1,64,4,countries_reversed,"['_Cuba_reversed', '_Syria_reversed', '_Sudan_reversed', '_Congo_reversed']","['f', 'm', 'm', 'm']","['p248', 'p307', 'p256', 'p229']","[8, 6, 10, 9]","[92.0152836843556, 91.58892582949886, 93.00003341222717, 92.00610777531934]",4.0,True,10.25,1.707825127659933,1.6876657009124756,0.7330155487458858
0,,sub_111,2024-07-10 10:42:49,3,distance,cathedral,numerosity_judgement,1,65,5,countries_reversed,"['_Togo_reversed', '_Mali_reversed', '_Yemen_reversed', '_Cuba_reversed', '_Peru_reversed']","['f', 'm', 'f', 'f', 'm']","['p248', 'p307', 'p284', 'p245', 'p318']","[0, 5, 1, 10, 9]","[84.40078082039426, 90.34149293193902, 86.2038576498559, 93.00003341222717, 92.00610777531934]",4.0,False,7.0,4.527692569068709,3.3134782314300537,0.7564635115196913
0,,sub_111,2024-07-10 10:42:54,3,distance,cathedral,numerosity_judgement,1,66,3,countries_reversed,"['_Congo_reversed', '_Sudan_reversed', '_Yemen_reversed']","['f', 'm', 'f']","['p284', 'p256', 'p248']","[4, 10, 5]","[89.31368318402099, 93.00003341222717, 90.34149293193902]",4.0,False,8.333333333333334,3.214550253664318,3.4386403560638428,0.734207240948814
0,,sub_111,2024-07-10 10:42:58,3,distance,cathedral,numerosity_judgement,1,67,6,countries_reversed,"['_Peru_reversed', '_Congo_reversed', '_Cuba_reversed', '_Tonga_reversed', '_Belgium_reversed', '_Syria_reversed']","['f', 'f', 'm', 'm', 'f', 'f']","['p245', 'p284', 'p307', 'p256', 'p268', 'p248']","[8, 3, 7, 10, 2, 0]","[92.0152836843556, 89.14911522239515, 91.73820004985969, 93.00003341222717, 87.57049330475357, 84.40078082039426]",5.0,False,7.0,3.8987177379235853,2.8766632080078125,0.8404948360004539
0,,sub_111,2024-07-10 10:43:02,3,distance,cathedral,numerosity_judgement,1,68,2,countries_reversed,"['_Cuba_reversed', '_Peru_reversed']","['m', 'm']","['p229', 'p256']","[7, 10]","[91.73820004985969, 93.00003341222717]",3.0,False,10.5,2.1213203435596424,2.8759851455688477,0.7758937691521961
0,,sub_111,2024-07-10 10:43:06,3,distance,cathedral,numerosity_judgement,1,69,4,countries_reversed,"['_Syria_reversed', '_Cuba_reversed', '_Sudan_reversed', '_Tonga_reversed']","['m', 'f', 'f', 'm']","['p307', 'p268', 'p284', 'p318']","[2, 0, 10, 9]","[87.57049330475357, 84.40078082039426, 93.00003341222717, 92.00610777531934]",5.0,False,7.25,4.9916597106239795,2.8108744621276855,0.9517648394052888
0,,sub_111,2024-07-10 10:43:09,3,distance,cathedral,numerosity_judgement,1,70,5,countries_reversed,"['_Cuba_reversed', '_Japan_reversed', '_Sudan_reversed', '_Peru_reversed', '_Yemen_reversed']","['m', 'm', 'm', 'f', 'f']","['p256', 'p307', 'p229', 'p268', 'p248']","[3, 9, 7, 0, 5]","[89.14911522239515, 92.00610777531934, 91.73820004985969, 84.40078082039426, 90.34149293193902]",6.0,False,6.8,3.492849839314596,2.0001962184906006,0.8697196685960731
0,,sub_111,2024-07-10 10:43:12,3,distance,cathedral,numerosity_judgement,1,71,3,countries_reversed,"['_Belgium_reversed', '_Yemen_reversed', '_Cuba_reversed']","['m', 'f', 'f']","['p256', 'p245', 'p284']","[2, 9, 0]","[87.57049330475357, 92.00610777531934, 84.40078082039426]",6.0,False,5.666666666666667,4.725815626252608,1.6105082035064697,0.8648507547383952
0,,sub_111,2024-07-10 10:43:16,3,distance,cathedral,numerosity_judgement,1,72,4,countries_reversed,"['_Peru_reversed', '_Yemen_reversed', '_Britain_reversed', '_Congo_reversed']","['m', 'm', 'f', 'm']","['p307', 'p229', 'p245', 'p256']","[3, 6, 8, 2]","[89.14911522239515, 91.58892582949886, 92.0152836843556, 87.57049330475357]",4.0,True,6.75,2.753785273643051,2.8110852241516113,0.6608330495970945
0,,sub_111,2024-07-10 10:43:21,3,distance,cathedral,numerosity_judgement,1,73,2,countries_reversed,"['_Japan_reversed', '_Yemen_reversed']","['m', 'm']","['p307', 'p256']","[9, 10]","[92.00610777531934, 93.00003341222717]",4.0,False,11.5,0.7071067811865476,2.9377877712249756,0.7367835659970492
0,,sub_111,2024-07-10 10:43:24,3,distance,cathedral,numerosity_judgement,1,74,6,countries_reversed,"['_Tonga_reversed', '_Britain_reversed', '_Peru_reversed', '_Yemen_reversed', '_Congo_reversed', '_Cuba_reversed']","['m', 'f', 'm', 'f', 'm', 'f']","['p318', 'p284', 'p307', 'p268', 'p256', 'p245']","[8, 1, 2, 7, 3, 4]","[92.0152836843556, 86.2038576498559, 87.57049330475357, 91.73820004985969, 89.14911522239515, 89.31368318402099]",6.0,True,6.166666666666667,2.786873995477131,2.188944101333618,0.7503575076608785
0,,sub_111,2024-07-10 10:45:32,3,distance,cathedral,numerosity_judgement,2,0,6,countries_reversed,"['_Mali_reversed', '_Cuba_reversed', '_Sudan_reversed', '_Peru_reversed', '_Japan_reversed', '_Yemen_reversed']","['f', 'f', 'm', 'f', 'm', 'm']","['p284', 'p248', 'p318', 'p245', 'p256', 'p229']","[10, 8, 5, 1, 0, 9]","[93.00003341222717, 92.0152836843556, 90.34149293193902, 86.2038576498559, 84.40078082039426, 92.00610777531934]",4.0,False,7.5,4.230839160261236,1.6211001873016357,0.8307229599364431
0,,sub_111,2024-07-10 10:45:35,3,distance,cathedral,numerosity_judgement,2,1,2,countries_reversed,"['_Oman_reversed', '_Yemen_reversed']","['f', 'm']","['p245', 'p256']","[10, 3]","[93.00003341222717, 89.14911522239515]",3.0,False,8.5,4.949747468305833,1.3126282691955566,0.595846101464079
0,,sub_111,2024-07-10 10:45:38,3,distance,cathedral,numerosity_judgement,2,2,3,countries_reversed,"['_Cuba_reversed', '_Peru_reversed', '_Syria_reversed']","['f', 'm', 'm']","['p248', 'p318', 'p229']","[6, 9, 10]","[91.58892582949886, 92.00610777531934, 93.00003341222717]",5.0,False,10.333333333333334,2.0816659994661326,1.5646419525146484,0.8319373510384747
0,,sub_111,2024-07-10 10:45:40,3,distance,cathedral,numerosity_judgement,2,3,5,countries_reversed,"['_Britain_reversed', '_Congo_reversed', '_Cuba_reversed', '_Yemen_reversed', '_Tonga_reversed']","['m', 'f', 'm', 'f', 'f']","['p307', 'p268', 'p229', 'p284', 'p245']","[7, 5, 6, 10, 9]","[91.73820004985969, 90.34149293193902, 91.58892582949886, 93.00003341222717, 92.00610777531934]",5.0,True,9.4,2.073644135332772,1.6251590251922607,0.8300646918624447
0,,sub_111,2024-07-10 10:45:44,3,distance,cathedral,numerosity_judgement,2,4,4,countries_reversed,"['_Syria_reversed', '_Tonga_reversed', '_Yemen_reversed', '_Britain_reversed']","['m', 'f', 'm', 'm']","['p256', 'p245', 'p307', 'p229']","[8, 3, 4, 2]","[92.0152836843556, 89.14911522239515, 89.31368318402099, 87.57049330475357]",4.0,True,6.25,2.6299556396765835,1.7370400428771973,0.7042673930314379
0,,sub_111,2024-07-10 10:45:46,3,distance,cathedral,numerosity_judgement,2,5,6,countries_reversed,"['_Mali_reversed', '_Britain_reversed', '_Syria_reversed', '_Sudan_reversed', '_Belgium_reversed', '_Japan_reversed']","['m', 'f', 'm', 'f', 'f', 'f']","['p307', 'p284', 'p256', 'p245', 'p268', 'p248']","[0, 5, 9, 7, 1, 3]","[84.40078082039426, 90.34149293193902, 92.00610777531934, 91.73820004985969, 86.2038576498559, 89.14911522239515]",5.0,False,6.166666666666667,3.488074922742725,1.6242725849151611,0.9018613097264784
0,,sub_111,2024-07-10 10:45:50,3,distance,cathedral,numerosity_judgement,2,6,4,countries_reversed,"['_Yemen_reversed', '_Syria_reversed', '_Togo_reversed', '_Tonga_reversed']","['f', 'm', 'm', 'f']","['p284', 'p318', 'p256', 'p248']","[5, 4, 3, 10]","[90.34149293193902, 89.31368318402099, 89.14911522239515, 93.00003341222717]",5.0,False,7.5,3.1091263510296048,1.7500877380371094,0.7865849506298944
0,,sub_111,2024-07-10 10:45:53,3,distance,cathedral,numerosity_judgement,2,7,3,countries_reversed,"['_Cuba_reversed', '_Yemen_reversed', '_Peru_reversed']","['f', 'm', 'f']","['p245', 'p307', 'p248']","[7, 5, 1]","[91.73820004985969, 90.34149293193902, 86.2038576498559]",3.0,True,6.333333333333333,3.0550504633038935,1.8124492168426514,0.5953013278855975
0,,sub_111,2024-07-10 10:45:56,3,distance,cathedral,numerosity_judgement,2,8,2,countries_reversed,"['_Japan_reversed', '_Sudan_reversed']","['m', 'f']","['p229', 'p245']","[1, 4]","[86.2038576498559, 89.31368318402099]",3.0,False,4.5,2.1213203435596424,2.50012469291687,0.9565429576665532
0,,sub_111,2024-07-10 10:46:00,3,distance,cathedral,numerosity_judgement,2,9,5,countries_reversed,"['_Belgium_reversed', '_Britain_reversed', '_Japan_reversed', '_Oman_reversed', '_Tonga_reversed']","['f', 'f', 'f', 'm', 'm']","['p268', 'p245', 'p248', 'p307', 'p318']","[10, 5, 8, 4, 3]","[93.00003341222717, 90.34149293193902, 92.0152836843556, 89.31368318402099, 89.14911522239515]",4.0,False,8.0,2.9154759474226504,1.937591314315796,0.7836567926455567
0,,sub_111,2024-07-10 10:46:03,3,distance,cathedral,numerosity_judgement,2,10,3,countries_reversed,"['_Peru_reversed', '_Britain_reversed', '_Yemen_reversed']","['m', 'm', 'f']","['p256', 'p318', 'p245']","[5, 4, 6]","[90.34149293193902, 89.31368318402099, 91.58892582949886]",2.0,False,7.0,1.0,2.6094160079956055,0.7132902054250368
0,,sub_111,2024-07-10 10:46:06,3,distance,cathedral,numerosity_judgement,2,11,2,countries_reversed,"['_Yemen_reversed', '_Cuba_reversed']","['m', 'm']","['p307', 'p229']","[8, 10]","[92.0152836843556, 93.00003341222717]",2.0,True,11.0,1.4142135623730951,1.6875839233398438,0.6369197593916694
0,,sub_111,2024-07-10 10:46:10,3,distance,cathedral,numerosity_judgement,2,12,4,countries_reversed,"['_Tonga_reversed', '_Japan_reversed', '_Yemen_reversed', '_Congo_reversed']","['f', 'f', 'f', 'm']","['p284', 'p248', 'p245', 'p256']","[5, 8, 3, 6]","[90.34149293193902, 92.0152836843556, 89.14911522239515, 91.58892582949886]",3.0,False,7.5,2.0816659994661326,2.1876096725463867,0.8095675859720803
0,,sub_111,2024-07-10 10:46:14,3,distance,cathedral,numerosity_judgement,2,13,6,countries_reversed,"['_Japan_reversed', '_Congo_reversed', '_Belgium_reversed', '_Tonga_reversed', '_Britain_reversed', '_Peru_reversed']","['m', 'f', 'm', 'f', 'm', 'f']","['p318', 'p284', 'p229', 'p248', 'p307', 'p245']","[10, 4, 6, 1, 0, 5]","[93.00003341222717, 89.31368318402099, 91.58892582949886, 86.2038576498559, 84.40078082039426, 90.34149293193902]",4.0,False,6.333333333333333,3.6147844564602556,2.9222841262817383,0.922528657360118
0,,sub_111,2024-07-10 10:46:18,3,distance,cathedral,numerosity_judgement,2,14,5,countries_reversed,"['_Cuba_reversed', '_Peru_reversed', '_Britain_reversed', '_Mali_reversed', '_Yemen_reversed']","['m', 'f', 'm', 'm', 'f']","['p307', 'p284', 'p318', 'p256', 'p248']","[5, 10, 4, 3, 7]","[90.34149293193902, 93.00003341222717, 89.31368318402099, 89.14911522239515, 91.73820004985969]",3.0,False,7.8,2.7748873851023212,2.3754115104675293,0.7292702303938259
0,,sub_111,2024-07-10 10:46:21,3,distance,cathedral,numerosity_judgement,2,15,6,countries_reversed,"['_Mali_reversed', '_Togo_reversed', '_Cuba_reversed', '_Yemen_reversed', '_Congo_reversed', '_Sudan_reversed']","['m', 'f', 'm', 'f', 'f', 'f']","['p307', 'p268', 'p318', 'p248', 'p284', 'p245']","[7, 3, 5, 10, 6, 1]","[91.73820004985969, 89.14911522239515, 90.34149293193902, 93.00003341222717, 91.58892582949886, 86.2038576498559]",4.0,False,7.333333333333333,3.141125063837266,1.6875858306884766,0.7460220179321303
0,,sub_111,2024-07-10 10:46:25,3,distance,cathedral,numerosity_judgement,2,16,4,countries_reversed,"['_Britain_reversed', '_Yemen_reversed', '_Belgium_reversed', '_Oman_reversed']","['f', 'm', 'm', 'f']","['p248', 'p318', 'p256', 'p284']","[0, 1, 6, 9]","[84.40078082039426, 86.2038576498559, 91.58892582949886, 92.00610777531934]",3.0,False,6.0,4.242640687119285,2.7516019344329834,0.8787197820905686
0,,sub_111,2024-07-10 10:46:30,3,distance,cathedral,numerosity_judgement,2,17,3,countries_reversed,"['_Yemen_reversed', '_Sudan_reversed', '_Belgium_reversed']","['m', 'm', 'f']","['p256', 'p318', 'p268']","[8, 5, 0]","[92.0152836843556, 90.34149293193902, 84.40078082039426]",4.0,False,6.333333333333333,4.041451884327381,3.625117063522339,0.8711383497900352
0,,sub_111,2024-07-10 10:46:33,3,distance,cathedral,numerosity_judgement,2,18,2,countries_reversed,"['_Peru_reversed', '_Tonga_reversed']","['m', 'm']","['p318', 'p256']","[6, 3]","[91.58892582949886, 89.14911522239515]",2.0,True,6.5,2.1213203435596424,2.0639641284942627,0.7676086709794575
0,,sub_111,2024-07-10 10:46:38,3,distance,cathedral,numerosity_judgement,2,19,5,countries_reversed,"['_Cuba_reversed', '_Peru_reversed', '_Oman_reversed', '_Sudan_reversed', '_Congo_reversed']","['f', 'f', 'm', 'm', 'm']","['p248', 'p268', 'p318', 'p307', 'p256']","[8, 5, 3, 7, 9]","[92.0152836843556, 90.34149293193902, 89.14911522239515, 91.73820004985969, 92.00610777531934]",3.0,False,8.4,2.4083189157584592,3.624812602996826,0.7493360572012258
0,,sub_111,2024-07-10 10:46:41,3,distance,cathedral,numerosity_judgement,2,20,2,countries_reversed,"['_Yemen_reversed', '_Britain_reversed']","['f', 'f']","['p248', 'p245']","[9, 7]","[92.00610777531934, 91.73820004985969]",2.0,True,10.0,1.4142135623730951,1.8751211166381836,0.6771989558506413
0,,sub_111,2024-07-10 10:46:44,3,distance,cathedral,numerosity_judgement,2,21,4,countries_reversed,"['_Britain_reversed', '_Mali_reversed', '_Syria_reversed', '_Belgium_reversed']","['f', 'f', 'f', 'm']","['p268', 'p245', 'p248', 'p307']","[10, 1, 4, 2]","[93.00003341222717, 86.2038576498559, 89.31368318402099, 87.57049330475357]",4.0,True,6.25,4.031128874149275,2.1244144439697266,0.9383384405856317
0,,sub_111,2024-07-10 10:46:48,3,distance,cathedral,numerosity_judgement,2,22,6,countries_reversed,"['_Syria_reversed', '_Mali_reversed', '_Japan_reversed', '_Yemen_reversed', '_Oman_reversed', '_Cuba_reversed']","['m', 'f', 'f', 'm', 'f', 'm']","['p307', 'p248', 'p245', 'p229', 'p284', 'p256']","[10, 0, 5, 3, 7, 2]","[93.00003341222717, 84.40078082039426, 90.34149293193902, 89.14911522239515, 91.73820004985969, 87.57049330475357]",4.0,False,6.5,3.6193922141707713,2.3138766288757324,0.8148904778118261
0,,sub_111,2024-07-10 10:46:53,3,distance,cathedral,numerosity_judgement,2,23,3,countries_reversed,"['_Cuba_reversed', '_Yemen_reversed', '_Togo_reversed']","['m', 'f', 'm']","['p229', 'p268', 'p318']","[1, 10, 0]","[86.2038576498559, 93.00003341222717, 84.40078082039426]",3.0,True,5.666666666666667,5.507570547286102,3.751282215118408,0.905992509363296
0,,sub_111,2024-07-10 10:46:58,3,distance,cathedral,numerosity_judgement,2,24,5,countries_reversed,"['_Sudan_reversed', '_Yemen_reversed', '_Syria_reversed', '_Britain_reversed', '_Cuba_reversed']","['m', 'f', 'm', 'f', 'm']","['p318', 'p248', 'p229', 'p245', 'p256']","[9, 0, 6, 3, 10]","[92.00610777531934, 84.40078082039426, 91.58892582949886, 89.14911522239515, 93.00003341222717]",4.0,False,7.6,4.159326868617084,3.187232494354248,0.8492566110543639
0,,sub_111,2024-07-10 10:47:00,3,distance,cathedral,numerosity_judgement,2,25,6,countries_reversed,"['_Syria_reversed', '_Cuba_reversed', '_Britain_reversed', '_Mali_reversed', '_Japan_reversed', '_Belgium_reversed']","['f', 'm', 'm', 'f', 'm', 'f']","['p268', 'p256', 'p318', 'p248', 'p307', 'p245']","[5, 0, 1, 7, 6, 2]","[90.34149293193902, 84.40078082039426, 86.2038576498559, 91.73820004985969, 91.58892582949886, 87.57049330475357]",5.0,False,5.5,2.8809720581775866,1.5625755786895752,0.934468278288503
0,,sub_111,2024-07-10 10:47:03,3,distance,cathedral,numerosity_judgement,2,26,2,countries_reversed,"['_Japan_reversed', '_Tonga_reversed']","['m', 'm']","['p307', 'p318']","[5, 4]","[90.34149293193902, 89.31368318402099]",2.0,True,6.5,0.7071067811865476,1.689483880996704,0.8420951083872432
0,,sub_111,2024-07-10 10:47:06,3,distance,cathedral,numerosity_judgement,2,27,3,countries_reversed,"['_Syria_reversed', '_Sudan_reversed', '_Congo_reversed']","['m', 'f', 'm']","['p256', 'p248', 'p229']","[10, 9, 6]","[93.00003341222717, 92.00610777531934, 91.58892582949886]",3.0,True,10.333333333333334,2.0816659994661326,1.8125901222229004,0.8077743729429123
0,,sub_111,2024-07-10 10:47:10,3,distance,cathedral,numerosity_judgement,2,28,5,countries_reversed,"['_Oman_reversed', '_Congo_reversed', '_Yemen_reversed', '_Mali_reversed', '_Togo_reversed']","['m', 'f', 'f', 'm', 'm']","['p307', 'p248', 'p245', 'p256', 'p229']","[4, 7, 6, 2, 8]","[89.31368318402099, 91.73820004985969, 91.58892582949886, 87.57049330475357, 92.0152836843556]",5.0,True,7.4,2.4083189157584592,1.8750944137573242,0.7072749971626376
0,,sub_111,2024-07-10 10:47:14,3,distance,cathedral,numerosity_judgement,2,29,4,countries_reversed,"['_Togo_reversed', '_Tonga_reversed', '_Japan_reversed', '_Congo_reversed']","['m', 'f', 'm', 'm']","['p256', 'p284', 'p318', 'p307']","[0, 3, 9, 7]","[84.40078082039426, 89.14911522239515, 92.00610777531934, 91.73820004985969]",3.0,False,6.75,4.031128874149275,2.8760108947753906,0.8580297355578255
0,,sub_111,2024-07-10 10:47:17,3,distance,cathedral,numerosity_judgement,2,30,3,countries_reversed,"['_Oman_reversed', '_Cuba_reversed', '_Syria_reversed']","['m', 'm', 'f']","['p256', 'p307', 'p284']","[4, 10, 3]","[89.31368318402099, 93.00003341222717, 89.14911522239515]",4.0,False,7.666666666666667,3.7859388972001824,1.6874473094940186,0.7733741913517195
0,,sub_111,2024-07-10 10:47:21,3,distance,cathedral,numerosity_judgement,2,31,4,countries_reversed,"['_Britain_reversed', '_Peru_reversed', '_Oman_reversed', '_Syria_reversed']","['m', 'f', 'm', 'm']","['p318', 'p245', 'p229', 'p256']","[6, 9, 7, 5]","[91.58892582949886, 92.00610777531934, 91.73820004985969, 90.34149293193902]",4.0,True,8.75,1.707825127659933,2.9376468658447266,0.6560549313358303
0,,sub_111,2024-07-10 10:47:25,3,distance,cathedral,numerosity_judgement,2,32,5,countries_reversed,"['_Britain_reversed', '_Belgium_reversed', '_Tonga_reversed', '_Congo_reversed', '_Syria_reversed']","['f', 'f', 'f', 'f', 'm']","['p245', 'p248', 'p284', 'p268', 'p307']","[8, 0, 3, 2, 6]","[92.0152836843556, 84.40078082039426, 89.14911522239515, 87.57049330475357, 91.58892582949886]",6.0,False,5.8,3.1937438845342623,2.3770031929016113,0.9348655090228124
0,,sub_111,2024-07-10 10:47:28,3,distance,cathedral,numerosity_judgement,2,33,6,countries_reversed,"['_Yemen_reversed', '_Congo_reversed', '_Tonga_reversed', '_Togo_reversed', '_Britain_reversed', '_Syria_reversed']","['m', 'm', 'f', 'f', 'f', 'm']","['p307', 'p256', 'p245', 'p268', 'p284', 'p318']","[5, 8, 6, 4, 10, 1]","[90.34149293193902, 92.0152836843556, 91.58892582949886, 89.31368318402099, 93.00003341222717, 86.2038576498559]",6.0,True,7.666666666666667,3.141125063837266,1.6836321353912354,0.7191578708432641
0,,sub_111,2024-07-10 10:47:31,3,distance,cathedral,numerosity_judgement,2,34,2,countries_reversed,"['_Cuba_reversed', '_Britain_reversed']","['f', 'm']","['p248', 'p256']","[8, 10]","[92.0152836843556, 93.00003341222717]",3.0,False,11.0,1.4142135623730951,2.1251072883605957,0.5812280104414936
0,,sub_111,2024-07-10 10:47:35,3,distance,cathedral,numerosity_judgement,2,35,6,countries_reversed,"['_Togo_reversed', '_Tonga_reversed', '_Oman_reversed', '_Congo_reversed', '_Cuba_reversed', '_Syria_reversed']","['f', 'm', 'f', 'm', 'f', 'f']","['p284', 'p307', 'p268', 'p256', 'p245', 'p248']","[6, 10, 7, 2, 4, 3]","[91.58892582949886, 93.00003341222717, 91.73820004985969, 87.57049330475357, 89.31368318402099, 89.14911522239515]",4.0,False,7.333333333333333,2.943920288775949,2.3751864433288574,0.7716377255703099
0,,sub_111,2024-07-10 10:47:38,3,distance,cathedral,numerosity_judgement,2,36,4,countries_reversed,"['_Syria_reversed', '_Cuba_reversed', '_Congo_reversed', '_Oman_reversed']","['m', 'm', 'm', 'f']","['p318', 'p229', 'p307', 'p245']","[10, 3, 6, 9]","[93.00003341222717, 89.14911522239515, 91.58892582949886, 92.00610777531934]",4.0,True,9.0,3.1622776601683795,1.9375522136688232,0.7699807059357621
0,,sub_111,2024-07-10 10:47:42,3,distance,cathedral,numerosity_judgement,2,37,2,countries_reversed,"['_Japan_reversed', '_Sudan_reversed']","['m', 'm']","['p256', 'p307']","[3, 6]","[89.14911522239515, 91.58892582949886]",3.0,False,6.5,2.1213203435596424,2.8748302459716797,0.7480081716036773
0,,sub_111,2024-07-10 10:47:46,3,distance,cathedral,numerosity_judgement,2,38,5,countries_reversed,"['_Oman_reversed', '_Mali_reversed', '_Peru_reversed', '_Yemen_reversed', '_Tonga_reversed']","['f', 'm', 'f', 'm', 'f']","['p248', 'p229', 'p284', 'p307', 'p268']","[9, 6, 1, 7, 0]","[92.00610777531934, 91.58892582949886, 86.2038576498559, 91.73820004985969, 84.40078082039426]",3.0,False,6.6,3.9115214431215892,2.5626280307769775,0.8144705481784134
0,,sub_111,2024-07-10 10:47:49,3,distance,cathedral,numerosity_judgement,2,39,3,countries_reversed,"['_Tonga_reversed', '_Yemen_reversed', '_Congo_reversed']","['f', 'f', 'f']","['p245', 'p268', 'p248']","[7, 3, 9]","[91.73820004985969, 89.14911522239515, 92.00610777531934]",5.0,False,8.333333333333334,3.055050463303893,1.801529884338379,0.6729088639200999
0,,sub_111,2024-07-10 10:47:53,3,distance,cathedral,numerosity_judgement,2,40,5,countries_reversed,"['_Tonga_reversed', '_Syria_reversed', '_Cuba_reversed', '_Mali_reversed', '_Oman_reversed']","['m', 'f', 'f', 'm', 'm']","['p307', 'p268', 'p284', 'p229', 'p318']","[8, 4, 3, 5, 0]","[92.0152836843556, 89.31368318402099, 89.14911522239515, 90.34149293193902, 84.40078082039426]",5.0,True,6.0,2.9154759474226504,3.1253974437713623,0.903404834865509
0,,sub_111,2024-07-10 10:47:56,3,distance,cathedral,numerosity_judgement,2,41,6,countries_reversed,"['_Belgium_reversed', '_Sudan_reversed', '_Togo_reversed', '_Cuba_reversed', '_Japan_reversed', '_Syria_reversed']","['f', 'm', 'm', 'm', 'm', 'f']","['p268', 'p229', 'p318', 'p307', 'p256', 'p245']","[8, 7, 4, 1, 9, 10]","[92.0152836843556, 91.73820004985969, 89.31368318402099, 86.2038576498559, 92.00610777531934, 93.00003341222717]",6.0,True,8.5,3.391164991562634,1.3750689029693604,0.9541709227102484
0,,sub_111,2024-07-10 10:48:01,3,distance,cathedral,numerosity_judgement,2,42,4,countries_reversed,"['_Congo_reversed', '_Britain_reversed', '_Japan_reversed', '_Yemen_reversed']","['m', 'f', 'f', 'f']","['p256', 'p284', 'p248', 'p268']","[2, 10, 3, 0]","[87.57049330475357, 93.00003341222717, 89.14911522239515, 84.40078082039426]",4.0,True,5.75,4.349329450233296,3.998283863067627,0.9028146634888208
0,,sub_111,2024-07-10 10:48:05,3,distance,cathedral,numerosity_judgement,2,43,3,countries_reversed,"['_Oman_reversed', '_Peru_reversed', '_Cuba_reversed']","['f', 'f', 'm']","['p284', 'p248', 'p307']","[6, 10, 7]","[91.58892582949886, 93.00003341222717, 91.73820004985969]",3.0,True,9.666666666666666,2.0816659994661326,2.690264940261841,0.6376234252638747
0,,sub_111,2024-07-10 10:48:09,3,distance,cathedral,numerosity_judgement,2,44,2,countries_reversed,"['_Togo_reversed', '_Yemen_reversed']","['f', 'm']","['p248', 'p307']","[1, 3]","[86.2038576498559, 89.14911522239515]",2.0,True,4.0,1.4142135623730951,2.751222610473633,0.9240154352513904
0,,sub_111,2024-07-10 10:48:12,3,distance,cathedral,numerosity_judgement,2,45,5,countries_reversed,"['_Cuba_reversed', '_Yemen_reversed', '_Sudan_reversed', '_Peru_reversed', '_Syria_reversed']","['m', 'f', 'm', 'm', 'f']","['p256', 'p268', 'p307', 'p229', 'p284']","[1, 10, 4, 0, 6]","[86.2038576498559, 93.00003341222717, 89.31368318402099, 84.40078082039426, 91.58892582949886]",6.0,False,6.2,4.024922359499621,1.6857609748840332,0.9110543638633526
0,,sub_111,2024-07-10 10:48:15,3,distance,cathedral,numerosity_judgement,2,46,6,countries_reversed,"['_Belgium_reversed', '_Yemen_reversed', '_Cuba_reversed', '_Tonga_reversed', '_Peru_reversed', '_Oman_reversed']","['f', 'm', 'm', 'f', 'm', 'm']","['p268', 'p318', 'p229', 'p245', 'p307', 'p256']","[5, 0, 3, 7, 1, 10]","[90.34149293193902, 84.40078082039426, 89.14911522239515, 91.73820004985969, 86.2038576498559, 93.00003341222717]",6.0,True,6.333333333333333,3.777124126457412,1.6875851154327393,0.6814890477811826
0,,sub_111,2024-07-10 10:48:18,3,distance,cathedral,numerosity_judgement,2,47,4,countries_reversed,"['_Cuba_reversed', '_Sudan_reversed', '_Japan_reversed', '_Peru_reversed']","['f', 'f', 'm', 'f']","['p284', 'p248', 'p318', 'p245']","[5, 7, 8, 4]","[90.34149293193902, 91.73820004985969, 92.0152836843556, 89.31368318402099]",6.0,False,8.0,1.8257418583505538,1.8138914108276367,0.8494609011462944
0,,sub_111,2024-07-10 10:48:22,3,distance,cathedral,numerosity_judgement,2,48,2,countries_reversed,"['_Cuba_reversed', '_Mali_reversed']","['m', 'f']","['p307', 'p284']","[8, 9]","[92.0152836843556, 92.00610777531934]",3.0,False,10.5,0.7071067811865476,2.436890125274658,0.8346271705822268
0,,sub_111,2024-07-10 10:48:26,3,distance,cathedral,numerosity_judgement,2,49,3,countries_reversed,"['_Syria_reversed', '_Mali_reversed', '_Sudan_reversed']","['f', 'm', 'f']","['p268', 'p318', 'p284']","[4, 10, 9]","[89.31368318402099, 93.00003341222717, 92.00610777531934]",3.0,True,9.666666666666666,3.214550253664318,2.9376471042633057,0.9471342639881966
0,,sub_111,2024-07-10 10:48:29,3,distance,cathedral,numerosity_judgement,2,50,2,countries_reversed,"['_Yemen_reversed', '_Oman_reversed']","['f', 'f']","['p268', 'p245']","[6, 3]","[91.58892582949886, 89.14911522239515]",2.0,True,6.5,2.1213203435596424,1.5671148300170898,0.7139825218476904
0,,sub_111,2024-07-10 10:48:32,3,distance,cathedral,numerosity_judgement,2,51,6,countries_reversed,"['_Syria_reversed', '_Oman_reversed', '_Sudan_reversed', '_Cuba_reversed', '_Mali_reversed', '_Peru_reversed']","['f', 'm', 'm', 'f', 'm', 'f']","['p248', 'p307', 'p256', 'p245', 'p229', 'p268']","[0, 9, 6, 10, 1, 8]","[84.40078082039426, 92.00610777531934, 91.58892582949886, 93.00003341222717, 86.2038576498559, 92.0152836843556]",4.0,False,7.666666666666667,4.226897995772629,2.185131549835205,0.7418227215980024
0,,sub_111,2024-07-10 10:48:36,3,distance,cathedral,numerosity_judgement,2,52,4,countries_reversed,"['_Oman_reversed', '_Yemen_reversed', '_Britain_reversed', '_Mali_reversed']","['m', 'm', 'm', 'm']","['p229', 'p318', 'p307', 'p256']","[5, 7, 9, 6]","[90.34149293193902, 91.73820004985969, 92.00610777531934, 91.58892582949886]",3.0,False,8.75,1.707825127659933,2.375119209289551,0.6135966405629327
0,,sub_111,2024-07-10 10:48:39,3,distance,cathedral,numerosity_judgement,2,53,5,countries_reversed,"['_Japan_reversed', '_Belgium_reversed', '_Britain_reversed', '_Togo_reversed', '_Mali_reversed']","['m', 'f', 'f', 'f', 'm']","['p318', 'p245', 'p284', 'p268', 'p229']","[0, 6, 5, 8, 2]","[84.40078082039426, 91.58892582949886, 90.34149293193902, 92.0152836843556, 87.57049330475357]",4.0,False,6.2,3.1937438845342623,1.937817096710205,0.95224151628646
0,,sub_111,2024-07-10 10:48:42,3,distance,cathedral,numerosity_judgement,2,54,3,countries_reversed,"['_Congo_reversed', '_Britain_reversed', '_Oman_reversed']","['m', 'm', 'f']","['p256', 'p307', 'p268']","[8, 3, 9]","[92.0152836843556, 89.14911522239515, 92.00610777531934]",5.0,False,8.666666666666666,3.214550253664318,1.7530639171600342,0.7591306321643401
0,,sub_111,2024-07-10 10:48:46,3,distance,cathedral,numerosity_judgement,2,55,4,countries_reversed,"['_Togo_reversed', '_Oman_reversed', '_Cuba_reversed', '_Yemen_reversed']","['f', 'f', 'f', 'm']","['p245', 'p248', 'p284', 'p256']","[8, 3, 1, 6]","[92.0152836843556, 89.14911522239515, 86.2038576498559, 91.58892582949886]",4.0,True,6.5,3.1091263510296048,2.062603235244751,0.7508568834411531
0,,sub_111,2024-07-10 10:48:48,3,distance,cathedral,numerosity_judgement,2,56,2,countries_reversed,"['_Oman_reversed', '_Yemen_reversed']","['f', 'f']","['p284', 'p245']","[2, 7]","[87.57049330475357, 91.73820004985969]",2.0,True,6.5,3.5355339059327378,1.5014338493347168,0.6570423334468278
0,,sub_111,2024-07-10 10:48:52,3,distance,cathedral,numerosity_judgement,2,57,5,countries_reversed,"['_Belgium_reversed', '_Cuba_reversed', '_Congo_reversed', '_Oman_reversed', '_Britain_reversed']","['f', 'm', 'f', 'f', 'm']","['p268', 'p307', 'p248', 'p245', 'p229']","[9, 7, 4, 6, 10]","[92.00610777531934, 91.73820004985969, 89.31368318402099, 91.58892582949886, 93.00003341222717]",5.0,True,9.2,2.3874672772626644,2.186944007873535,0.6419362160935195
0,,sub_111,2024-07-10 10:48:57,3,distance,cathedral,numerosity_judgement,2,58,3,countries_reversed,"['_Congo_reversed', '_Sudan_reversed', '_Mali_reversed']","['m', 'f', 'f']","['p307', 'p248', 'p284']","[1, 7, 2]","[86.2038576498559, 91.73820004985969, 87.57049330475357]",2.0,False,5.333333333333333,3.2145502536643185,3.6869020462036133,0.942594484167518
0,,sub_111,2024-07-10 10:49:00,3,distance,cathedral,numerosity_judgement,2,59,6,countries_reversed,"['_Congo_reversed', '_Belgium_reversed', '_Cuba_reversed', '_Japan_reversed', '_Britain_reversed', '_Peru_reversed']","['f', 'f', 'f', 'm', 'f', 'm']","['p268', 'p245', 'p248', 'p256', 'p284', 'p307']","[1, 9, 5, 6, 3, 4]","[86.2038576498559, 92.00610777531934, 90.34149293193902, 91.58892582949886, 89.14911522239515, 89.31368318402099]",4.0,False,6.666666666666667,2.7325202042558927,2.0001003742218018,0.8788446260356373
0,,sub_111,2024-07-10 10:49:04,3,distance,cathedral,numerosity_judgement,2,60,5,countries_reversed,"['_Britain_reversed', '_Oman_reversed', '_Cuba_reversed', '_Congo_reversed', '_Peru_reversed']","['f', 'f', 'f', 'm', 'm']","['p245', 'p268', 'p248', 'p307', 'p256']","[3, 9, 10, 5, 4]","[89.14911522239515, 92.00610777531934, 93.00003341222717, 90.34149293193902, 89.31368318402099]",4.0,False,8.2,3.1144823004794873,2.062221050262451,0.6833163091590058
0,,sub_111,2024-07-10 10:49:07,3,distance,cathedral,numerosity_judgement,2,61,6,countries_reversed,"['_Mali_reversed', '_Yemen_reversed', '_Oman_reversed', '_Britain_reversed', '_Cuba_reversed', '_Togo_reversed']","['m', 'f', 'm', 'm', 'f', 'm']","['p307', 'p245', 'p256', 'p318', 'p248', 'p229']","[6, 7, 8, 3, 2, 0]","[91.58892582949886, 91.73820004985969, 92.0152836843556, 89.14911522239515, 87.57049330475357, 84.40078082039426]",4.0,False,6.333333333333333,3.141125063837266,2.50498366355896,0.6907615480649189
0,,sub_111,2024-07-10 10:49:11,3,distance,cathedral,numerosity_judgement,2,62,3,countries_reversed,"['_Peru_reversed', '_Belgium_reversed', '_Oman_reversed']","['f', 'm', 'f']","['p268', 'p229', 'p245']","[10, 2, 5]","[93.00003341222717, 87.57049330475357, 90.34149293193902]",3.0,True,7.666666666666667,4.041451884327381,2.500180244445801,0.6891272273294745
0,,sub_111,2024-07-10 10:49:15,3,distance,cathedral,numerosity_judgement,2,63,2,countries_reversed,"['_Cuba_reversed', '_Britain_reversed']","['m', 'm']","['p318', 'p307']","[4, 0]","[89.31368318402099, 84.40078082039426]",2.0,True,4.0,2.8284271247461903,2.2459659576416016,0.8854954034729315
0,,sub_111,2024-07-10 10:49:21,3,distance,cathedral,numerosity_judgement,2,64,4,countries_reversed,"['_Peru_reversed', '_Yemen_reversed', '_Togo_reversed', '_Cuba_reversed']","['m', 'f', 'm', 'f']","['p229', 'p248', 'p318', 'p245']","[2, 10, 0, 5]","[87.57049330475357, 93.00003341222717, 84.40078082039426, 90.34149293193902]",3.0,False,6.25,4.349329450233296,5.064515113830566,0.6749290659403019
0,,sub_111,2024-07-10 10:49:25,3,distance,cathedral,numerosity_judgement,2,65,5,countries_reversed,"['_Syria_reversed', '_Cuba_reversed', '_Yemen_reversed', '_Britain_reversed', '_Belgium_reversed']","['f', 'f', 'f', 'm', 'f']","['p284', 'p245', 'p268', 'p307', 'p248']","[9, 7, 4, 6, 8]","[92.00610777531934, 91.73820004985969, 89.31368318402099, 91.58892582949886, 92.0152836843556]",6.0,False,8.8,1.9235384061671346,2.4354376792907715,0.7674838270343888
0,,sub_111,2024-07-10 10:49:28,3,distance,cathedral,numerosity_judgement,2,66,6,countries_reversed,"['_Oman_reversed', '_Mali_reversed', '_Peru_reversed', '_Cuba_reversed', '_Syria_reversed', '_Belgium_reversed']","['m', 'm', 'f', 'm', 'f', 'm']","['p256', 'p307', 'p284', 'p318', 'p245', 'p229']","[8, 7, 1, 5, 2, 10]","[92.0152836843556, 91.73820004985969, 86.2038576498559, 90.34149293193902, 87.57049330475357, 93.00003341222717]",6.0,True,7.5,3.5071355833500366,1.814706563949585,0.7881057768698219
0,,sub_111,2024-07-10 10:49:31,3,distance,cathedral,numerosity_judgement,2,67,2,countries_reversed,"['_Tonga_reversed', '_Congo_reversed']","['f', 'm']","['p248', 'p318']","[4, 6]","[89.31368318402099, 91.58892582949886]",5.0,False,7.0,1.4142135623730951,2.078221321105957,0.9377936670071502
0,,sub_111,2024-07-10 10:49:35,3,distance,cathedral,numerosity_judgement,2,68,4,countries_reversed,"['_Belgium_reversed', '_Peru_reversed', '_Syria_reversed', '_Sudan_reversed']","['m', 'f', 'f', 'f']","['p229', 'p248', 'p268', 'p245']","[7, 0, 9, 2]","[91.73820004985969, 84.40078082039426, 92.00610777531934, 87.57049330475357]",5.0,False,6.5,4.203173404306164,2.9365322589874268,0.9597435024401316
0,,sub_111,2024-07-10 10:49:38,3,distance,cathedral,numerosity_judgement,2,69,3,countries_reversed,"['_Yemen_reversed', '_Peru_reversed', '_Britain_reversed']","['f', 'f', 'f']","['p248', 'p245', 'p284']","[0, 7, 2]","[84.40078082039426, 91.73820004985969, 87.57049330475357]",6.0,False,5.0,3.605551275463989,1.8738179206848145,0.8516399954602202
0,,sub_111,2024-07-10 10:49:42,3,distance,cathedral,numerosity_judgement,2,70,2,countries_reversed,"['_Britain_reversed', '_Cuba_reversed']","['f', 'm']","['p245', 'p256']","[0, 8]","[84.40078082039426, 92.0152836843556]",4.0,False,6.0,5.656854249492381,2.1876070499420166,0.7918397457723301
0,,sub_111,2024-07-10 10:49:45,3,distance,cathedral,numerosity_judgement,2,71,4,countries_reversed,"['_Belgium_reversed', '_Cuba_reversed', '_Yemen_reversed', '_Oman_reversed']","['m', 'f', 'f', 'f']","['p256', 'p284', 'p268', 'p248']","[1, 10, 8, 3]","[86.2038576498559, 93.00003341222717, 92.0152836843556, 89.14911522239515]",6.0,False,7.5,4.203173404306164,1.5000758171081543,0.7158211326750653
0,,sub_111,2024-07-10 10:49:48,3,distance,cathedral,numerosity_judgement,2,72,6,countries_reversed,"['_Cuba_reversed', '_Sudan_reversed', '_Congo_reversed', '_Mali_reversed', '_Britain_reversed', '_Japan_reversed']","['m', 'f', 'm', 'm', 'm', 'f']","['p307', 'p245', 'p256', 'p229', 'p318', 'p268']","[10, 6, 3, 5, 0, 8]","[93.00003341222717, 91.58892582949886, 89.14911522239515, 90.34149293193902, 84.40078082039426, 92.0152836843556]",6.0,True,7.333333333333333,3.559026084010437,1.9998455047607422,0.8646918624446714
0,,sub_111,2024-07-10 10:49:51,3,distance,cathedral,numerosity_judgement,2,73,3,countries_reversed,"['_Oman_reversed', '_Togo_reversed', '_Cuba_reversed']","['m', 'm', 'm']","['p256', 'p229', 'p307']","[6, 10, 5]","[91.58892582949886, 93.00003341222717, 90.34149293193902]",3.0,True,9.0,2.6457513110645907,2.187608480453491,0.616956077630235
0,,sub_111,2024-07-10 10:49:55,3,distance,cathedral,numerosity_judgement,2,74,5,countries_reversed,"['_Togo_reversed', '_Tonga_reversed', '_Britain_reversed', '_Syria_reversed', '_Belgium_reversed']","['f', 'm', 'm', 'm', 'f']","['p248', 'p229', 'p318', 'p307', 'p268']","[5, 6, 2, 7, 3]","[90.34149293193902, 91.58892582949886, 87.57049330475357, 91.73820004985969, 89.14911522239515]",3.0,False,6.6,2.073644135332772,2.879617691040039,0.8678810577686982
0,,sub_111,2024-07-10 10:51:15,3,distance,cathedral,numerosity_judgement,3,0,2,countries_forward,"['_Yemen_', '_Congo_']","['f', 'f']","['p245', 'p268']","[9, 10]","[92.00610777531934, 93.00003341222717]",3.0,False,11.5,0.7071067811865476,3.4867587089538574,0.7030983997276132
0,,sub_111,2024-07-10 10:51:19,3,distance,cathedral,numerosity_judgement,3,1,5,countries_forward,"['_Tonga_', '_Japan_', '_Sudan_', '_Belgium_', '_Yemen_']","['m', 'm', 'f', 'f', 'f']","['p307', 'p229', 'p268', 'p248', 'p245']","[10, 3, 1, 8, 2]","[93.00003341222717, 89.14911522239515, 86.2038576498559, 92.0152836843556, 87.57049330475357]",4.0,False,6.8,3.96232255123179,2.6252362728118896,0.9437407785722391
0,,sub_111,2024-07-10 10:51:23,3,distance,cathedral,numerosity_judgement,3,2,6,countries_forward,"['_Yemen_', '_Sudan_', '_Oman_', '_Japan_', '_Belgium_', '_Congo_']","['m', 'f', 'f', 'm', 'm', 'f']","['p229', 'p245', 'p268', 'p256', 'p318', 'p248']","[6, 7, 2, 1, 4, 5]","[91.58892582949886, 91.73820004985969, 87.57049330475357, 86.2038576498559, 89.31368318402099, 90.34149293193902]",5.0,False,6.166666666666667,2.316606713852541,1.6243484020233154,0.8773691975939167
0,,sub_111,2024-07-10 10:51:26,3,distance,cathedral,numerosity_judgement,3,3,3,countries_forward,"['_Yemen_', '_Oman_', '_Britain_']","['f', 'm', 'm']","['p248', 'p229', 'p307']","[10, 3, 6]","[93.00003341222717, 89.14911522239515, 91.58892582949886]",4.0,False,8.333333333333334,3.511884584284246,1.8750367164611816,0.6105209397344229
0,,sub_111,2024-07-10 10:51:31,3,distance,cathedral,numerosity_judgement,3,4,4,countries_forward,"['_Yemen_', '_Congo_', '_Tonga_', '_Cuba_']","['m', 'm', 'm', 'f']","['p229', 'p307', 'p256', 'p268']","[2, 10, 5, 9]","[87.57049330475357, 93.00003341222717, 90.34149293193902, 92.00610777531934]",3.0,False,8.5,3.696845502136472,3.378483533859253,0.7087390761548065
0,,sub_111,2024-07-10 10:51:34,3,distance,cathedral,numerosity_judgement,3,5,2,countries_forward,"['_Yemen_', '_Britain_']","['m', 'm']","['p229', 'p256']","[7, 5]","[91.73820004985969, 90.34149293193902]",2.0,True,8.0,1.4142135623730951,1.1871538162231445,0.7226535013051867
0,,sub_111,2024-07-10 10:51:39,3,distance,cathedral,numerosity_judgement,3,6,6,countries_forward,"['_Belgium_', '_Mali_', '_Sudan_', '_Oman_', '_Syria_', '_Britain_']","['f', 'm', 'f', 'm', 'f', 'm']","['p248', 'p256', 'p245', 'p318', 'p268', 'p307']","[6, 5, 9, 4, 0, 3]","[91.58892582949886, 90.34149293193902, 92.00610777531934, 89.31368318402099, 84.40078082039426, 89.14911522239515]",4.0,False,6.5,3.0166206257996713,2.5011489391326904,0.90876177505391
0,,sub_111,2024-07-10 10:51:43,3,distance,cathedral,numerosity_judgement,3,7,3,countries_forward,"['_Togo_', '_Cuba_', '_Peru_']","['f', 'm', 'f']","['p245', 'p229', 'p268']","[5, 2, 4]","[90.34149293193902, 87.57049330475357, 89.31368318402099]",3.0,True,5.666666666666667,1.5275252316519465,2.871900796890259,0.7496538417886732
0,,sub_111,2024-07-10 10:51:47,3,distance,cathedral,numerosity_judgement,3,8,5,countries_forward,"['_Tonga_', '_Cuba_', '_Togo_', '_Congo_', '_Japan_']","['f', 'f', 'f', 'm', 'm']","['p245', 'p268', 'p284', 'p256', 'p307']","[5, 7, 2, 3, 9]","[90.34149293193902, 91.73820004985969, 87.57049330475357, 89.14911522239515, 92.00610777531934]",4.0,False,7.2,2.863564212655271,1.6875858306884766,0.7315968675519238
0,,sub_111,2024-07-10 10:51:51,3,distance,cathedral,numerosity_judgement,3,9,4,countries_forward,"['_Sudan_', '_Togo_', '_Yemen_', '_Tonga_']","['m', 'f', 'm', 'f']","['p307', 'p268', 'p318', 'p248']","[9, 8, 4, 0]","[92.00610777531934, 92.0152836843556, 89.31368318402099, 84.40078082039426]",3.0,False,7.25,4.112987559751022,2.8126399517059326,0.834354783792986
0,,sub_111,2024-07-10 10:51:54,3,distance,cathedral,numerosity_judgement,3,10,2,countries_forward,"['_Mali_', '_Cuba_']","['m', 'f']","['p256', 'p284']","[8, 2]","[92.0152836843556, 87.57049330475357]",2.0,True,7.0,4.242640687119285,1.623462200164795,0.8396663261831802
0,,sub_111,2024-07-10 10:51:58,3,distance,cathedral,numerosity_judgement,3,11,5,countries_forward,"['_Britain_', '_Cuba_', '_Tonga_', '_Syria_', '_Togo_']","['m', 'm', 'f', 'm', 'f']","['p256', 'p307', 'p245', 'p318', 'p248']","[10, 5, 1, 0, 2]","[93.00003341222717, 90.34149293193902, 86.2038576498559, 84.40078082039426, 87.57049330475357]",3.0,False,5.6,4.03732584763727,1.8720169067382812,0.7827261377823176
0,,sub_111,2024-07-10 10:52:03,3,distance,cathedral,numerosity_judgement,3,12,4,countries_forward,"['_Cuba_', '_Syria_', '_Tonga_', '_Japan_']","['m', 'f', 'f', 'm']","['p256', 'p248', 'p268', 'p318']","[9, 10, 0, 3]","[92.00610777531934, 93.00003341222717, 84.40078082039426, 89.14911522239515]",3.0,False,7.5,4.795831523312719,2.999422550201416,0.9435137895812054
0,,sub_111,2024-07-10 10:52:06,3,distance,cathedral,numerosity_judgement,3,13,3,countries_forward,"['_Belgium_', '_Britain_', '_Yemen_']","['m', 'm', 'f']","['p307', 'p229', 'p284']","[3, 7, 2]","[89.14911522239515, 91.73820004985969, 87.57049330475357]",2.0,False,6.0,2.6457513110645907,2.0001001358032227,0.8944841675178754
0,,sub_111,2024-07-10 10:52:11,3,distance,cathedral,numerosity_judgement,3,14,6,countries_forward,"['_Cuba_', '_Peru_', '_Tonga_', '_Yemen_', '_Mali_', '_Oman_']","['f', 'f', 'm', 'f', 'm', 'f']","['p284', 'p245', 'p229', 'p248', 'p307', 'p268']","[0, 8, 10, 3, 6, 9]","[84.40078082039426, 92.0152836843556, 93.00003341222717, 89.14911522239515, 91.58892582949886, 92.00610777531934]",3.0,False,8.0,3.847076812334269,2.0626308917999268,0.7394393371921462
0,,sub_111,2024-07-10 10:52:16,3,distance,cathedral,numerosity_judgement,3,15,5,countries_forward,"['_Cuba_', '_Belgium_', '_Japan_', '_Peru_', '_Tonga_']","['m', 'f', 'f', 'm', 'f']","['p307', 'p245', 'p248', 'p318', 'p268']","[1, 2, 10, 8, 0]","[86.2038576498559, 87.57049330475357, 93.00003341222717, 92.0152836843556, 84.40078082039426]",3.0,False,6.2,4.494441010848846,3.3611607551574707,0.9224038134150494
0,,sub_111,2024-07-10 10:52:20,3,distance,cathedral,numerosity_judgement,3,16,3,countries_forward,"['_Sudan_', '_Mali_', '_Belgium_']","['f', 'f', 'f']","['p284', 'p245', 'p248']","[4, 0, 1]","[89.31368318402099, 84.40078082039426, 86.2038576498559]",2.0,False,3.6666666666666665,2.081665999466133,2.2505943775177,0.9670752468505276
0,,sub_111,2024-07-10 10:52:24,3,distance,cathedral,numerosity_judgement,3,17,6,countries_forward,"['_Japan_', '_Togo_', '_Congo_', '_Britain_', '_Oman_', '_Tonga_']","['f', 'f', 'f', 'm', 'm', 'm']","['p245', 'p284', 'p248', 'p318', 'p307', 'p229']","[10, 0, 1, 7, 6, 5]","[93.00003341222717, 84.40078082039426, 86.2038576498559, 91.73820004985969, 91.58892582949886, 90.34149293193902]",3.0,False,6.833333333333333,3.763863263545405,2.5593039989471436,0.8101577573487686
0,,sub_111,2024-07-10 10:52:28,3,distance,cathedral,numerosity_judgement,3,18,4,countries_forward,"['_Sudan_', '_Congo_', '_Togo_', '_Yemen_']","['m', 'f', 'm', 'm']","['p256', 'p284', 'p307', 'p318']","[0, 9, 4, 10]","[84.40078082039426, 92.00610777531934, 89.31368318402099, 93.00003341222717]",3.0,False,7.75,4.645786621588784,2.4228646755218506,0.8457609805924413
0,,sub_111,2024-07-10 10:52:32,3,distance,cathedral,numerosity_judgement,3,19,2,countries_forward,"['_Britain_', '_Peru_']","['f', 'm']","['p245', 'p318']","[1, 9]","[86.2038576498559, 92.00610777531934]",2.0,True,7.0,5.656854249492381,2.250112295150757,0.7947111565089093
0,,sub_111,2024-07-10 10:52:37,3,distance,cathedral,numerosity_judgement,3,20,4,countries_forward,"['_Congo_', '_Mali_', '_Yemen_', '_Britain_']","['f', 'm', 'f', 'm']","['p268', 'p318', 'p245', 'p256']","[5, 4, 2, 8]","[90.34149293193902, 89.31368318402099, 87.57049330475357, 92.0152836843556]",3.0,False,6.75,2.5,2.8751447200775146,0.7586312563840654
0,,sub_111,2024-07-10 10:52:40,3,distance,cathedral,numerosity_judgement,3,21,2,countries_forward,"['_Syria_', '_Togo_']","['m', 'm']","['p229', 'p256']","[0, 7]","[84.40078082039426, 91.73820004985969]",2.0,True,5.5,4.949747468305833,1.7500817775726318,0.9337646124162978
0,,sub_111,2024-07-10 10:52:43,3,distance,cathedral,numerosity_judgement,3,22,3,countries_forward,"['_Cuba_', '_Togo_', '_Britain_']","['f', 'f', 'm']","['p245', 'p268', 'p256']","[8, 10, 3]","[92.0152836843556, 93.00003341222717, 89.14911522239515]",2.0,False,9.0,3.605551275463989,1.7976088523864746,0.7324140279196459
0,,sub_111,2024-07-10 10:52:47,3,distance,cathedral,numerosity_judgement,3,23,5,countries_forward,"['_Peru_', '_Togo_', '_Mali_', '_Tonga_', '_Congo_']","['f', 'm', 'm', 'm', 'm']","['p248', 'p318', 'p307', 'p256', 'p229']","[3, 1, 5, 6, 2]","[89.14911522239515, 86.2038576498559, 90.34149293193902, 91.58892582949886, 87.57049330475357]",3.0,False,5.4,2.073644135332772,2.0612480640411377,0.8453183520599251
0,,sub_111,2024-07-10 10:52:53,3,distance,cathedral,numerosity_judgement,3,24,6,countries_forward,"['_Belgium_', '_Yemen_', '_Japan_', '_Sudan_', '_Syria_', '_Oman_']","['m', 'f', 'm', 'f', 'f', 'f']","['p307', 'p248', 'p318', 'p284', 'p245', 'p268']","[6, 8, 2, 1, 3, 5]","[91.58892582949886, 92.0152836843556, 87.57049330475357, 86.2038576498559, 89.14911522239515, 90.34149293193902]",4.0,False,6.166666666666667,2.6394443859772205,3.342904806137085,0.8934967654068777
0,,sub_111,2024-07-10 10:52:58,3,distance,cathedral,numerosity_judgement,3,25,5,countries_forward,"['_Belgium_', '_Mali_', '_Japan_', '_Syria_', '_Britain_']","['f', 'm', 'm', 'f', 'm']","['p245', 'p307', 'p256', 'p248', 'p229']","[2, 5, 1, 3, 8]","[87.57049330475357, 90.34149293193902, 86.2038576498559, 89.14911522239515, 92.0152836843556]",3.0,False,5.8,2.7748873851023212,2.868054151535034,0.8724889342866871
0,,sub_111,2024-07-10 10:53:02,3,distance,cathedral,numerosity_judgement,3,26,4,countries_forward,"['_Britain_', '_Yemen_', '_Oman_', '_Sudan_']","['m', 'f', 'm', 'm']","['p318', 'p248', 'p307', 'p229']","[2, 10, 5, 7]","[87.57049330475357, 93.00003341222717, 90.34149293193902, 91.73820004985969]",2.0,False,8.0,3.366501646120693,2.562577724456787,0.8016002723867892
0,,sub_111,2024-07-10 10:53:06,3,distance,cathedral,numerosity_judgement,3,27,3,countries_forward,"['_Syria_', '_Tonga_', '_Togo_']","['f', 'm', 'm']","['p268', 'p318', 'p307']","[4, 0, 8]","[89.31368318402099, 84.40078082039426, 92.0152836843556]",2.0,False,6.0,4.0,1.687584638595581,0.9279763931449324
0,,sub_111,2024-07-10 10:53:09,3,distance,cathedral,numerosity_judgement,3,28,2,countries_forward,"['_Yemen_', '_Peru_']","['m', 'f']","['p256', 'p245']","[7, 5]","[91.73820004985969, 90.34149293193902]",2.0,True,8.0,1.4142135623730951,2.190349817276001,0.5815457950289411
0,,sub_111,2024-07-10 10:53:14,3,distance,cathedral,numerosity_judgement,3,29,6,countries_forward,"['_Britain_', '_Mali_', '_Tonga_', '_Syria_', '_Yemen_', '_Cuba_']","['f', 'f', 'm', 'm', 'm', 'f']","['p248', 'p245', 'p307', 'p256', 'p229', 'p268']","[3, 9, 0, 7, 8, 10]","[89.14911522239515, 92.00610777531934, 84.40078082039426, 91.73820004985969, 92.0152836843556, 93.00003341222717]",3.0,False,8.166666666666666,3.8686776379877745,2.999612808227539,0.8395414822381114
0,,sub_111,2024-07-10 10:53:18,3,distance,cathedral,numerosity_judgement,3,30,3,countries_forward,"['_Syria_', '_Japan_', '_Mali_']","['f', 'm', 'm']","['p245', 'p229', 'p256']","[7, 6, 3]","[91.73820004985969, 91.58892582949886, 89.14911522239515]",2.0,False,7.333333333333333,2.0816659994661326,2.065113067626953,0.8226308024060833
0,,sub_111,2024-07-10 10:53:22,3,distance,cathedral,numerosity_judgement,3,31,6,countries_forward,"['_Tonga_', '_Yemen_', '_Oman_', '_Britain_', '_Mali_', '_Japan_']","['f', 'm', 'm', 'm', 'f', 'm']","['p245', 'p318', 'p229', 'p307', 'p268', 'p256']","[8, 2, 9, 10, 5, 3]","[92.0152836843556, 87.57049330475357, 92.00610777531934, 93.00003341222717, 90.34149293193902, 89.14911522239515]",4.0,False,8.166666666666666,3.3115957885386114,1.6875829696655273,0.7963227783452502
0,,sub_111,2024-07-10 10:53:26,3,distance,cathedral,numerosity_judgement,3,32,4,countries_forward,"['_Sudan_', '_Oman_', '_Togo_', '_Congo_']","['f', 'm', 'm', 'f']","['p268', 'p307', 'p318', 'p248']","[4, 0, 7, 2]","[89.31368318402099, 84.40078082039426, 91.73820004985969, 87.57049330475357]",3.0,False,5.25,2.9860788111948193,2.3126165866851807,0.9613097264782658
0,,sub_111,2024-07-10 10:53:31,3,distance,cathedral,numerosity_judgement,3,33,5,countries_forward,"['_Oman_', '_Peru_', '_Congo_', '_Britain_', '_Togo_']","['m', 'm', 'f', 'm', 'f']","['p229', 'p256', 'p248', 'p318', 'p268']","[6, 2, 10, 4, 9]","[91.58892582949886, 87.57049330475357, 93.00003341222717, 89.31368318402099, 92.00610777531934]",4.0,False,8.2,3.3466401061363023,3.0639963150024414,0.7160821700147543
0,,sub_111,2024-07-10 10:53:35,3,distance,cathedral,numerosity_judgement,3,34,2,countries_forward,"['_Japan_', '_Sudan_']","['f', 'f']","['p268', 'p284']","[0, 9]","[84.40078082039426, 92.00610777531934]",2.0,True,6.5,6.363961030678928,2.7568209171295166,0.972681874929066
0,,sub_111,2024-07-10 10:53:39,3,distance,cathedral,numerosity_judgement,3,35,5,countries_forward,"['_Tonga_', '_Yemen_', '_Japan_', '_Mali_', '_Oman_']","['f', 'm', 'm', 'f', 'f']","['p245', 'p307', 'p229', 'p248', 'p268']","[5, 8, 0, 4, 7]","[90.34149293193902, 92.0152836843556, 84.40078082039426, 89.31368318402099, 91.73820004985969]",3.0,False,6.8,3.1144823004794877,2.0568435192108154,0.7539098853705595
0,,sub_111,2024-07-10 10:53:43,3,distance,cathedral,numerosity_judgement,3,36,4,countries_forward,"['_Peru_', '_Yemen_', '_Mali_', '_Oman_']","['m', 'm', 'm', 'f']","['p307', 'p229', 'p318', 'p248']","[3, 0, 6, 10]","[89.14911522239515, 84.40078082039426, 91.58892582949886, 93.00003341222717]",2.0,False,6.75,4.272001872658765,2.4985926151275635,0.7405629326977642
0,,sub_111,2024-07-10 10:53:46,3,distance,cathedral,numerosity_judgement,3,37,2,countries_forward,"['_Cuba_', '_Belgium_']","['m', 'f']","['p256', 'p284']","[3, 9]","[89.14911522239515, 92.00610777531934]",2.0,True,8.0,4.242640687119285,1.7500925064086914,0.91759164680513
0,,sub_111,2024-07-10 10:53:50,3,distance,cathedral,numerosity_judgement,3,38,6,countries_forward,"['_Tonga_', '_Congo_', '_Cuba_', '_Togo_', '_Syria_', '_Oman_']","['f', 'm', 'f', 'm', 'f', 'm']","['p245', 'p229', 'p268', 'p307', 'p248', 'p256']","[7, 9, 5, 6, 0, 3]","[91.73820004985969, 92.00610777531934, 90.34149293193902, 91.58892582949886, 84.40078082039426, 89.14911522239515]",3.0,False,7.0,3.1622776601683795,1.8785827159881592,0.7532062194983543
0,,sub_111,2024-07-10 10:53:55,3,distance,cathedral,numerosity_judgement,3,39,3,countries_forward,"['_Oman_', '_Mali_', '_Peru_']","['m', 'm', 'm']","['p307', 'p256', 'p318']","[5, 6, 10]","[90.34149293193902, 91.58892582949886, 93.00003341222717]",3.0,True,9.0,2.6457513110645907,2.8612077236175537,0.6453864487572353
0,,sub_111,2024-07-10 10:53:59,3,distance,cathedral,numerosity_judgement,3,40,4,countries_forward,"['_Sudan_', '_Japan_', '_Mali_', '_Belgium_']","['m', 'f', 'm', 'f']","['p229', 'p248', 'p318', 'p245']","[9, 7, 8, 10]","[92.00610777531934, 91.73820004985969, 92.0152836843556, 93.00003341222717]",3.0,False,10.5,1.2909944487358056,2.8744723796844482,0.8945636136647372
0,,sub_111,2024-07-10 10:54:04,3,distance,cathedral,numerosity_judgement,3,41,5,countries_forward,"['_Peru_', '_Yemen_', '_Mali_', '_Britain_', '_Syria_']","['f', 'm', 'm', 'm', 'f']","['p268', 'p318', 'p307', 'p256', 'p284']","[0, 9, 6, 4, 5]","[84.40078082039426, 92.00610777531934, 91.58892582949886, 89.31368318402099, 90.34149293193902]",3.0,False,6.8,3.271085446759225,3.376251459121704,0.9042900919305412
0,,sub_111,2024-07-10 10:54:08,3,distance,cathedral,numerosity_judgement,3,42,3,countries_forward,"['_Belgium_', '_Sudan_', '_Syria_']","['m', 'm', 'f']","['p307', 'p229', 'p268']","[5, 0, 8]","[90.34149293193902, 84.40078082039426, 92.0152836843556]",2.0,False,6.333333333333333,4.041451884327381,1.4996161460876465,0.949063670411985
0,,sub_111,2024-07-10 10:54:11,3,distance,cathedral,numerosity_judgement,3,43,6,countries_forward,"['_Togo_', '_Tonga_', '_Cuba_', '_Syria_', '_Yemen_', '_Oman_']","['f', 'f', 'f', 'm', 'm', 'm']","['p268', 'p245', 'p248', 'p318', 'p229', 'p307']","[6, 5, 3, 0, 7, 2]","[91.58892582949886, 90.34149293193902, 89.14911522239515, 84.40078082039426, 91.73820004985969, 87.57049330475357]",3.0,False,5.833333333333333,2.6394443859772205,1.750086784362793,0.7281693337873113
0,,sub_111,2024-07-10 10:54:14,3,distance,cathedral,numerosity_judgement,3,44,2,countries_forward,"['_Oman_', '_Yemen_']","['m', 'm']","['p307', 'p256']","[3, 2]","[89.14911522239515, 87.57049330475357]",2.0,True,4.5,0.7071067811865476,1.2494709491729736,0.669311088412212
0,,sub_111,2024-07-10 10:54:17,3,distance,cathedral,numerosity_judgement,3,45,3,countries_forward,"['_Sudan_', '_Cuba_', '_Yemen_']","['m', 'f', 'm']","['p307', 'p284', 'p256']","[9, 2, 4]","[92.00610777531934, 87.57049330475357, 89.31368318402099]",2.0,False,7.0,3.605551275463989,1.4375948905944824,0.8419135171944161
0,,sub_111,2024-07-10 10:54:20,3,distance,cathedral,numerosity_judgement,3,46,2,countries_forward,"['_Mali_', '_Oman_']","['m', 'm']","['p307', 'p256']","[5, 7]","[90.34149293193902, 91.73820004985969]",2.0,True,8.0,1.4142135623730951,1.6251437664031982,0.5621949835432981
0,,sub_111,2024-07-10 10:54:24,3,distance,cathedral,numerosity_judgement,3,47,4,countries_forward,"['_Congo_', '_Sudan_', '_Mali_', '_Cuba_']","['f', 'm', 'f', 'm']","['p248', 'p318', 'p284', 'p256']","[1, 3, 0, 8]","[86.2038576498559, 89.14911522239515, 84.40078082039426, 92.0152836843556]",3.0,False,5.0,3.559026084010437,1.813533067703247,0.9074792872545682
0,,sub_111,2024-07-10 10:54:28,3,distance,cathedral,numerosity_judgement,3,48,5,countries_forward,"['_Syria_', '_Congo_', '_Cuba_', '_Yemen_', '_Belgium_']","['m', 'f', 'm', 'f', 'm']","['p307', 'p248', 'p229', 'p245', 'p256']","[2, 1, 3, 5, 8]","[87.57049330475357, 86.2038576498559, 89.14911522239515, 90.34149293193902, 92.0152836843556]",3.0,False,5.8,2.7748873851023212,2.5647835731506348,0.853705595278629
0,,sub_111,2024-07-10 10:54:32,3,distance,cathedral,numerosity_judgement,3,49,6,countries_forward,"['_Tonga_', '_Cuba_', '_Togo_', '_Britain_', '_Syria_', '_Yemen_']","['f', 'f', 'f', 'm', 'm', 'm']","['p248', 'p268', 'p245', 'p256', 'p229', 'p307']","[10, 2, 9, 4, 5, 7]","[93.00003341222717, 87.57049330475357, 92.00610777531934, 89.31368318402099, 90.34149293193902, 91.73820004985969]",4.0,False,8.166666666666666,3.0605010483034745,1.500075340270996,0.8527181931676314
0,,sub_111,2024-07-10 10:54:36,3,distance,cathedral,numerosity_judgement,3,50,5,countries_forward,"['_Mali_', '_Cuba_', '_Sudan_', '_Belgium_', '_Syria_']","['m', 'm', 'f', 'm', 'f']","['p318', 'p307', 'p284', 'p229', 'p268']","[9, 6, 5, 2, 3]","[92.00610777531934, 91.58892582949886, 90.34149293193902, 87.57049330475357, 89.14911522239515]",3.0,False,7.0,2.7386127875258306,2.7501354217529297,0.9545568039950062
0,,sub_111,2024-07-10 10:54:40,3,distance,cathedral,numerosity_judgement,3,51,6,countries_forward,"['_Peru_', '_Japan_', '_Tonga_', '_Belgium_', '_Yemen_', '_Sudan_']","['m', 'f', 'm', 'f', 'f', 'f']","['p256', 'p248', 'p307', 'p268', 'p245', 'p284']","[1, 3, 4, 8, 0, 10]","[86.2038576498559, 89.14911522239515, 89.31368318402099, 92.0152836843556, 84.40078082039426, 93.00003341222717]",4.0,False,6.333333333333333,3.9327683210007,1.87575364112854,0.9537509930768358
0,,sub_111,2024-07-10 10:54:45,3,distance,cathedral,numerosity_judgement,3,52,3,countries_forward,"['_Mali_', '_Sudan_', '_Congo_']","['f', 'm', 'm']","['p245', 'p307', 'p229']","[8, 5, 7]","[92.0152836843556, 90.34149293193902, 91.73820004985969]",4.0,False,8.666666666666666,1.5275252316519468,3.0635828971862793,0.8580637839064805
0,,sub_111,2024-07-10 10:54:49,3,distance,cathedral,numerosity_judgement,3,53,2,countries_forward,"['_Mali_', '_Yemen_']","['m', 'f']","['p256', 'p245']","[3, 7]","[89.14911522239515, 91.73820004985969]",2.0,True,7.0,2.8284271247461903,2.375312566757202,0.6287595051639996
0,,sub_111,2024-07-10 10:54:53,3,distance,cathedral,numerosity_judgement,3,54,4,countries_forward,"['_Oman_', '_Yemen_', '_Belgium_', '_Britain_']","['m', 'f', 'f', 'm']","['p229', 'p245', 'p248', 'p307']","[10, 7, 6, 9]","[93.00003341222717, 91.73820004985969, 91.58892582949886, 92.00610777531934]",3.0,False,10.0,1.8257418583505538,1.9366729259490967,0.6980705935762116
0,,sub_111,2024-07-10 10:54:57,3,distance,cathedral,numerosity_judgement,3,55,3,countries_forward,"['_Sudan_', '_Yemen_', '_Togo_']","['m', 'f', 'm']","['p307', 'p245', 'p318']","[1, 10, 5]","[86.2038576498559, 93.00003341222717, 90.34149293193902]",3.0,True,7.333333333333333,4.509249752822894,3.062652826309204,0.7914311655884689
0,,sub_111,2024-07-10 10:55:00,3,distance,cathedral,numerosity_judgement,3,56,2,countries_forward,"['_Peru_', '_Mali_']","['m', 'm']","['p318', 'p256']","[5, 9]","[90.34149293193902, 92.00610777531934]",2.0,True,9.0,2.8284271247461903,1.4375722408294678,0.7697423674951764
0,,sub_111,2024-07-10 10:55:04,3,distance,cathedral,numerosity_judgement,3,57,4,countries_forward,"['_Syria_', '_Japan_', '_Yemen_', '_Peru_']","['f', 'f', 'm', 'f']","['p248', 'p268', 'p318', 'p245']","[4, 7, 0, 3]","[89.31368318402099, 91.73820004985969, 84.40078082039426, 89.14911522239515]",3.0,False,5.5,2.886751345948129,2.124769926071167,0.8767676767676768
0,,sub_111,2024-07-10 10:55:08,3,distance,cathedral,numerosity_judgement,3,58,5,countries_forward,"['_Yemen_', '_Oman_', '_Peru_', '_Mali_', '_Congo_']","['m', 'm', 'f', 'f', 'm']","['p256', 'p307', 'p268', 'p248', 'p229']","[7, 5, 4, 0, 9]","[91.73820004985969, 90.34149293193902, 89.31368318402099, 84.40078082039426, 92.00610777531934]",4.0,False,7.0,3.391164991562634,2.379671096801758,0.6961865849506299
0,,sub_111,2024-07-10 10:55:12,3,distance,cathedral,numerosity_judgement,3,59,6,countries_forward,"['_Syria_', '_Japan_', '_Oman_', '_Congo_', '_Belgium_', '_Tonga_']","['f', 'f', 'm', 'm', 'f', 'f']","['p284', 'p248', 'p229', 'p318', 'p268', 'p245']","[10, 9, 1, 4, 0, 2]","[93.00003341222717, 92.00610777531934, 86.2038576498559, 89.31368318402099, 84.40078082039426, 87.57049330475357]",5.0,False,6.333333333333333,4.226897995772629,1.5625765323638916,0.9442288049029622
0,,sub_111,2024-07-10 10:55:16,3,distance,cathedral,numerosity_judgement,3,60,5,countries_forward,"['_Yemen_', '_Tonga_', '_Congo_', '_Syria_', '_Peru_']","['m', 'm', 'f', 'f', 'm']","['p307', 'p318', 'p284', 'p245', 'p229']","[9, 5, 8, 7, 4]","[92.00610777531934, 90.34149293193902, 92.0152836843556, 91.73820004985969, 89.31368318402099]",5.0,True,8.6,2.073644135332772,2.0000979900360107,0.8259561911247304
0,,sub_111,2024-07-10 10:55:22,3,distance,cathedral,numerosity_judgement,3,61,4,countries_forward,"['_Peru_', '_Britain_', '_Cuba_', '_Congo_']","['f', 'm', 'f', 'm']","['p248', 'p256', 'p268', 'p318']","[4, 7, 8, 6]","[89.31368318402099, 91.73820004985969, 92.0152836843556, 91.58892582949886]",5.0,False,8.25,1.707825127659933,2.62514066696167,0.7820905686074225
0,,sub_111,2024-07-10 10:55:26,3,distance,cathedral,numerosity_judgement,3,62,3,countries_forward,"['_Yemen_', '_Oman_', '_Britain_']","['m', 'm', 'f']","['p229', 'p307', 'p245']","[3, 8, 7]","[89.14911522239515, 92.0152836843556, 91.73820004985969]",4.0,False,8.0,2.6457513110645907,2.62113618850708,0.6654295766655317
0,,sub_111,2024-07-10 10:55:29,3,distance,cathedral,numerosity_judgement,3,63,2,countries_forward,"['_Mali_', '_Congo_']","['f', 'f']","['p284', 'p245']","[3, 9]","[89.14911522239515, 92.00610777531934]",2.0,True,8.0,4.242640687119285,1.8762884140014648,0.8755986834638521
0,,sub_111,2024-07-10 10:55:33,3,distance,cathedral,numerosity_judgement,3,64,6,countries_forward,"['_Cuba_', '_Mali_', '_Oman_', '_Tonga_', '_Britain_', '_Yemen_']","['f', 'm', 'f', 'm', 'm', 'f']","['p248', 'p256', 'p268', 'p307', 'p318', 'p284']","[2, 8, 6, 5, 0, 4]","[87.57049330475357, 92.0152836843556, 91.58892582949886, 90.34149293193902, 84.40078082039426, 89.31368318402099]",3.0,False,6.166666666666667,2.857738033247041,2.1329967975616455,0.7798774259448417
0,,sub_111,2024-07-10 10:55:36,3,distance,cathedral,numerosity_judgement,3,65,2,countries_forward,"['_Oman_', '_Mali_']","['m', 'f']","['p307', 'p248']","[3, 8]","[89.14911522239515, 92.0152836843556]",2.0,True,7.5,3.5355339059327378,1.6250970363616943,0.6546249006923164
0,,sub_111,2024-07-10 10:55:40,3,distance,cathedral,numerosity_judgement,3,66,4,countries_forward,"['_Cuba_', '_Yemen_', '_Congo_', '_Oman_']","['m', 'f', 'f', 'f']","['p307', 'p268', 'p245', 'p248']","[7, 8, 4, 3]","[91.73820004985969, 92.0152836843556, 89.31368318402099, 89.14911522239515]",4.0,True,7.5,2.3804761428476167,1.993830680847168,0.629043241402792
0,,sub_111,2024-07-10 10:55:44,3,distance,cathedral,numerosity_judgement,3,67,6,countries_forward,"['_Tonga_', '_Peru_', '_Britain_', '_Oman_', '_Yemen_', '_Mali_']","['f', 'f', 'm', 'f', 'm', 'f']","['p245', 'p268', 'p318', 'p248', 'p307', 'p284']","[10, 8, 6, 9, 2, 7]","[93.00003341222717, 92.0152836843556, 91.58892582949886, 92.00610777531934, 87.57049330475357, 91.73820004985969]",5.0,False,9.0,2.8284271247461903,1.6210923194885254,0.7124843945068664
0,,sub_111,2024-07-10 10:55:48,3,distance,cathedral,numerosity_judgement,3,68,5,countries_forward,"['_Congo_', '_Peru_', '_Sudan_', '_Cuba_', '_Oman_']","['f', 'm', 'f', 'm', 'm']","['p245', 'p256', 'p248', 'p318', 'p307']","[7, 5, 0, 1, 3]","[91.73820004985969, 90.34149293193902, 84.40078082039426, 86.2038576498559, 89.14911522239515]",5.0,True,5.2,2.863564212655271,2.9362218379974365,0.8104641924866643
0,,sub_111,2024-07-10 10:55:54,3,distance,cathedral,numerosity_judgement,3,69,3,countries_forward,"['_Tonga_', '_Congo_', '_Oman_']","['f', 'm', 'm']","['p268', 'p256', 'p318']","[7, 8, 2]","[91.73820004985969, 92.0152836843556, 87.57049330475357]",4.0,False,7.666666666666667,3.2145502536643185,3.687305450439453,0.7050051072522983
0,,sub_111,2024-07-10 10:55:58,3,distance,cathedral,numerosity_judgement,3,70,5,countries_forward,"['_Japan_', '_Oman_', '_Tonga_', '_Mali_', '_Sudan_']","['m', 'm', 'm', 'f', 'f']","['p256', 'p318', 'p307', 'p268', 'p248']","[9, 7, 3, 8, 0]","[92.00610777531934, 91.73820004985969, 89.14911522239515, 92.0152836843556, 84.40078082039426]",6.0,False,7.4,3.7815340802378072,2.748361349105835,0.772829417773238
0,,sub_111,2024-07-10 10:56:02,3,distance,cathedral,numerosity_judgement,3,71,4,countries_forward,"['_Congo_', '_Oman_', '_Peru_', '_Yemen_']","['m', 'm', 'f', 'f']","['p307', 'p229', 'p284', 'p248']","[3, 10, 2, 6]","[89.14911522239515, 93.00003341222717, 87.57049330475357, 91.58892582949886]",5.0,False,7.25,3.593976442141304,2.5001046657562256,0.672829417773238
0,,sub_111,2024-07-10 10:56:06,3,distance,cathedral,numerosity_judgement,3,72,3,countries_forward,"['_Oman_', '_Mali_', '_Yemen_']","['f', 'm', 'f']","['p268', 'p307', 'p245']","[10, 3, 7]","[93.00003341222717, 89.14911522239515, 91.73820004985969]",4.0,False,8.666666666666666,3.511884584284246,2.5626327991485596,0.7809556236522529
0,,sub_111,2024-07-10 10:56:10,3,distance,cathedral,numerosity_judgement,3,73,2,countries_forward,"['_Mali_', '_Togo_']","['f', 'm']","['p245', 'p307']","[9, 1]","[92.00610777531934, 86.2038576498559]",3.0,False,7.0,5.656854249492381,2.4418795108795166,0.8225173079105663
0,,sub_111,2024-07-10 10:56:14,3,distance,cathedral,numerosity_judgement,3,74,6,countries_forward,"['_Tonga_', '_Congo_', '_Britain_', '_Belgium_', '_Syria_', '_Yemen_']","['f', 'm', 'm', 'f', 'm', 'm']","['p284', 'p256', 'p307', 'p268', 'p318', 'p229']","[5, 6, 8, 3, 10, 0]","[90.34149293193902, 91.58892582949886, 92.0152836843556, 89.14911522239515, 93.00003341222717, 84.40078082039426]",5.0,False,7.333333333333333,3.559026084010437,2.062382221221924,0.9282033821359664
0,,sub_111,2024-07-10 10:57:17,3,distance,cathedral,numerosity_judgement,4,0,5,countries_forward,"['_Belgium_', '_Peru_', '_Togo_', '_Sudan_', '_Yemen_']","['m', 'f', 'f', 'f', 'm']","['p318', 'p284', 'p245', 'p268', 'p229']","[1, 5, 7, 10, 3]","[86.2038576498559, 90.34149293193902, 91.73820004985969, 93.00003341222717, 89.14911522239515]",4.0,False,7.2,3.492849839314596,2.0626261234283447,0.948462149585745
0,,sub_111,2024-07-10 10:57:21,3,distance,cathedral,numerosity_judgement,4,1,3,countries_forward,"['_Tonga_', '_Britain_', '_Congo_']","['f', 'f', 'f']","['p245', 'p248', 'p268']","[5, 4, 0]","[90.34149293193902, 89.31368318402099, 84.40078082039426]",3.0,True,5.0,2.6457513110645907,2.0000998973846436,0.7601293837248894
0,,sub_111,2024-07-10 10:57:25,3,distance,cathedral,numerosity_judgement,4,2,2,countries_forward,"['_Cuba_', '_Oman_']","['f', 'm']","['p248', 'p229']","[5, 3]","[90.34149293193902, 89.14911522239515]",2.0,True,6.0,1.4142135623730951,2.5009186267852783,0.7394847349903529
0,,sub_111,2024-07-10 10:57:28,3,distance,cathedral,numerosity_judgement,4,3,4,countries_forward,"['_Mali_', '_Oman_', '_Tonga_', '_Cuba_']","['m', 'm', 'f', 'f']","['p256', 'p229', 'p245', 'p268']","[4, 3, 9, 5]","[89.31368318402099, 89.14911522239515, 92.00610777531934, 90.34149293193902]",3.0,False,7.25,2.6299556396765835,1.3739533424377441,0.7187265917602996
0,,sub_111,2024-07-10 10:57:32,3,distance,cathedral,numerosity_judgement,4,4,6,countries_forward,"['_Yemen_', '_Sudan_', '_Cuba_', '_Mali_', '_Togo_', '_Syria_']","['f', 'm', 'f', 'm', 'm', 'm']","['p245', 'p256', 'p248', 'p318', 'p229', 'p307']","[2, 1, 8, 0, 3, 5]","[87.57049330475357, 86.2038576498559, 92.0152836843556, 84.40078082039426, 89.14911522239515, 90.34149293193902]",4.0,False,5.166666666666667,2.9268868558020253,1.4375693798065186,0.8404380887526955
0,,sub_111,2024-07-10 10:57:35,3,distance,cathedral,numerosity_judgement,4,5,5,countries_forward,"['_Tonga_', '_Britain_', '_Yemen_', '_Sudan_', '_Togo_']","['f', 'f', 'f', 'm', 'm']","['p248', 'p284', 'p268', 'p256', 'p318']","[9, 6, 7, 5, 2]","[92.00610777531934, 91.58892582949886, 91.73820004985969, 90.34149293193902, 87.57049330475357]",4.0,False,7.8,2.588435821108957,1.5525178909301758,0.7913971172398139
0,,sub_111,2024-07-10 10:57:38,3,distance,cathedral,numerosity_judgement,4,6,6,countries_forward,"['_Britain_', '_Mali_', '_Cuba_', '_Tonga_', '_Peru_', '_Sudan_']","['f', 'm', 'f', 'f', 'm', 'm']","['p248', 'p256', 'p284', 'p245', 'p318', 'p307']","[7, 0, 9, 10, 8, 1]","[91.73820004985969, 84.40078082039426, 92.00610777531934, 93.00003341222717, 92.0152836843556, 86.2038576498559]",5.0,False,7.833333333333333,4.262237284181474,1.4955651760101318,0.8613551242764725
0,,sub_111,2024-07-10 10:57:43,3,distance,cathedral,numerosity_judgement,4,7,4,countries_forward,"['_Togo_', '_Yemen_', '_Peru_', '_Britain_']","['f', 'f', 'f', 'm']","['p248', 'p268', 'p284', 'p256']","[0, 7, 4, 10]","[84.40078082039426, 91.73820004985969, 89.31368318402099, 93.00003341222717]",5.0,False,7.25,4.272001872658765,2.998361587524414,0.7219725343320849
0,,sub_111,2024-07-10 10:57:48,3,distance,cathedral,numerosity_judgement,4,8,3,countries_forward,"['_Britain_', '_Cuba_', '_Yemen_']","['m', 'f', 'f']","['p307', 'p245', 'p284']","[4, 5, 8]","[89.31368318402099, 90.34149293193902, 92.0152836843556]",3.0,True,7.666666666666667,2.0816659994661326,2.9993207454681396,0.7251390307570083
0,,sub_111,2024-07-10 10:57:52,3,distance,cathedral,numerosity_judgement,4,9,2,countries_forward,"['_Britain_', '_Oman_']","['m', 'm']","['p307', 'p229']","[3, 6]","[89.14911522239515, 91.58892582949886]",2.0,True,6.5,2.1213203435596424,2.1251707077026367,0.5839972761321076
0,,sub_111,2024-07-10 10:57:55,3,distance,cathedral,numerosity_judgement,4,10,5,countries_forward,"['_Tonga_', '_Peru_', '_Yemen_', '_Cuba_', '_Syria_']","['m', 'm', 'f', 'f', 'm']","['p307', 'p256', 'p284', 'p248', 'p318']","[3, 5, 8, 6, 2]","[89.14911522239515, 90.34149293193902, 92.0152836843556, 91.58892582949886, 87.57049330475357]",3.0,False,6.8,2.3874672772626644,1.739793062210083,0.8131086142322097
0,,sub_111,2024-07-10 10:57:58,3,distance,cathedral,numerosity_judgement,4,11,2,countries_forward,"['_Tonga_', '_Sudan_']","['m', 'm']","['p318', 'p256']","[3, 5]","[89.14911522239515, 90.34149293193902]",2.0,True,6.0,1.4142135623730951,1.624295949935913,0.8265577119509704
0,,sub_111,2024-07-10 10:58:03,3,distance,cathedral,numerosity_judgement,4,12,6,countries_forward,"['_Syria_', '_Peru_', '_Belgium_', '_Cuba_', '_Oman_', '_Tonga_']","['f', 'f', 'm', 'm', 'f', 'm']","['p284', 'p268', 'p229', 'p307', 'p245', 'p256']","[1, 3, 9, 5, 10, 7]","[86.2038576498559, 89.14911522239515, 92.00610777531934, 90.34149293193902, 93.00003341222717, 91.73820004985969]",3.0,False,7.833333333333333,3.488074922742725,2.3751461505889893,0.765157189876291
0,,sub_111,2024-07-10 10:58:06,3,distance,cathedral,numerosity_judgement,4,13,3,countries_forward,"['_Oman_', '_Togo_', '_Belgium_']","['f', 'm', 'f']","['p245', 'p229', 'p268']","[0, 2, 6]","[84.40078082039426, 87.57049330475357, 91.58892582949886]",4.0,False,4.666666666666667,3.0550504633038935,1.687584400177002,0.879639087504256
0,,sub_111,2024-07-10 10:58:10,3,distance,cathedral,numerosity_judgement,4,14,4,countries_forward,"['_Congo_', '_Oman_', '_Peru_', '_Yemen_']","['m', 'm', 'f', 'f']","['p307', 'p229', 'p284', 'p248']","[3, 10, 2, 6]","[89.14911522239515, 93.00003341222717, 87.57049330475357, 91.58892582949886]",4.0,True,7.25,3.593976442141304,2.2494568824768066,0.672829417773238
0,,sub_111,2024-07-10 10:58:14,3,distance,cathedral,numerosity_judgement,4,15,3,countries_forward,"['_Oman_', '_Peru_', '_Britain_']","['m', 'f', 'm']","['p256', 'p268', 'p318']","[10, 4, 3]","[93.00003341222717, 89.31368318402099, 89.14911522239515]",3.0,True,7.666666666666667,3.7859388972001824,2.813601493835449,0.6588241970264442
0,,sub_111,2024-07-10 10:58:20,3,distance,cathedral,numerosity_judgement,4,16,5,countries_forward,"['_Togo_', '_Japan_', '_Yemen_', '_Tonga_', '_Sudan_']","['m', 'f', 'f', 'f', 'm']","['p307', 'p284', 'p248', 'p245', 'p318']","[2, 3, 9, 10, 5]","[87.57049330475357, 89.14911522239515, 92.00610777531934, 93.00003341222717, 90.34149293193902]",4.0,False,7.8,3.5637059362410923,3.501317262649536,0.8583702190443764
0,,sub_111,2024-07-10 10:58:26,3,distance,cathedral,numerosity_judgement,4,17,6,countries_forward,"['_Peru_', '_Sudan_', '_Congo_', '_Syria_', '_Oman_', '_Tonga_']","['f', 'f', 'f', 'f', 'm', 'm']","['p245', 'p268', 'p284', 'p248', 'p318', 'p307']","[10, 4, 3, 9, 8, 1]","[93.00003341222717, 89.31368318402099, 89.14911522239515, 92.00610777531934, 92.0152836843556, 86.2038576498559]",5.0,False,7.833333333333333,3.65604522218567,3.875166416168213,0.9386448757235274
0,,sub_111,2024-07-10 10:58:30,3,distance,cathedral,numerosity_judgement,4,18,4,countries_forward,"['_Togo_', '_Britain_', '_Mali_', '_Cuba_']","['f', 'm', 'f', 'm']","['p245', 'p256', 'p284', 'p307']","[6, 0, 8, 7]","[91.58892582949886, 84.40078082039426, 92.0152836843556, 91.73820004985969]",5.0,False,7.25,3.593976442141304,2.1886656284332275,0.6877085461355125
0,,sub_111,2024-07-10 10:58:33,3,distance,cathedral,numerosity_judgement,4,19,2,countries_forward,"['_Peru_', '_Togo_']","['m', 'm']","['p307', 'p229']","[4, 2]","[89.31368318402099, 87.57049330475357]",2.0,True,5.0,1.4142135623730951,1.5625782012939453,0.7506412438996709
0,,sub_111,2024-07-10 10:58:36,3,distance,cathedral,numerosity_judgement,4,20,6,countries_forward,"['_Syria_', '_Togo_', '_Cuba_', '_Sudan_', '_Japan_', '_Oman_']","['f', 'f', 'm', 'm', 'm', 'm']","['p268', 'p245', 'p229', 'p307', 'p256', 'p318']","[6, 5, 3, 7, 10, 8]","[91.58892582949886, 90.34149293193902, 89.14911522239515, 91.73820004985969, 93.00003341222717, 92.0152836843556]",4.0,False,8.5,2.4289915602982237,1.6875851154327393,0.8525479514243559
0,,sub_111,2024-07-10 10:58:40,3,distance,cathedral,numerosity_judgement,4,21,3,countries_forward,"['_Oman_', '_Cuba_', '_Yemen_']","['f', 'm', 'm']","['p245', 'p307', 'p318']","[1, 7, 0]","[86.2038576498559, 91.73820004985969, 84.40078082039426]",2.0,False,4.666666666666667,3.7859388972001824,2.062654495239258,0.70314379752582
0,,sub_111,2024-07-10 10:58:43,3,distance,cathedral,numerosity_judgement,4,22,2,countries_forward,"['_Mali_', '_Oman_']","['m', 'm']","['p307', 'p229']","[7, 6]","[91.73820004985969, 91.58892582949886]",2.0,True,8.5,0.7071067811865476,1.436872959136963,0.6778572239246397
0,,sub_111,2024-07-10 10:58:48,3,distance,cathedral,numerosity_judgement,4,23,5,countries_forward,"['_Oman_', '_Congo_', '_Cuba_', '_Britain_', '_Togo_']","['f', 'f', 'm', 'f', 'f']","['p245', 'p248', 'p307', 'p284', 'p268']","[10, 7, 5, 0, 4]","[93.00003341222717, 91.73820004985969, 90.34149293193902, 84.40078082039426, 89.31368318402099]",4.0,False,7.2,3.7013511046643495,2.6251559257507324,0.716127567812961
0,,sub_111,2024-07-10 10:58:52,3,distance,cathedral,numerosity_judgement,4,24,4,countries_forward,"['_Britain_', '_Tonga_', '_Cuba_', '_Congo_']","['f', 'm', 'm', 'f']","['p248', 'p256', 'p318', 'p245']","[6, 7, 9, 4]","[91.58892582949886, 91.73820004985969, 92.00610777531934, 89.31368318402099]",5.0,False,8.5,2.0816659994661326,2.2501132488250732,0.8577459993190331
0,,sub_111,2024-07-10 10:58:55,3,distance,cathedral,numerosity_judgement,4,25,2,countries_forward,"['_Congo_', '_Japan_']","['m', 'm']","['p318', 'p256']","[1, 6]","[86.2038576498559, 91.58892582949886]",2.0,True,5.5,3.5355339059327378,2.2353878021240234,0.8736919759391669
0,,sub_111,2024-07-10 10:58:59,3,distance,cathedral,numerosity_judgement,4,26,6,countries_forward,"['_Syria_', '_Oman_', '_Britain_', '_Peru_', '_Tonga_', '_Togo_']","['f', 'm', 'f', 'm', 'm', 'm']","['p284', 'p229', 'p248', 'p318', 'p256', 'p307']","[6, 9, 5, 8, 2, 1]","[91.58892582949886, 92.00610777531934, 90.34149293193902, 92.0152836843556, 87.57049330475357, 86.2038576498559]",3.0,False,7.166666666666667,3.188521078284832,1.6875596046447754,0.9094427420270116
0,,sub_111,2024-07-10 10:59:03,3,distance,cathedral,numerosity_judgement,4,27,5,countries_forward,"['_Mali_', '_Togo_', '_Tonga_', '_Oman_', '_Congo_']","['m', 'f', 'f', 'f', 'f']","['p318', 'p245', 'p268', 'p248', 'p284']","[10, 9, 6, 8, 0]","[93.00003341222717, 92.00610777531934, 91.58892582949886, 92.0152836843556, 84.40078082039426]",4.0,False,8.6,3.9749213828703582,1.8750932216644287,0.8861650209964816
0,,sub_111,2024-07-10 10:59:07,3,distance,cathedral,numerosity_judgement,4,28,3,countries_forward,"['_Cuba_', '_Congo_', '_Belgium_']","['f', 'm', 'f']","['p248', 'p318', 'p284']","[5, 8, 3]","[90.34149293193902, 92.0152836843556, 89.14911522239515]",3.0,True,7.333333333333333,2.516611478423583,2.5626285076141357,0.8923845193508115
0,,sub_111,2024-07-10 10:59:11,3,distance,cathedral,numerosity_judgement,4,29,4,countries_forward,"['_Tonga_', '_Britain_', '_Oman_', '_Mali_']","['m', 'm', 'm', 'f']","['p307', 'p256', 'p318', 'p268']","[7, 6, 5, 4]","[91.73820004985969, 91.58892582949886, 90.34149293193902, 89.31368318402099]",3.0,False,7.5,1.2909944487358056,2.62709379196167,0.8014867778912723
0,,sub_111,2024-07-10 10:59:16,3,distance,cathedral,numerosity_judgement,4,30,3,countries_forward,"['_Congo_', '_Mali_', '_Sudan_']","['f', 'm', 'f']","['p248', 'p318', 'p284']","[2, 5, 1]","[87.57049330475357, 90.34149293193902, 86.2038576498559]",4.0,False,4.666666666666667,2.0816659994661326,2.8614213466644287,0.9709227102485528
