,event_id,timestamp,subject_id,session_index,plane,setup,task,block,trial_index,stim_type,headpose_offset_azi,headpose_offset_ele,stim_filename,stim_level,mgb_level,fluctuation,speaker_id,speaker_proc,speaker_chan,stim_azi,stim_ele,stim_dist,resp_azi,resp_ele,resp_dist,reaction_time
0,,2024-07-08 10:16:25,sub_110,3,distance,cathedral,localisation_accuracy,1,0,pinknoise,,,pinknoise_6.wav,89.65262695303142,30,0.45601836913521543,4,RX81,5,0.0,0.0,6.0,0,0,5.668621700879766,6.999441385269165
0,,2024-07-08 10:16:32,sub_110,3,distance,cathedral,localisation_accuracy,1,1,pinknoise,,,pinknoise_0.wav,92.85674549130576,30,-0.20076644103386476,10,RX81,11,0.0,0.0,12.0,0,0,8.689149560117302,5.60890531539917
0,,2024-07-08 10:16:37,sub_110,3,distance,cathedral,localisation_accuracy,1,2,pinknoise,,,pinknoise_9.wav,84.23860242153131,30,-0.24011743182909462,0,RX81,1,0.0,0.0,2.0,0,0,2.3108504398826986,3.515326976776123
0,,2024-07-08 10:16:43,sub_110,3,distance,cathedral,localisation_accuracy,1,3,pinknoise,,,pinknoise_6.wav,90.33643504835551,30,-0.007230478327162282,5,RX81,6,0.0,0.0,7.0,0,0,7.310850439882698,4.624602317810059
0,,2024-07-08 10:16:49,sub_110,3,distance,cathedral,localisation_accuracy,1,4,pinknoise,,,pinknoise_0.wav,87.36817961446616,30,-0.29149715239534313,2,RX81,3,0.0,0.0,4.0,0,0,3.7917888563049855,5.296427249908447
0,,2024-07-08 10:16:55,sub_110,3,distance,cathedral,localisation_accuracy,1,5,pinknoise,,,pinknoise_7.wav,86.25127022230461,30,0.06945366490548477,1,RX81,2,0.0,0.0,3.0,0,0,3.6011730205278596,4.296520709991455
0,,2024-07-08 10:16:59,sub_110,3,distance,cathedral,localisation_accuracy,1,6,pinknoise,,,pinknoise_5.wav,91.68590963112656,30,-0.07215209784883292,7,RX81,8,0.0,0.0,9.0,0,0,7.105571847507331,3.280946731567383
0,,2024-07-08 10:17:05,sub_110,3,distance,cathedral,localisation_accuracy,1,7,pinknoise,,,pinknoise_8.wav,92.26932581350218,30,0.36099893554109674,8,RX81,9,0.0,0.0,10.0,0,0,8.513196480938417,4.874604225158691
0,,2024-07-08 10:17:10,sub_110,3,distance,cathedral,localisation_accuracy,1,8,pinknoise,,,pinknoise_2.wav,89.49511997382811,30,0.4969117266556289,3,RX81,4,0.0,0.0,5.0,0,0,4.2756598240469215,3.5934228897094727
0,,2024-07-08 10:17:15,sub_110,3,distance,cathedral,localisation_accuracy,1,9,pinknoise,,,pinknoise_2.wav,92.33748374366797,30,0.4694931602979897,9,RX81,10,0.0,0.0,11.0,0,0,8.894428152492669,3.8746538162231445
0,,2024-07-08 10:17:19,sub_110,3,distance,cathedral,localisation_accuracy,1,10,pinknoise,,,pinknoise_6.wav,91.65445655351263,30,0.09354994656482041,6,RX81,7,0.0,0.0,8.0,0,0,7.66275659824047,2.8122501373291016
0,,2024-07-08 10:17:23,sub_110,3,distance,cathedral,localisation_accuracy,1,11,pinknoise,,,pinknoise_7.wav,92.951076468257,30,-0.06874720072419294,10,RX81,11,0.0,0.0,12.0,0,0,9.055718475073315,2.140425682067871
0,,2024-07-08 10:17:28,sub_110,3,distance,cathedral,localisation_accuracy,1,12,pinknoise,,,pinknoise_6.wav,91.78898351119015,30,0.070239244802481,7,RX81,8,0.0,0.0,9.0,0,0,8.571847507331379,4.23400354385376
0,,2024-07-08 10:17:33,sub_110,3,distance,cathedral,localisation_accuracy,1,13,pinknoise,,,pinknoise_1.wav,86.08809768472759,30,-0.1689010591365563,1,RX81,2,0.0,0.0,3.0,0,0,3.0146627565982405,3.874654531478882
0,,2024-07-08 10:17:36,sub_110,3,distance,cathedral,localisation_accuracy,1,14,pinknoise,,,pinknoise_5.wav,87.64604650814975,30,0.10959039279115101,2,RX81,3,0.0,0.0,4.0,0,0,3.8504398826979473,1.6404612064361572
0,,2024-07-08 10:17:39,sub_110,3,distance,cathedral,localisation_accuracy,1,15,pinknoise,,,pinknoise_2.wav,91.33609555886713,30,-0.35821645992609963,6,RX81,7,0.0,0.0,8.0,0,0,6.475073313782993,2.296645164489746
0,,2024-07-08 10:17:42,sub_110,3,distance,cathedral,localisation_accuracy,1,16,pinknoise,,,pinknoise_9.wav,89.46807629171599,30,0.45777841193168145,3,RX81,4,0.0,0.0,5.0,0,0,4.9501466275659824,1.9685392379760742
0,,2024-07-08 10:17:46,sub_110,3,distance,cathedral,localisation_accuracy,1,17,pinknoise,,,pinknoise_8.wav,92.04363586810712,30,0.04007528462850862,8,RX81,9,0.0,0.0,10.0,0,0,9.173020527859238,2.2497918605804443
0,,2024-07-08 10:17:49,sub_110,3,distance,cathedral,localisation_accuracy,1,18,pinknoise,,,pinknoise_8.wav,88.96609035773884,30,-0.46056426160365327,4,RX81,5,0.0,0.0,6.0,0,0,7.134897360703812,1.890442132949829
0,,2024-07-08 10:17:54,sub_110,3,distance,cathedral,localisation_accuracy,1,19,pinknoise,,,pinknoise_2.wav,84.53138080497249,30,0.19477071458750894,0,RX81,1,0.0,0.0,2.0,0,0,2.266862170087977,3.671544075012207
0,,2024-07-08 10:17:58,sub_110,3,distance,cathedral,localisation_accuracy,1,20,pinknoise,,,pinknoise_0.wav,90.21144121143641,30,-0.18536232943343,5,RX81,6,0.0,0.0,7.0,0,0,6.6950146627565985,2.7341325283050537
0,,2024-07-08 10:18:01,sub_110,3,distance,cathedral,localisation_accuracy,1,21,pinknoise,,,pinknoise_5.wav,91.94787789429492,30,-0.08174955842535736,9,RX81,10,0.0,0.0,11.0,0,0,8.938416422287391,2.327892541885376
0,,2024-07-08 10:18:05,sub_110,3,distance,cathedral,localisation_accuracy,1,22,pinknoise,,,pinknoise_8.wav,92.0742032311942,30,0.08334165784568415,8,RX81,9,0.0,0.0,10.0,0,0,9.436950146627566,2.7497568130493164
0,,2024-07-08 10:18:10,sub_110,3,distance,cathedral,localisation_accuracy,1,23,pinknoise,,,pinknoise_0.wav,91.62884098116766,30,-0.15069933526187673,7,RX81,8,0.0,0.0,9.0,0,0,10.15542521994135,3.577822208404541
0,,2024-07-08 10:18:14,sub_110,3,distance,cathedral,localisation_accuracy,1,24,pinknoise,,,pinknoise_0.wav,92.87152711615701,30,-0.18011762078886895,10,RX81,11,0.0,0.0,12.0,0,0,10.683284457478006,3.4997026920318604
0,,2024-07-08 10:18:19,sub_110,3,distance,cathedral,localisation_accuracy,1,25,pinknoise,,,pinknoise_4.wav,92.10354325547769,30,0.13729062793589542,9,RX81,10,0.0,0.0,11.0,0,0,10.140762463343108,3.6402993202209473
0,,2024-07-08 10:18:23,sub_110,3,distance,cathedral,localisation_accuracy,1,26,pinknoise,,,pinknoise_1.wav,84.29883227057452,30,-0.15116773054542643,0,RX81,1,0.0,0.0,2.0,0,0,2.545454545454546,2.9997193813323975
0,,2024-07-08 10:18:27,sub_110,3,distance,cathedral,localisation_accuracy,1,27,pinknoise,,,pinknoise_0.wav,89.25284102983852,30,0.1481090752031372,3,RX81,4,0.0,0.0,5.0,0,0,5.419354838709678,2.296642303466797
0,,2024-07-08 10:18:30,sub_110,3,distance,cathedral,localisation_accuracy,1,28,pinknoise,,,pinknoise_0.wav,89.40862842781502,30,0.12704741234320083,4,RX81,5,0.0,0.0,6.0,0,0,7.545454545454547,1.7342042922973633
0,,2024-07-08 10:18:34,sub_110,3,distance,cathedral,localisation_accuracy,1,29,pinknoise,,,pinknoise_1.wav,91.50552365408956,30,-0.11864228904978791,6,RX81,7,0.0,0.0,8.0,0,0,9.143695014662757,2.718489646911621
0,,2024-07-08 10:18:37,sub_110,3,distance,cathedral,localisation_accuracy,1,30,pinknoise,,,pinknoise_1.wav,86.0578305978651,30,-0.21290560211709586,1,RX81,2,0.0,0.0,3.0,0,0,2.6627565982404695,2.077930450439453
0,,2024-07-08 10:18:40,sub_110,3,distance,cathedral,localisation_accuracy,1,31,pinknoise,,,pinknoise_9.wav,90.62833007772922,30,0.4129121775424124,5,RX81,6,0.0,0.0,7.0,0,0,5.903225806451613,1.5467174053192139
0,,2024-07-08 10:18:44,sub_110,3,distance,cathedral,localisation_accuracy,1,32,pinknoise,,,pinknoise_7.wav,87.71593223410315,30,0.21131645760214235,2,RX81,3,0.0,0.0,4.0,0,0,4.055718475073314,2.562269449234009
0,,2024-07-08 10:18:47,sub_110,3,distance,cathedral,localisation_accuracy,1,33,pinknoise,,,pinknoise_6.wav,92.3432577421155,30,0.4668714300175265,8,RX81,9,0.0,0.0,10.0,0,0,9.187683284457478,2.202901601791382
0,,2024-07-08 10:18:50,sub_110,3,distance,cathedral,localisation_accuracy,1,34,pinknoise,,,pinknoise_3.wav,87.79338527438254,30,0.32445911853824616,2,RX81,3,0.0,0.0,4.0,0,0,7.105571847507331,1.7831356525421143
0,,2024-07-08 10:18:54,sub_110,3,distance,cathedral,localisation_accuracy,1,35,pinknoise,,,pinknoise_5.wav,91.41114194127258,30,-0.2523375053745852,6,RX81,7,0.0,0.0,8.0,0,0,9.217008797653959,2.874727725982666
0,,2024-07-08 10:18:58,sub_110,3,distance,cathedral,localisation_accuracy,1,36,pinknoise,,,pinknoise_0.wav,84.11556599611546,30,-0.42099929044056705,0,RX81,1,0.0,0.0,2.0,0,0,2.0762463343108504,2.6091229915618896
0,,2024-07-08 10:19:01,sub_110,3,distance,cathedral,localisation_accuracy,1,37,pinknoise,,,pinknoise_0.wav,89.59521513618634,30,0.3782911704449995,4,RX81,5,0.0,0.0,6.0,0,0,6.313782991202347,2.4841978549957275
0,,2024-07-08 10:19:06,sub_110,3,distance,cathedral,localisation_accuracy,1,38,pinknoise,,,pinknoise_2.wav,88.9526343817078,30,-0.2785614813836096,3,RX81,4,0.0,0.0,5.0,0,0,7.237536656891496,3.046610116958618
0,,2024-07-08 10:19:09,sub_110,3,distance,cathedral,localisation_accuracy,1,39,pinknoise,,,pinknoise_4.wav,92.00857853479575,30,0.0034736617016775106,9,RX81,10,0.0,0.0,11.0,0,0,9.466275659824047,2.531022071838379
0,,2024-07-08 10:19:12,sub_110,3,distance,cathedral,localisation_accuracy,1,40,pinknoise,,,pinknoise_0.wav,93.14368607263484,30,0.20263529309576933,10,RX81,11,0.0,0.0,12.0,0,0,9.920821114369502,1.7810537815093994
0,,2024-07-08 10:19:16,sub_110,3,distance,cathedral,localisation_accuracy,1,41,pinknoise,,,pinknoise_9.wav,91.55712344711937,30,-0.249116517442593,7,RX81,8,0.0,0.0,9.0,0,0,9.304985337243403,2.577874183654785
0,,2024-07-08 10:19:20,sub_110,3,distance,cathedral,localisation_accuracy,1,42,pinknoise,,,pinknoise_1.wav,85.98253405146473,30,-0.32209592256510844,1,RX81,2,0.0,0.0,3.0,0,0,2.838709677419355,2.4216554164886475
0,,2024-07-08 10:19:23,sub_110,3,distance,cathedral,localisation_accuracy,1,43,pinknoise,,,pinknoise_8.wav,90.37172285385202,30,0.043251427179912816,5,RX81,6,0.0,0.0,7.0,0,0,4.642228739002933,1.8279225826263428
0,,2024-07-08 10:19:27,sub_110,3,distance,cathedral,localisation_accuracy,1,44,pinknoise,,,pinknoise_7.wav,87.62098154337414,30,0.07318920114377758,2,RX81,3,0.0,0.0,4.0,0,0,4.9208211143695015,3.0466103553771973
0,,2024-07-08 10:19:30,sub_110,3,distance,cathedral,localisation_accuracy,1,45,pinknoise,,,pinknoise_2.wav,90.03972940504516,30,-0.42834942268117493,5,RX81,6,0.0,0.0,7.0,0,0,7.193548387096774,2.1091558933258057
0,,2024-07-08 10:19:33,sub_110,3,distance,cathedral,localisation_accuracy,1,46,pinknoise,,,pinknoise_7.wav,92.0385184214947,30,0.4177707666116375,7,RX81,8,0.0,0.0,9.0,0,0,8.175953079178885,2.0466744899749756
0,,2024-07-08 10:19:36,sub_110,3,distance,cathedral,localisation_accuracy,1,47,pinknoise,,,pinknoise_4.wav,89.07540451975285,30,-0.31648915056727056,4,RX81,5,0.0,0.0,6.0,0,0,6.343108504398828,1.8435711860656738
0,,2024-07-08 10:19:40,sub_110,3,distance,cathedral,localisation_accuracy,1,48,pinknoise,,,pinknoise_4.wav,89.0393298022054,30,-0.15596899347287851,3,RX81,4,0.0,0.0,5.0,0,0,5.346041055718476,2.327890396118164
0,,2024-07-08 10:19:42,sub_110,3,distance,cathedral,localisation_accuracy,1,49,pinknoise,,,pinknoise_6.wav,91.49216125467439,30,-0.1376070767879739,6,RX81,7,0.0,0.0,8.0,0,0,6.269794721407624,1.3592772483825684
0,,2024-07-08 10:19:46,sub_110,3,distance,cathedral,localisation_accuracy,1,50,pinknoise,,,pinknoise_9.wav,84.44438504825527,30,0.06488919625286782,0,RX81,1,0.0,0.0,2.0,0,0,2.6627565982404695,2.0466816425323486
0,,2024-07-08 10:19:49,sub_110,3,distance,cathedral,localisation_accuracy,1,51,pinknoise,,,pinknoise_6.wav,92.75548828171152,30,-0.34183123034899876,10,RX81,11,0.0,0.0,12.0,0,0,5.859237536656892,2.0779292583465576
0,,2024-07-08 10:19:52,sub_110,3,distance,cathedral,localisation_accuracy,1,52,pinknoise,,,pinknoise_8.wav,92.07360174479491,30,0.0824896871235582,8,RX81,9,0.0,0.0,10.0,0,0,8.659824046920821,1.765430212020874
0,,2024-07-08 10:19:55,sub_110,3,distance,cathedral,localisation_accuracy,1,53,pinknoise,,,pinknoise_3.wav,86.15983600138499,30,-0.06434274225256342,1,RX81,2,0.0,0.0,3.0,0,0,3.8944281524926687,2.2966418266296387
0,,2024-07-08 10:19:58,sub_110,3,distance,cathedral,localisation_accuracy,1,54,pinknoise,,,pinknoise_0.wav,92.09177356803762,30,0.12067334438945565,9,RX81,10,0.0,0.0,11.0,0,0,8.483870967741936,1.8123235702514648
0,,2024-07-08 10:21:28,sub_110,3,distance,cathedral,localisation_accuracy,2,0,pinknoise,,,pinknoise_9.wav,91.68675866193801,30,-0.4604834594824435,8,RX81,9,0.0,0.0,10.0,0,0,5.961876832844575,2.3122689723968506
0,,2024-07-08 10:21:32,sub_110,3,distance,cathedral,localisation_accuracy,2,1,pinknoise,,,pinknoise_5.wav,90.29386996680677,30,-0.0680102283482843,5,RX81,6,0.0,0.0,7.0,0,0,6.636363636363637,2.2653942108154297
0,,2024-07-08 10:21:34,sub_110,3,distance,cathedral,localisation_accuracy,2,2,pinknoise,,,pinknoise_5.wav,91.8977196692251,30,0.22118712080091196,7,RX81,8,0.0,0.0,9.0,0,0,8.87976539589443,1.4842021465301514
0,,2024-07-08 10:21:37,sub_110,3,distance,cathedral,localisation_accuracy,2,3,pinknoise,,,pinknoise_9.wav,92.75000518864556,30,-0.3494508221240126,10,RX81,11,0.0,0.0,12.0,0,0,10.111436950146627,1.4685778617858887
0,,2024-07-08 10:21:41,sub_110,3,distance,cathedral,localisation_accuracy,2,4,pinknoise,,,pinknoise_0.wav,89.00695732816212,30,-0.4067839818415069,4,RX81,5,0.0,0.0,6.0,0,0,7.0469208211143695,2.3435332775115967
0,,2024-07-08 10:21:44,sub_110,3,distance,cathedral,localisation_accuracy,2,5,pinknoise,,,pinknoise_3.wav,85.97509239122272,30,-0.3328655928739207,1,RX81,2,0.0,0.0,3.0,0,0,2.9120234604105573,1.7966783046722412
0,,2024-07-08 10:21:46,sub_110,3,distance,cathedral,localisation_accuracy,2,6,pinknoise,,,pinknoise_6.wav,91.60242865555159,30,0.019252463481758464,6,RX81,7,0.0,0.0,8.0,0,0,6.75366568914956,1.437330961227417
0,,2024-07-08 10:21:49,sub_110,3,distance,cathedral,localisation_accuracy,2,7,pinknoise,,,pinknoise_4.wav,84.3654152259853,30,-0.0525260836815199,0,RX81,1,0.0,0.0,2.0,0,0,1.9589442815249267,1.5935883522033691
0,,2024-07-08 10:21:53,sub_110,3,distance,cathedral,localisation_accuracy,2,8,pinknoise,,,pinknoise_7.wav,92.15094151867986,30,0.20430372489848836,9,RX81,10,0.0,0.0,11.0,0,0,8.351906158357773,2.437278985977173
0,,2024-07-08 10:21:56,sub_110,3,distance,cathedral,localisation_accuracy,2,9,pinknoise,,,pinknoise_3.wav,89.11362780022975,30,-0.05050491273643842,3,RX81,4,0.0,0.0,5.0,0,0,5.785923753665689,1.937314748764038
0,,2024-07-08 10:21:59,sub_110,3,distance,cathedral,localisation_accuracy,2,10,pinknoise,,,pinknoise_6.wav,87.68673409533375,30,0.16877374603672401,2,RX81,3,0.0,0.0,4.0,0,0,4.524926686217009,1.9529383182525635
0,,2024-07-08 10:22:02,sub_110,3,distance,cathedral,localisation_accuracy,2,11,pinknoise,,,pinknoise_6.wav,91.9427565467899,30,-0.10227262364624501,8,RX81,9,0.0,0.0,10.0,0,0,8.615835777126101,2.1091768741607666
0,,2024-07-08 10:22:05,sub_110,3,distance,cathedral,localisation_accuracy,2,12,pinknoise,,,pinknoise_7.wav,91.2938072228789,30,-0.41771273467678427,6,RX81,7,0.0,0.0,8.0,0,0,9.583577712609971,2.0154123306274414
0,,2024-07-08 10:22:09,sub_110,3,distance,cathedral,localisation_accuracy,2,13,pinknoise,,,pinknoise_8.wav,87.62983865997087,30,0.08604712895690458,2,RX81,3,0.0,0.0,4.0,0,0,3.351906158357772,2.156050682067871
0,,2024-07-08 10:22:11,sub_110,3,distance,cathedral,localisation_accuracy,2,14,pinknoise,,,pinknoise_2.wav,89.2366692224586,30,-0.10265969159319599,4,RX81,5,0.0,0.0,6.0,0,0,6.167155425219942,1.5935890674591064
0,,2024-07-08 10:22:14,sub_110,3,distance,cathedral,localisation_accuracy,2,15,pinknoise,,,pinknoise_1.wav,84.08650716478434,30,-0.4635593560258622,0,RX81,1,0.0,0.0,2.0,0,0,2.4721407624633436,1.6404602527618408
0,,2024-07-08 10:22:17,sub_110,3,distance,cathedral,localisation_accuracy,2,16,pinknoise,,,pinknoise_6.wav,89.39147451514435,30,0.347204854614383,3,RX81,4,0.0,0.0,5.0,0,0,4.392961876832845,2.1091582775115967
0,,2024-07-08 10:22:20,sub_110,3,distance,cathedral,localisation_accuracy,2,17,pinknoise,,,pinknoise_3.wav,93.33696373649914,30,0.4774324969087894,10,RX81,11,0.0,0.0,12.0,0,0,5.844574780058651,1.4529550075531006
0,,2024-07-08 10:22:23,sub_110,3,distance,cathedral,localisation_accuracy,2,18,pinknoise,,,pinknoise_2.wav,86.2323338963032,30,0.04169498063833377,1,RX81,2,0.0,0.0,3.0,0,0,3.131964809384164,1.7811357975006104
0,,2024-07-08 10:22:26,sub_110,3,distance,cathedral,localisation_accuracy,2,19,pinknoise,,,pinknoise_3.wav,90.61420413457847,30,0.39244497101516207,5,RX81,6,0.0,0.0,7.0,0,0,7.164222873900293,1.5467171669006348
0,,2024-07-08 10:22:29,sub_110,3,distance,cathedral,localisation_accuracy,2,20,pinknoise,,,pinknoise_6.wav,91.48207134011616,30,-0.3517622380912053,7,RX81,8,0.0,0.0,9.0,0,0,8.395894428152493,1.671708583831787
0,,2024-07-08 10:22:31,sub_110,3,distance,cathedral,localisation_accuracy,2,21,pinknoise,,,pinknoise_4.wav,92.267868145063,30,0.3702560179017117,9,RX81,10,0.0,0.0,11.0,0,0,9.759530791788857,1.4998283386230469
0,,2024-07-08 10:22:34,sub_110,3,distance,cathedral,localisation_accuracy,2,22,pinknoise,,,pinknoise_3.wav,90.33479017545704,30,-0.009581524613024084,5,RX81,6,0.0,0.0,7.0,0,0,7.838709677419356,1.406080961227417
0,,2024-07-08 10:22:37,sub_110,3,distance,cathedral,localisation_accuracy,2,23,pinknoise,,,pinknoise_4.wav,91.32134983727823,30,-0.37897607524978094,6,RX81,7,0.0,0.0,8.0,0,0,9.422287390029327,1.609191656112671
0,,2024-07-08 10:22:39,sub_110,3,distance,cathedral,localisation_accuracy,2,24,pinknoise,,,pinknoise_3.wav,87.27813925164557,30,-0.4203164811111012,2,RX81,3,0.0,0.0,4.0,0,0,7.281524926686217,1.4373509883880615
0,,2024-07-08 10:22:42,sub_110,3,distance,cathedral,localisation_accuracy,2,25,pinknoise,,,pinknoise_6.wav,91.85141127775327,30,0.15680925137500346,7,RX81,8,0.0,0.0,9.0,0,0,9.583577712609971,1.7810547351837158
0,,2024-07-08 10:22:46,sub_110,3,distance,cathedral,localisation_accuracy,2,26,pinknoise,,,pinknoise_3.wav,89.06956210802312,30,-0.11309990715981255,3,RX81,4,0.0,0.0,5.0,0,0,6.460410557184751,2.4528815746307373
0,,2024-07-08 10:22:49,sub_110,3,distance,cathedral,localisation_accuracy,2,27,pinknoise,,,pinknoise_0.wav,93.23248845950025,30,0.3285832079708929,10,RX81,11,0.0,0.0,12.0,0,0,9.759530791788857,1.999790906906128
0,,2024-07-08 10:22:52,sub_110,3,distance,cathedral,localisation_accuracy,2,28,pinknoise,,,pinknoise_4.wav,91.94510691212928,30,-0.08563421276995253,9,RX81,10,0.0,0.0,11.0,0,0,10.390029325513197,1.890442132949829
0,,2024-07-08 10:22:55,sub_110,3,distance,cathedral,localisation_accuracy,2,29,pinknoise,,,pinknoise_0.wav,89.44355988528541,30,0.17392489826708113,4,RX81,5,0.0,0.0,6.0,0,0,8.571847507331379,1.7342050075531006
0,,2024-07-08 10:22:58,sub_110,3,distance,cathedral,localisation_accuracy,2,30,pinknoise,,,pinknoise_8.wav,91.91977059780235,30,-0.13461296166448045,8,RX81,9,0.0,0.0,10.0,0,0,10.448680351906159,2.2966437339782715
0,,2024-07-08 10:23:02,sub_110,3,distance,cathedral,localisation_accuracy,2,31,pinknoise,,,pinknoise_4.wav,84.23134176254712,30,-0.2508223267802213,0,RX81,1,0.0,0.0,2.0,0,0,2.35483870967742,2.8434805870056152
0,,2024-07-08 10:23:05,sub_110,3,distance,cathedral,localisation_accuracy,2,32,pinknoise,,,pinknoise_0.wav,85.91759822170911,30,-0.4159402939653961,1,RX81,2,0.0,0.0,3.0,0,0,3.454545454545455,1.359231948852539
0,,2024-07-08 10:23:08,sub_110,3,distance,cathedral,localisation_accuracy,2,33,pinknoise,,,pinknoise_5.wav,89.1595237565727,30,-0.20514247856423895,4,RX81,5,0.0,0.0,6.0,0,0,6.10850439882698,1.624816656112671
0,,2024-07-08 10:23:12,sub_110,3,distance,cathedral,localisation_accuracy,2,34,pinknoise,,,pinknoise_8.wav,93.08713115278009,30,0.12269653263538194,10,RX81,11,0.0,0.0,12.0,0,0,8.410557184750735,3.0622339248657227
0,,2024-07-08 10:23:16,sub_110,3,distance,cathedral,localisation_accuracy,2,35,pinknoise,,,pinknoise_5.wav,84.18611792348173,30,-0.3174123488394044,0,RX81,1,0.0,0.0,2.0,0,0,2.296187683284458,2.421719789505005
0,,2024-07-08 10:23:20,sub_110,3,distance,cathedral,localisation_accuracy,2,36,pinknoise,,,pinknoise_5.wav,91.62922753658131,30,-0.1501679883598639,7,RX81,8,0.0,0.0,9.0,0,0,8.439882697947215,3.4215643405914307
0,,2024-07-08 10:23:23,sub_110,3,distance,cathedral,localisation_accuracy,2,37,pinknoise,,,pinknoise_4.wav,86.51796061738465,30,0.46312937331880555,1,RX81,2,0.0,0.0,3.0,0,0,5.4046920821114375,1.6404612064361572
0,,2024-07-08 10:23:26,sub_110,3,distance,cathedral,localisation_accuracy,2,38,pinknoise,,,pinknoise_1.wav,92.34729318717612,30,0.4726609091361059,8,RX81,9,0.0,0.0,10.0,0,0,8.967741935483872,1.9529187679290771
0,,2024-07-08 10:23:29,sub_110,3,distance,cathedral,localisation_accuracy,2,39,pinknoise,,,pinknoise_2.wav,92.05569490031183,30,0.06979198008962817,9,RX81,10,0.0,0.0,11.0,0,0,9.715542521994136,1.5467171669006348
0,,2024-07-08 10:23:33,sub_110,3,distance,cathedral,localisation_accuracy,2,40,pinknoise,,,pinknoise_8.wav,90.62070288621709,30,0.4018593596004354,5,RX81,6,0.0,0.0,7.0,0,0,9.935483870967742,2.780982732772827
0,,2024-07-08 10:23:35,sub_110,3,distance,cathedral,localisation_accuracy,2,41,pinknoise,,,pinknoise_4.wav,88.83565855783172,30,-0.443174514823401,3,RX81,4,0.0,0.0,5.0,0,0,7.692082111436951,1.4998459815979004
0,,2024-07-08 10:23:38,sub_110,3,distance,cathedral,localisation_accuracy,2,42,pinknoise,,,pinknoise_1.wav,91.82435180808751,30,0.3374487841167415,6,RX81,7,0.0,0.0,8.0,0,0,8.806451612903226,1.265491247177124
0,,2024-07-08 10:23:42,sub_110,3,distance,cathedral,localisation_accuracy,2,43,pinknoise,,,pinknoise_7.wav,87.34551463552498,30,-0.3239763198334571,2,RX81,3,0.0,0.0,4.0,0,0,6.225806451612904,2.6560134887695312
0,,2024-07-08 10:23:45,sub_110,3,distance,cathedral,localisation_accuracy,2,44,pinknoise,,,pinknoise_4.wav,92.14966814444111,30,0.20250144356435384,9,RX81,10,0.0,0.0,11.0,0,0,9.598240469208212,2.2966432571411133
0,,2024-07-08 10:23:48,sub_110,3,distance,cathedral,localisation_accuracy,2,45,pinknoise,,,pinknoise_3.wav,91.48403693689046,30,-0.14913175361094566,6,RX81,7,0.0,0.0,8.0,0,0,8.733137829912025,2.1091771125793457
0,,2024-07-08 10:23:51,sub_110,3,distance,cathedral,localisation_accuracy,2,46,pinknoise,,,pinknoise_5.wav,91.84133138511814,30,0.14281438128964186,7,RX81,8,0.0,0.0,9.0,0,0,10.815249266862171,1.765430212020874
0,,2024-07-08 10:23:54,sub_110,3,distance,cathedral,localisation_accuracy,2,47,pinknoise,,,pinknoise_8.wav,93.19143866709753,30,0.27029737785240104,10,RX81,11,0.0,0.0,12.0,0,0,10.991202346041057,1.734203815460205
0,,2024-07-08 10:23:58,sub_110,3,distance,cathedral,localisation_accuracy,2,48,pinknoise,,,pinknoise_4.wav,84.31326817331224,30,-0.12980878003263285,0,RX81,1,0.0,0.0,2.0,0,0,2.090909090909091,2.671670436859131
0,,2024-07-08 10:24:01,sub_110,3,distance,cathedral,localisation_accuracy,2,49,pinknoise,,,pinknoise_5.wav,89.62019717556231,30,0.41208878742876476,4,RX81,5,0.0,0.0,6.0,0,0,4.524926686217009,2.1091561317443848
0,,2024-07-08 10:24:04,sub_110,3,distance,cathedral,localisation_accuracy,2,50,pinknoise,,,pinknoise_9.wav,86.205520282942,30,0.002432839382158103,1,RX81,2,0.0,0.0,3.0,0,0,3.5425219941348978,1.2342393398284912
0,,2024-07-08 10:24:07,sub_110,3,distance,cathedral,localisation_accuracy,2,51,pinknoise,,,pinknoise_0.wav,87.6511814323966,30,0.11705314484350393,2,RX81,3,0.0,0.0,4.0,0,0,3.967741935483871,1.843550205230713
0,,2024-07-08 10:24:10,sub_110,3,distance,cathedral,localisation_accuracy,2,52,pinknoise,,,pinknoise_4.wav,90.22887966603935,30,-0.1605739980153279,5,RX81,6,0.0,0.0,7.0,0,0,5.624633431085044,1.8435499668121338
0,,2024-07-08 10:24:13,sub_110,3,distance,cathedral,localisation_accuracy,2,53,pinknoise,,,pinknoise_6.wav,92.19745360551985,30,0.2584287027825689,8,RX81,9,0.0,0.0,10.0,0,0,7.281524926686217,1.7810757160186768
0,,2024-07-08 10:24:16,sub_110,3,distance,cathedral,localisation_accuracy,2,54,pinknoise,,,pinknoise_6.wav,89.18880751608499,30,0.05659010279884724,3,RX81,4,0.0,0.0,5.0,0,0,6.0205278592375375,1.8123042583465576
0,,2024-07-08 10:26:53,sub_110,3,distance,cathedral,localisation_accuracy,3,0,babble,,,babble-reversed_n13_p307-four-p318-three-p256-eight-p284-two-p245-nine-p248-five.wav,92.25261624050624,30,0.3371213995265818,8,RX81,9,0.0,0.0,10.0,0,0,6.225806451612904,3.577821969985962
0,,2024-07-08 10:26:57,sub_110,3,distance,cathedral,localisation_accuracy,3,1,babble,,,babble-reversed_n13_p256-eight-p318-two-p307-five-p245-four-p268-nine-p284-one.wav,87.58829796871606,30,0.02578979862863673,2,RX81,3,0.0,0.0,4.0,0,0,3.234604105571848,2.2497928142547607
0,,2024-07-08 10:27:00,sub_110,3,distance,cathedral,localisation_accuracy,3,2,babble,,,babble-reversed_n13_p229-nine-p256-four-p318-three-p268-eight-p248-two-p284-five.wav,89.31616282021862,30,0.0033112087606782525,4,RX81,5,0.0,0.0,6.0,0,0,4.979472140762463,1.7966785430908203
0,,2024-07-08 10:27:02,sub_110,3,distance,cathedral,localisation_accuracy,3,3,babble,,,babble-reversed_n13_p256-eight-p229-three-p307-nine-p245-five-p248-four-p268-two.wav,93.30576705679286,30,0.43290924406916875,10,RX81,11,0.0,0.0,12.0,0,0,7.765395894428153,1.8435497283935547
0,,2024-07-08 10:27:05,sub_110,3,distance,cathedral,localisation_accuracy,3,4,babble,,,babble-reversed_n13_p256-eight-p229-three-p307-nine-p245-five-p248-four-p268-two.wav,92.2591773402031,30,0.3578899771501154,9,RX81,10,0.0,0.0,11.0,0,0,8.439882697947215,1.2811107635498047
0,,2024-07-08 10:27:08,sub_110,3,distance,cathedral,localisation_accuracy,3,5,babble,,,babble-reversed_n13_p307-two-p256-four-p318-three-p284-eight-p248-five-p245-nine.wav,91.91869772809693,30,0.2503960055999034,7,RX81,8,0.0,0.0,9.0,0,0,7.35483870967742,1.9216690063476562
0,,2024-07-08 10:27:12,sub_110,3,distance,cathedral,localisation_accuracy,3,6,babble,,,babble-reversed_n13_p307-four-p318-three-p256-eight-p284-two-p245-nine-p248-five.wav,86.27564280697845,30,0.10521909347202218,1,RX81,2,0.0,0.0,3.0,0,0,2.67741935483871,2.4529035091400146
0,,2024-07-08 10:27:16,sub_110,3,distance,cathedral,localisation_accuracy,3,7,babble,,,babble-reversed_n13_p229-nine-p256-four-p318-three-p268-eight-p248-two-p284-five.wav,91.69187497326419,30,0.14709828910799794,6,RX81,7,0.0,0.0,8.0,0,0,7.941348973607038,3.5465550422668457
0,,2024-07-08 10:27:20,sub_110,3,distance,cathedral,localisation_accuracy,3,8,babble,,,babble-reversed_n13_p307-two-p229-one-p256-five-p248-nine-p284-three-p268-eight.wav,84.38475887852246,30,-0.023807692381081602,0,RX81,1,0.0,0.0,2.0,0,0,1.6510263929618771,3.1247100830078125
0,,2024-07-08 10:27:25,sub_110,3,distance,cathedral,localisation_accuracy,3,9,babble,,,babble-reversed_n13_p229-nine-p318-one-p307-two-p248-eight-p245-five-p284-four.wav,90.17019998168708,30,-0.24390381078010315,5,RX81,6,0.0,0.0,7.0,0,0,6.724340175953079,2.9997146129608154
0,,2024-07-08 10:27:28,sub_110,3,distance,cathedral,localisation_accuracy,3,10,babble,,,babble-reversed_n13_p229-three-p256-nine-p318-five-p248-one-p245-eight-p284-two.wav,89.00299505362648,30,-0.20740992516028145,3,RX81,4,0.0,0.0,5.0,0,0,4.935483870967742,2.077932834625244
0,,2024-07-08 10:27:32,sub_110,3,distance,cathedral,localisation_accuracy,3,11,babble,,,babble-reversed_n13_p256-eight-p229-three-p307-nine-p245-five-p248-four-p268-two.wav,91.30603815258308,30,-0.4005170894159201,6,RX81,7,0.0,0.0,8.0,0,0,7.266862170087977,2.640371084213257
0,,2024-07-08 10:27:34,sub_110,3,distance,cathedral,localisation_accuracy,3,12,babble,,,babble-reversed_n13_p318-nine-p307-eight-p229-two-p284-one-p248-three-p245-five.wav,92.25424510307022,30,0.35087419658373564,9,RX81,10,0.0,0.0,11.0,0,0,8.483870967741936,1.7967119216918945
0,,2024-07-08 10:27:37,sub_110,3,distance,cathedral,localisation_accuracy,3,13,babble,,,babble-reversed_n13_p318-one-p307-two-p256-eight-p284-three-p248-five-p245-four.wav,89.55789314239689,30,0.3278690763341492,4,RX81,5,0.0,0.0,6.0,0,0,5.785923753665689,1.8279471397399902
0,,2024-07-08 10:27:41,sub_110,3,distance,cathedral,localisation_accuracy,3,14,babble,,,babble-reversed_n13_p318-five-p229-four-p256-eight-p284-one-p245-three-p248-two.wav,84.07539658783324,30,-0.4798159105800497,0,RX81,1,0.0,0.0,2.0,0,0,1.7390029325513199,2.0623059272766113
0,,2024-07-08 10:27:43,sub_110,3,distance,cathedral,localisation_accuracy,3,15,babble,,,babble-reversed_n13_p229-nine-p256-four-p318-three-p268-eight-p248-two-p284-five.wav,90.26670838555738,30,-0.10673054215531019,5,RX81,6,0.0,0.0,7.0,0,0,5.331378299120235,1.765451192855835
0,,2024-07-08 10:27:46,sub_110,3,distance,cathedral,localisation_accuracy,3,16,babble,,,babble-reversed_n13_p229-five-p256-one-p318-three-p248-nine-p268-four-p284-eight.wav,93.32629085888927,30,0.46219306229868196,10,RX81,11,0.0,0.0,12.0,0,0,8.058651026392962,1.6404392719268799
0,,2024-07-08 10:27:49,sub_110,3,distance,cathedral,localisation_accuracy,3,17,babble,,,babble-reversed_n13_p256-three-p318-two-p229-nine-p248-four-p284-one-p268-eight.wav,89.30927807473412,30,0.2290019145101022,3,RX81,4,0.0,0.0,5.0,0,0,5.49266862170088,1.6091923713684082
0,,2024-07-08 10:27:52,sub_110,3,distance,cathedral,localisation_accuracy,3,18,babble,,,babble-reversed_n13_p229-five-p318-two-p307-eight-p268-three-p248-four-p245-one.wav,86.24033917493537,30,0.05342675835894217,1,RX81,2,0.0,0.0,3.0,0,0,2.516129032258065,1.6404669284820557
0,,2024-07-08 10:27:55,sub_110,3,distance,cathedral,localisation_accuracy,3,19,babble,,,babble-reversed_n13_p318-five-p256-nine-p307-two-p245-eight-p248-one-p284-four.wav,91.71716187283735,30,-0.02905008251988961,7,RX81,8,0.0,0.0,9.0,0,0,5.7272727272727275,2.109156608581543
0,,2024-07-08 10:27:58,sub_110,3,distance,cathedral,localisation_accuracy,3,20,babble,,,babble-reversed_n13_p307-five-p229-three-p318-nine-p245-four-p268-eight-p284-two.wav,91.79576776052366,30,-0.3084776866407474,8,RX81,9,0.0,0.0,10.0,0,0,7.706744868035191,1.9060454368591309
0,,2024-07-08 10:28:01,sub_110,3,distance,cathedral,localisation_accuracy,3,21,babble,,,babble-reversed_n13_p307-two-p229-one-p256-five-p248-nine-p284-three-p268-eight.wav,87.62770923707748,30,0.08295533144586154,2,RX81,3,0.0,0.0,4.0,0,0,3.1466275659824046,1.8591945171356201
0,,2024-07-08 10:28:04,sub_110,3,distance,cathedral,localisation_accuracy,3,22,babble,,,babble-reversed_n13_p229-two-p307-five-p318-four-p284-one-p248-nine-p268-eight.wav,92.18527949992502,30,0.2529448601144615,9,RX81,10,0.0,0.0,11.0,0,0,8.865102639296188,1.9372951984405518
0,,2024-07-08 10:28:08,sub_110,3,distance,cathedral,localisation_accuracy,3,23,babble,,,babble-reversed_n13_p229-eight-p256-nine-p318-four-p245-three-p268-five-p284-two.wav,84.14571504922023,30,-0.37677764542735315,0,RX81,1,0.0,0.0,2.0,0,0,1.6363636363636367,2.546645402908325
0,,2024-07-08 10:28:10,sub_110,3,distance,cathedral,localisation_accuracy,3,24,babble,,,babble-reversed_n13_p318-three-p229-one-p256-eight-p245-five-p248-four-p284-nine.wav,91.5214455874102,30,-0.0960291179466114,6,RX81,7,0.0,0.0,8.0,0,0,5.785923753665689,1.5310938358306885
0,,2024-07-08 10:28:14,sub_110,3,distance,cathedral,localisation_accuracy,3,25,babble,,,babble-reversed_n13_p307-nine-p318-two-p256-one-p245-three-p268-four-p248-eight.wav,89.68367222171022,30,0.49813193478125595,4,RX81,5,0.0,0.0,6.0,0,0,4.422287390029326,2.1247763633728027
0,,2024-07-08 10:28:17,sub_110,3,distance,cathedral,localisation_accuracy,3,26,babble,,,babble-reversed_n13_p229-five-p256-three-p318-nine-p248-two-p284-four-p268-one.wav,90.30180910658586,30,-0.0566830827072099,5,RX81,6,0.0,0.0,7.0,0,0,6.944281524926687,1.906066656112671
0,,2024-07-08 10:28:20,sub_110,3,distance,cathedral,localisation_accuracy,3,27,babble,,,babble-reversed_n13_p307-five-p229-three-p318-nine-p245-four-p268-eight-p284-two.wav,89.44389122206351,30,0.4228241624079946,3,RX81,4,0.0,0.0,5.0,0,0,3.5278592375366573,2.234149217605591
0,,2024-07-08 10:28:23,sub_110,3,distance,cathedral,localisation_accuracy,3,28,babble,,,babble-reversed_n13_p256-nine-p307-four-p229-one-p284-three-p248-two-p245-five.wav,91.952024887828,30,-0.08922252238650419,8,RX81,9,0.0,0.0,10.0,0,0,8.337243401759531,1.9216902256011963
0,,2024-07-08 10:28:26,sub_110,3,distance,cathedral,localisation_accuracy,3,29,babble,,,babble-reversed_n13_p256-three-p318-one-p307-two-p284-nine-p268-four-p245-eight.wav,86.09471413109985,30,-0.15927292171122676,1,RX81,2,0.0,0.0,3.0,0,0,2.3401759530791795,1.8435471057891846
0,,2024-07-08 10:28:29,sub_110,3,distance,cathedral,localisation_accuracy,3,30,babble,,,babble-reversed_n13_p256-three-p318-one-p307-two-p284-nine-p268-four-p245-eight.wav,87.63398489142011,30,0.0920681262937274,2,RX81,3,0.0,0.0,4.0,0,0,4.129032258064517,1.8591728210449219
0,,2024-07-08 10:28:33,sub_110,3,distance,cathedral,localisation_accuracy,3,31,babble,,,babble-reversed_n13_p256-eight-p318-two-p307-five-p245-four-p268-nine-p284-one.wav,92.8215071331667,30,-0.2499341278097098,10,RX81,11,0.0,0.0,12.0,0,0,9.348973607038124,2.4685263633728027
0,,2024-07-08 10:28:35,sub_110,3,distance,cathedral,localisation_accuracy,3,32,babble,,,babble-reversed_n13_p256-eight-p318-two-p307-five-p245-four-p268-nine-p284-one.wav,92.08167359632505,30,0.47827980288722816,7,RX81,8,0.0,0.0,9.0,0,0,9.935483870967742,1.6873419284820557
0,,2024-07-08 10:28:38,sub_110,3,distance,cathedral,localisation_accuracy,3,33,babble,,,babble-reversed_n13_p229-nine-p318-one-p307-two-p248-eight-p245-five-p284-four.wav,90.05385128640022,30,-0.4084406924864855,5,RX81,6,0.0,0.0,7.0,0,0,7.266862170087977,1.7342045307159424
0,,2024-07-08 10:28:42,sub_110,3,distance,cathedral,localisation_accuracy,3,34,babble,,,babble-reversed_n13_p318-five-p229-four-p256-eight-p284-one-p245-three-p248-two.wav,92.27993980245967,30,0.3761758031524579,8,RX81,9,0.0,0.0,10.0,0,0,6.870967741935484,2.4529027938842773
0,,2024-07-08 10:28:45,sub_110,3,distance,cathedral,localisation_accuracy,3,35,babble,,,babble-reversed_n13_p256-eight-p318-two-p307-five-p245-four-p268-nine-p284-one.wav,91.87189719399483,30,0.4060574725325944,6,RX81,7,0.0,0.0,8.0,0,0,6.225806451612904,1.578028917312622
0,,2024-07-08 10:28:47,sub_110,3,distance,cathedral,localisation_accuracy,3,36,babble,,,babble-reversed_n13_p256-three-p318-two-p229-nine-p248-four-p284-one-p268-eight.wav,89.18818082532619,30,0.05569578828513988,3,RX81,4,0.0,0.0,5.0,0,0,5.521994134897361,1.3123376369476318
0,,2024-07-08 10:28:50,sub_110,3,distance,cathedral,localisation_accuracy,3,37,babble,,,babble-reversed_n13_p318-five-p229-three-p256-four-p268-eight-p248-one-p245-nine.wav,91.62574013675413,30,-0.1549613161366774,7,RX81,8,0.0,0.0,9.0,0,0,7.281524926686217,1.6747376918792725
0,,2024-07-08 10:28:52,sub_110,3,distance,cathedral,localisation_accuracy,3,38,babble,,,babble-reversed_n13_p256-five-p307-nine-p318-three-p284-eight-p268-one-p248-two.wav,93.06253950419975,30,0.08800297617692321,10,RX81,11,0.0,0.0,12.0,0,0,8.439882697947215,1.4217276573181152
0,,2024-07-08 10:28:55,sub_110,3,distance,cathedral,localisation_accuracy,3,39,babble,,,babble-reversed_n13_p256-four-p229-two-p318-five-p268-one-p248-eight-p245-three.wav,87.4399408674646,30,-0.18842784392083567,2,RX81,3,0.0,0.0,4.0,0,0,3.3812316715542527,1.7966997623443604
0,,2024-07-08 10:28:58,sub_110,3,distance,cathedral,localisation_accuracy,3,40,babble,,,babble-reversed_n13_p229-five-p318-two-p307-eight-p268-three-p248-four-p245-one.wav,89.26719740608922,30,-0.06200768508516952,4,RX81,5,0.0,0.0,6.0,0,0,4.510263929618769,1.734203815460205
0,,2024-07-08 10:29:01,sub_110,3,distance,cathedral,localisation_accuracy,3,41,babble,,,babble-reversed_n13_p318-nine-p256-five-p307-eight-p268-three-p248-one-p245-four.wav,91.65498615300825,30,-0.48957752031174706,9,RX81,10,0.0,0.0,11.0,0,0,6.958944281524927,1.7185602188110352
0,,2024-07-08 10:29:04,sub_110,3,distance,cathedral,localisation_accuracy,3,42,babble,,,babble-reversed_n13_p229-eight-p256-nine-p318-four-p245-three-p268-five-p284-two.wav,86.43748026917052,30,0.34378816324088435,1,RX81,2,0.0,0.0,3.0,0,0,2.545454545454546,2.0310378074645996
0,,2024-07-08 10:29:08,sub_110,3,distance,cathedral,localisation_accuracy,3,43,babble,,,babble-reversed_n13_p229-nine-p307-five-p256-two-p248-three-p245-one-p268-eight.wav,84.28738469870808,30,-0.1680943735308552,0,RX81,1,0.0,0.0,2.0,0,0,1.0498533724340176,2.874727487564087
0,,2024-07-08 10:29:12,sub_110,3,distance,cathedral,localisation_accuracy,3,44,babble,,,babble-reversed_n13_p229-two-p318-eight-p256-three-p268-one-p248-nine-p284-five.wav,92.343563211437,30,0.4673096352065922,8,RX81,9,0.0,0.0,10.0,0,0,5.2434017595307925,3.0466105937957764
0,,2024-07-08 10:29:16,sub_110,3,distance,cathedral,localisation_accuracy,3,45,babble,,,babble-reversed_n13_p318-nine-p256-five-p307-eight-p268-three-p248-one-p245-four.wav,89.39819978512374,30,0.11306645397819659,4,RX81,5,0.0,0.0,6.0,0,0,4.290322580645162,2.6091408729553223
0,,2024-07-08 10:29:19,sub_110,3,distance,cathedral,localisation_accuracy,3,46,babble,,,babble-reversed_n13_p307-two-p256-four-p318-three-p284-eight-p248-five-p245-nine.wav,87.56089715729625,30,-0.013890692999307563,2,RX81,3,0.0,0.0,4.0,0,0,2.9120234604105573,1.5935890674591064
0,,2024-07-08 10:29:22,sub_110,3,distance,cathedral,localisation_accuracy,3,47,babble,,,babble-reversed_n13_p229-nine-p318-one-p307-two-p248-eight-p245-five-p284-four.wav,84.17792623008341,30,-0.3294582858528089,0,RX81,1,0.0,0.0,2.0,0,0,1.6950146627565985,2.2341670989990234
0,,2024-07-08 10:29:25,sub_110,3,distance,cathedral,localisation_accuracy,3,48,babble,,,babble-reversed_n13_p256-nine-p307-four-p229-one-p284-three-p248-two-p245-five.wav,86.13848677487026,30,-0.0954974018497653,1,RX81,2,0.0,0.0,3.0,0,0,1.7829912023460412,1.7654330730438232
0,,2024-07-08 10:29:27,sub_110,3,distance,cathedral,localisation_accuracy,3,49,babble,,,babble-reversed_n13_p318-one-p307-two-p256-eight-p284-three-p248-five-p245-four.wav,89.24290575691577,30,0.13389098739977112,3,RX81,4,0.0,0.0,5.0,0,0,3.029325513196481,1.374877691268921
0,,2024-07-08 10:29:31,sub_110,3,distance,cathedral,localisation_accuracy,3,50,babble,,,babble-reversed_n13_p229-two-p307-five-p318-four-p284-one-p248-nine-p268-eight.wav,92.69012985234436,30,-0.43252941164484116,10,RX81,11,0.0,0.0,12.0,0,0,7.882697947214076,2.1872754096984863
0,,2024-07-08 10:29:33,sub_110,3,distance,cathedral,localisation_accuracy,3,51,babble,,,babble-reversed_n13_p318-three-p229-one-p256-eight-p245-five-p248-four-p284-nine.wav,90.16305385196551,30,-0.2540359741792856,5,RX81,6,0.0,0.0,7.0,0,0,7.061583577712611,1.3123607635498047
0,,2024-07-08 10:29:36,sub_110,3,distance,cathedral,localisation_accuracy,3,52,babble,,,babble-reversed_n13_p318-five-p256-nine-p307-two-p245-eight-p248-one-p284-four.wav,91.81512045863946,30,0.32414576930863015,6,RX81,7,0.0,0.0,8.0,0,0,6.592375366568916,2.0466630458831787
0,,2024-07-08 10:29:40,sub_110,3,distance,cathedral,localisation_accuracy,3,53,babble,,,babble-reversed_n13_p229-five-p256-one-p318-three-p248-nine-p268-four-p284-eight.wav,91.85389238831203,30,0.16025500866205922,7,RX81,8,0.0,0.0,9.0,0,0,6.607038123167156,2.7028632164001465
0,,2024-07-08 10:29:45,sub_110,3,distance,cathedral,localisation_accuracy,3,54,babble,,,babble-reversed_n13_p318-four-p256-five-p229-three-p284-one-p245-eight-p248-nine.wav,92.278240633092,30,0.3850214989667894,9,RX81,10,0.0,0.0,11.0,0,0,9.24633431085044,3.2028489112854004
0,,2024-07-08 10:32:44,sub_110,3,distance,cathedral,localisation_accuracy,4,0,babble,,,babble-reversed_n13_p318-three-p307-one-p256-five-p248-nine-p245-two-p284-eight.wav,91.6599906930587,30,-0.10785157912358034,7,RX81,8,0.0,0.0,9.0,0,0,5.639296187683285,3.6559195518493652
0,,2024-07-08 10:32:47,sub_110,3,distance,cathedral,localisation_accuracy,4,1,babble,,,babble-reversed_n13_p229-three-p307-one-p318-two-p245-eight-p268-five-p284-four.wav,90.21739715771744,30,-0.1768984156376613,5,RX81,6,0.0,0.0,7.0,0,0,6.475073313782993,1.390458106994629
0,,2024-07-08 10:32:49,sub_110,3,distance,cathedral,localisation_accuracy,4,2,babble,,,babble-reversed_n13_p307-one-p318-five-p229-four-p268-eight-p284-two-p245-three.wav,91.64646393543882,30,0.08212429202658655,6,RX81,7,0.0,0.0,8.0,0,0,7.67741935483871,1.4686346054077148
0,,2024-07-08 10:32:52,sub_110,3,distance,cathedral,localisation_accuracy,4,3,babble,,,babble-reversed_n13_p318-four-p256-five-p229-three-p284-one-p245-eight-p248-nine.wav,92.17163944464704,30,0.22167345017981321,8,RX81,9,0.0,0.0,10.0,0,0,8.821114369501467,1.2498719692230225
0,,2024-07-08 10:32:55,sub_110,3,distance,cathedral,localisation_accuracy,4,4,babble,,,babble-reversed_n13_p229-two-p307-five-p318-four-p284-one-p248-nine-p268-eight.wav,84.63706697482183,30,0.3533114400258278,0,RX81,1,0.0,0.0,2.0,0,0,2.1495601173020527,2.171653985977173
0,,2024-07-08 10:32:58,sub_110,3,distance,cathedral,localisation_accuracy,4,5,babble,,,babble-reversed_n13_p307-five-p229-two-p318-four-p248-three-p245-nine-p268-eight.wav,87.5952446868974,30,0.03585803106065766,2,RX81,3,0.0,0.0,4.0,0,0,3.5278592375366573,1.593569278717041
0,,2024-07-08 10:33:00,sub_110,3,distance,cathedral,localisation_accuracy,4,6,babble,,,babble-reversed_n13_p229-nine-p307-five-p256-two-p248-three-p245-one-p268-eight.wav,89.68309078384237,30,0.4973426671247091,4,RX81,5,0.0,0.0,6.0,0,0,6.079178885630499,1.7810747623443604
0,,2024-07-08 10:33:03,sub_110,3,distance,cathedral,localisation_accuracy,4,7,babble,,,babble-reversed_n13_p229-three-p256-nine-p318-five-p248-one-p245-eight-p284-two.wav,92.9696363864726,30,-0.04270321916373043,10,RX81,11,0.0,0.0,12.0,0,0,8.718475073313783,1.5466959476470947
0,,2024-07-08 10:33:07,sub_110,3,distance,cathedral,localisation_accuracy,4,8,babble,,,babble-reversed_n13_p256-four-p307-eight-p318-two-p248-three-p284-nine-p268-one.wav,86.51907781324991,30,0.46478931879053864,1,RX81,2,0.0,0.0,3.0,0,0,2.4721407624633436,2.7966065406799316
0,,2024-07-08 10:33:10,sub_110,3,distance,cathedral,localisation_accuracy,4,9,babble,,,babble-reversed_n13_p256-five-p229-one-p318-three-p248-nine-p284-eight-p268-two.wav,89.32447593143635,30,0.25082250974252596,3,RX81,4,0.0,0.0,5.0,0,0,4.407624633431086,2.265397071838379
0,,2024-07-08 10:33:14,sub_110,3,distance,cathedral,localisation_accuracy,4,10,babble,,,babble-reversed_n13_p256-three-p318-two-p229-nine-p248-four-p284-one-p268-eight.wav,91.91530215872474,30,-0.1273857756845388,9,RX81,10,0.0,0.0,11.0,0,0,8.498533724340177,2.1716742515563965
0,,2024-07-08 10:33:16,sub_110,3,distance,cathedral,localisation_accuracy,4,11,babble,,,babble-reversed_n13_p256-eight-p318-five-p307-four-p245-three-p268-one-p284-nine.wav,89.462014997339,30,0.4490143618643533,3,RX81,4,0.0,0.0,5.0,0,0,6.225806451612904,1.5623159408569336
0,,2024-07-08 10:33:19,sub_110,3,distance,cathedral,localisation_accuracy,4,12,babble,,,babble-reversed_n13_p229-three-p307-one-p318-two-p245-eight-p268-five-p284-four.wav,89.37916868559049,30,0.08756949929459334,4,RX81,5,0.0,0.0,6.0,0,0,7.618768328445748,1.390503168106079
0,,2024-07-08 10:33:22,sub_110,3,distance,cathedral,localisation_accuracy,4,13,babble,,,babble-reversed_n13_p229-five-p256-one-p318-three-p248-nine-p268-four-p284-eight.wav,91.92718502254704,30,-0.12418497778876747,8,RX81,9,0.0,0.0,10.0,0,0,9.114369501466276,1.5466954708099365
0,,2024-07-08 10:33:25,sub_110,3,distance,cathedral,localisation_accuracy,4,14,babble,,,babble-reversed_n13_p229-five-p256-three-p318-nine-p248-two-p284-four-p268-one.wav,84.30415268743316,30,-0.14329757105460172,0,RX81,1,0.0,0.0,2.0,0,0,2.134897360703812,2.296642303466797
0,,2024-07-08 10:33:28,sub_110,3,distance,cathedral,localisation_accuracy,4,15,babble,,,babble-reversed_n13_p229-three-p256-nine-p318-five-p248-one-p245-eight-p284-two.wav,87.71129606465718,30,0.2045573918155703,2,RX81,3,0.0,0.0,4.0,0,0,3.777126099706745,1.4842219352722168
0,,2024-07-08 10:33:30,sub_110,3,distance,cathedral,localisation_accuracy,4,16,babble,,,babble-reversed_n13_p307-two-p229-one-p256-five-p248-nine-p284-three-p268-eight.wav,90.62753065061199,30,0.41175351251980874,5,RX81,6,0.0,0.0,7.0,0,0,5.991202346041057,1.4529531002044678
0,,2024-07-08 10:33:33,sub_110,3,distance,cathedral,localisation_accuracy,4,17,babble,,,babble-reversed_n13_p229-two-p318-eight-p256-three-p268-one-p248-nine-p284-five.wav,85.87535407310017,30,-0.47683158201669695,1,RX81,2,0.0,0.0,3.0,0,0,3.2199413489736077,1.4998235702514648
0,,2024-07-08 10:33:36,sub_110,3,distance,cathedral,localisation_accuracy,4,18,babble,,,babble-reversed_n13_p229-nine-p256-four-p318-three-p268-eight-p248-two-p284-five.wav,91.59205645966203,30,-0.2012189302285663,7,RX81,8,0.0,0.0,9.0,0,0,7.35483870967742,1.827925443649292
0,,2024-07-08 10:33:39,sub_110,3,distance,cathedral,localisation_accuracy,4,19,babble,,,babble-reversed_n13_p256-eight-p229-three-p307-nine-p245-five-p248-four-p268-two.wav,91.91705352096783,30,-0.12493401719044661,9,RX81,10,0.0,0.0,11.0,0,0,9.378299120234605,1.749826431274414
0,,2024-07-08 10:33:41,sub_110,3,distance,cathedral,localisation_accuracy,4,20,babble,,,babble-reversed_n13_p256-eight-p318-five-p307-four-p245-three-p268-one-p284-nine.wav,91.25523534933544,30,-0.471876102581146,6,RX81,7,0.0,0.0,8.0,0,0,7.809384164222875,1.593567132949829
0,,2024-07-08 10:33:45,sub_110,3,distance,cathedral,localisation_accuracy,4,21,babble,,,babble-reversed_n13_p229-three-p256-nine-p318-five-p248-one-p245-eight-p284-two.wav,92.99029236206215,30,-0.013691324490185508,10,RX81,11,0.0,0.0,12.0,0,0,9.744868035190617,2.20289945602417
0,,2024-07-08 10:33:47,sub_110,3,distance,cathedral,localisation_accuracy,4,22,babble,,,babble-reversed_n13_p229-three-p256-nine-p318-five-p248-one-p245-eight-p284-two.wav,92.35610264137635,30,0.49608934402423543,9,RX81,10,0.0,0.0,11.0,0,0,10.595307917888563,1.515467643737793
0,,2024-07-08 10:33:51,sub_110,3,distance,cathedral,localisation_accuracy,4,23,babble,,,babble-reversed_n13_p318-four-p256-five-p229-three-p284-one-p245-eight-p248-nine.wav,90.3480535378522,30,0.009381286235765618,5,RX81,6,0.0,0.0,7.0,0,0,8.747800586510264,2.2966628074645996
0,,2024-07-08 10:33:54,sub_110,3,distance,cathedral,localisation_accuracy,4,24,babble,,,babble-reversed_n13_p229-nine-p307-five-p256-two-p248-three-p245-one-p268-eight.wav,93.08744211063954,30,0.12313548369102034,10,RX81,11,0.0,0.0,12.0,0,0,9.700879765395895,1.8591949939727783
0,,2024-07-08 10:33:56,sub_110,3,distance,cathedral,localisation_accuracy,4,25,babble,,,babble-reversed_n13_p229-three-p307-one-p318-two-p245-eight-p268-five-p284-four.wav,92.17914208501769,30,0.23235141000109605,8,RX81,9,0.0,0.0,10.0,0,0,10.43401759530792,1.5935897827148438
0,,2024-07-08 10:34:00,sub_110,3,distance,cathedral,localisation_accuracy,4,26,babble,,,babble-reversed_n13_p318-five-p256-nine-p307-eight-p248-two-p245-four-p284-three.wav,91.47044639042613,30,-0.1684005569555761,6,RX81,7,0.0,0.0,8.0,0,0,6.856304985337244,2.202921152114868
0,,2024-07-08 10:34:02,sub_110,3,distance,cathedral,localisation_accuracy,4,27,babble,,,babble-reversed_n13_p229-one-p318-eight-p256-three-p268-two-p245-five-p248-nine.wav,89.2008995490975,30,0.07385116224628929,3,RX81,4,0.0,0.0,5.0,0,0,4.348973607038124,1.3904790878295898
0,,2024-07-08 10:34:05,sub_110,3,distance,cathedral,localisation_accuracy,4,28,babble,,,babble-reversed_n13_p229-three-p256-nine-p318-five-p248-one-p245-eight-p284-two.wav,91.51637664585621,30,-0.3048882796596819,7,RX81,8,0.0,0.0,9.0,0,0,6.43108504398827,1.734184741973877
0,,2024-07-08 10:34:10,sub_110,3,distance,cathedral,localisation_accuracy,4,29,babble,,,babble-reversed_n13_p307-two-p229-one-p256-five-p248-nine-p284-three-p268-eight.wav,89.26408561494588,30,-0.06615394393404517,4,RX81,5,0.0,0.0,6.0,0,0,5.272727272727273,3.4528098106384277
0,,2024-07-08 10:34:13,sub_110,3,distance,cathedral,localisation_accuracy,4,30,babble,,,babble-reversed_n13_p229-five-p256-three-p318-nine-p248-two-p284-four-p268-one.wav,87.2831539925513,30,-0.41315668117738835,2,RX81,3,0.0,0.0,4.0,0,0,3.3812316715542527,2.218550682067871
0,,2024-07-08 10:34:16,sub_110,3,distance,cathedral,localisation_accuracy,4,31,babble,,,babble-reversed_n13_p318-four-p256-five-p229-three-p284-one-p245-eight-p248-nine.wav,84.42576354884383,30,0.03716064469186531,0,RX81,1,0.0,0.0,2.0,0,0,1.6656891495601176,2.109177350997925
0,,2024-07-08 10:34:19,sub_110,3,distance,cathedral,localisation_accuracy,4,32,babble,,,babble-reversed_n13_p229-three-p307-one-p318-two-p245-eight-p268-five-p284-four.wav,86.4962234182859,30,0.43084992844158576,1,RX81,2,0.0,0.0,3.0,0,0,2.06158357771261,1.8904426097869873
0,,2024-07-08 10:34:22,sub_110,3,distance,cathedral,localisation_accuracy,4,33,babble,,,babble-reversed_n13_p318-one-p307-two-p256-eight-p284-three-p248-five-p245-four.wav,92.1534536137985,30,0.19580653347321308,8,RX81,9,0.0,0.0,10.0,0,0,5.096774193548388,1.374833583831787
0,,2024-07-08 10:34:25,sub_110,3,distance,cathedral,localisation_accuracy,4,34,babble,,,babble-reversed_n13_p256-three-p318-two-p229-nine-p248-four-p284-one-p268-eight.wav,87.7785845346834,30,0.302805639153511,2,RX81,3,0.0,0.0,4.0,0,0,3.674486803519062,1.6092138290405273
0,,2024-07-08 10:34:27,sub_110,3,distance,cathedral,localisation_accuracy,4,35,babble,,,babble-reversed_n13_p229-five-p318-two-p307-eight-p268-three-p248-four-p245-one.wav,89.1550790363037,30,-0.21103628898674787,4,RX81,5,0.0,0.0,6.0,0,0,5.668621700879766,1.1560988426208496
0,,2024-07-08 10:34:29,sub_110,3,distance,cathedral,localisation_accuracy,4,36,babble,,,babble-reversed_n13_p256-eight-p229-three-p307-nine-p245-five-p248-four-p268-two.wav,89.18761540006047,30,0.05488892508501142,3,RX81,4,0.0,0.0,5.0,0,0,4.568914956011731,1.4842207431793213
0,,2024-07-08 10:34:32,sub_110,3,distance,cathedral,localisation_accuracy,4,37,babble,,,babble-reversed_n13_p229-two-p318-eight-p256-three-p268-one-p248-nine-p284-five.wav,90.62601879026495,30,0.4095623894123306,5,RX81,6,0.0,0.0,7.0,0,0,6.225806451612904,1.4060814380645752
0,,2024-07-08 10:34:34,sub_110,3,distance,cathedral,localisation_accuracy,4,38,babble,,,babble-reversed_n13_p318-five-p256-nine-p307-two-p245-eight-p248-one-p284-four.wav,91.38301995706401,30,-0.48668887571767705,7,RX81,8,0.0,0.0,9.0,0,0,7.35483870967742,1.3279612064361572
0,,2024-07-08 10:34:37,sub_110,3,distance,cathedral,localisation_accuracy,4,39,babble,,,babble-reversed_n13_p307-five-p229-three-p318-nine-p245-four-p268-eight-p284-two.wav,91.77377521118744,30,-0.32484784422371005,9,RX81,10,0.0,0.0,11.0,0,0,8.718475073313783,1.2185962200164795
0,,2024-07-08 10:34:40,sub_110,3,distance,cathedral,localisation_accuracy,4,40,babble,,,babble-reversed_n13_p256-five-p229-one-p318-three-p248-nine-p284-eight-p268-two.wav,84.62055302701827,30,0.3284839630247358,0,RX81,1,0.0,0.0,2.0,0,0,1.7536656891495603,2.499774217605591
0,,2024-07-08 10:34:43,sub_110,3,distance,cathedral,localisation_accuracy,4,41,babble,,,babble-reversed_n13_p229-five-p256-three-p318-nine-p248-two-p284-four-p268-one.wav,86.07993158355194,30,-0.18077994421282906,1,RX81,2,0.0,0.0,3.0,0,0,2.7507331378299122,1.4842195510864258
0,,2024-07-08 10:34:46,sub_110,3,distance,cathedral,localisation_accuracy,4,42,babble,,,babble-reversed_n13_p256-four-p229-two-p318-five-p268-one-p248-eight-p245-three.wav,92.72746865486339,30,-0.38074821071428955,10,RX81,11,0.0,0.0,12.0,0,0,7.35483870967742,1.4529743194580078
0,,2024-07-08 10:34:48,sub_110,3,distance,cathedral,localisation_accuracy,4,43,babble,,,babble-reversed_n13_p318-five-p229-four-p256-eight-p284-one-p245-three-p248-two.wav,91.50834861920893,30,-0.11463137250389621,6,RX81,7,0.0,0.0,8.0,0,0,6.900293255131965,1.4685981273651123
0,,2024-07-08 10:34:51,sub_110,3,distance,cathedral,localisation_accuracy,4,44,babble,,,babble-reversed_n13_p318-three-p307-one-p256-five-p248-nine-p245-two-p284-eight.wav,89.28967728230873,30,0.2008829638211923,3,RX81,4,0.0,0.0,5.0,0,0,4.656891495601173,1.3592097759246826
0,,2024-07-08 10:34:54,sub_110,3,distance,cathedral,localisation_accuracy,4,45,babble,,,babble-reversed_n13_p229-five-p256-one-p318-three-p248-nine-p268-four-p284-eight.wav,90.24856109338958,30,-0.13257257939286038,5,RX81,6,0.0,0.0,7.0,0,0,6.621700879765397,2.2810187339782715
0,,2024-07-08 10:34:58,sub_110,3,distance,cathedral,localisation_accuracy,4,46,babble,,,babble-reversed_n13_p307-one-p318-five-p229-four-p268-eight-p284-two-p245-three.wav,91.95487584804397,30,-0.07193684476283302,9,RX81,10,0.0,0.0,11.0,0,0,8.967741935483872,2.8122520446777344
0,,2024-07-08 10:35:01,sub_110,3,distance,cathedral,localisation_accuracy,4,47,babble,,,babble-reversed_n13_p256-four-p229-two-p318-five-p268-one-p248-eight-p245-three.wav,92.0612548689297,30,0.4496351656498042,7,RX81,8,0.0,0.0,9.0,0,0,7.618768328445748,1.7654516696929932
0,,2024-07-08 10:35:04,sub_110,3,distance,cathedral,localisation_accuracy,4,48,babble,,,babble-reversed_n13_p318-three-p229-one-p256-eight-p245-five-p248-four-p284-nine.wav,91.49021090913891,30,-0.14037412743418087,6,RX81,7,0.0,0.0,8.0,0,0,7.120234604105573,1.6717092990875244
0,,2024-07-08 10:35:07,sub_110,3,distance,cathedral,localisation_accuracy,4,49,babble,,,babble-reversed_n13_p318-five-p229-four-p256-eight-p284-one-p245-three-p248-two.wav,89.04420576250988,30,-0.35768034921840264,4,RX81,5,0.0,0.0,6.0,0,0,5.9178885630498534,2.202921152114868
0,,2024-07-08 10:35:10,sub_110,3,distance,cathedral,localisation_accuracy,4,50,babble,,,babble-reversed_n13_p229-five-p256-one-p318-three-p248-nine-p268-four-p284-eight.wav,92.12533588001043,30,0.15585638207920582,8,RX81,9,0.0,0.0,10.0,0,0,7.472140762463344,2.171673059463501
0,,2024-07-08 10:35:13,sub_110,3,distance,cathedral,localisation_accuracy,4,51,babble,,,babble-reversed_n13_p256-three-p318-one-p307-two-p284-nine-p268-four-p245-eight.wav,87.51267209255771,30,-0.08360051089674791,2,RX81,3,0.0,0.0,4.0,0,0,3.483870967741936,1.8904213905334473
0,,2024-07-08 10:35:16,sub_110,3,distance,cathedral,localisation_accuracy,4,52,babble,,,babble-reversed_n13_p318-five-p229-three-p256-four-p268-eight-p248-one-p245-nine.wav,84.33062767969028,30,-0.10410390759564281,0,RX81,1,0.0,0.0,2.0,0,0,1.6510263929618771,1.5466971397399902
0,,2024-07-08 10:35:19,sub_110,3,distance,cathedral,localisation_accuracy,4,53,babble,,,babble-reversed_n13_p256-four-p229-eight-p307-five-p248-three-p245-one-p284-two.wav,92.88090117148352,30,-0.16701535575469117,10,RX81,11,0.0,0.0,12.0,0,0,8.63049853372434,1.9841859340667725
0,,2024-07-08 10:35:22,sub_110,3,distance,cathedral,localisation_accuracy,4,54,babble,,,babble-reversed_n13_p307-two-p229-one-p256-five-p248-nine-p284-three-p268-eight.wav,86.29464084677385,30,0.13312717365735327,1,RX81,2,0.0,0.0,3.0,0,0,2.8533724340175954,2.327889919281006
