,event_id,timestamp,subject_id,session_index,plane,setup,task,block,trial_index,stim_type,headpose_offset_azi,headpose_offset_ele,stim_filename,stim_level,mgb_level,fluctuation,speaker_id,speaker_proc,speaker_chan,stim_azi,stim_ele,stim_dist,resp_azi,resp_ele,resp_dist,reaction_time
0,,2024-07-22 15:35:53,sub_117,3,distance,cathedral,localisation_accuracy,1,0,babble,,,babble-reversed_n13_p256-three-p318-two-p229-nine-p248-four-p284-one-p268-eight.wav,91.91660056518914,30,-0.13907032872463176,8,RX81,9,0.0,0.0,10.0,0,0,10.75659824046921,8.5774564743042
0,,2024-07-22 15:36:02,sub_117,3,distance,cathedral,localisation_accuracy,1,1,babble,,,babble-reversed_n13_p229-nine-p307-five-p256-two-p248-three-p245-one-p268-eight.wav,91.85489553358669,30,-0.21182688334064914,9,RX81,10,0.0,0.0,11.0,0,0,7.809384164222875,7.749390125274658
0,,2024-07-22 15:36:08,sub_117,3,distance,cathedral,localisation_accuracy,1,2,babble,,,babble-reversed_n13_p256-four-p229-eight-p307-five-p248-three-p245-one-p284-two.wav,93.16843145038456,30,0.23767886009139083,10,RX81,11,0.0,0.0,12.0,0,0,9.070381231671554,4.921464443206787
0,,2024-07-22 15:36:14,sub_117,3,distance,cathedral,localisation_accuracy,1,3,babble,,,babble-reversed_n13_p229-five-p318-three-p307-two-p245-four-p284-nine-p248-eight.wav,91.64473862347475,30,0.07965848322130964,6,RX81,7,0.0,0.0,8.0,0,0,5.859237536656892,4.202762842178345
0,,2024-07-22 15:36:19,sub_117,3,distance,cathedral,localisation_accuracy,1,4,babble,,,babble-reversed_n13_p307-two-p256-four-p318-three-p284-eight-p248-five-p245-nine.wav,92.08203894799631,30,0.47879258583003603,7,RX81,8,0.0,0.0,9.0,0,0,4.700879765395895,3.765293598175049
0,,2024-07-22 15:36:23,sub_117,3,distance,cathedral,localisation_accuracy,1,5,babble,,,babble-reversed_n13_p229-five-p256-one-p318-three-p248-nine-p268-four-p284-eight.wav,89.31337385122835,30,0.23488094924615388,3,RX81,4,0.0,0.0,5.0,0,0,6.70967741935484,3.2028541564941406
0,,2024-07-22 15:36:28,sub_117,3,distance,cathedral,localisation_accuracy,1,6,babble,,,babble-reversed_n13_p307-five-p229-three-p318-nine-p245-four-p268-eight-p284-two.wav,90.68757714288589,30,0.4989060303882856,5,RX81,6,0.0,0.0,7.0,0,0,8.234604105571847,3.9684128761291504
0,,2024-07-22 15:36:34,sub_117,3,distance,cathedral,localisation_accuracy,1,7,babble,,,babble-reversed_n13_p256-four-p307-eight-p318-two-p248-three-p284-nine-p268-one.wav,87.5137269820956,30,-0.08207739246606838,2,RX81,3,0.0,0.0,4.0,0,0,3.0733137829912023,5.187089920043945
0,,2024-07-22 15:36:39,sub_117,3,distance,cathedral,localisation_accuracy,1,8,babble,,,babble-reversed_n13_p229-nine-p256-four-p318-three-p268-eight-p248-two-p284-five.wav,89.45883729598614,30,0.1944498714993248,4,RX81,5,0.0,0.0,6.0,0,0,3.6891495601173023,3.187208414077759
0,,2024-07-22 15:36:43,sub_117,3,distance,cathedral,localisation_accuracy,1,9,babble,,,babble-reversed_n13_p318-five-p256-nine-p307-two-p245-eight-p248-one-p284-four.wav,86.29179098457814,30,0.1289390833497689,1,RX81,2,0.0,0.0,3.0,0,0,3.1759530791788864,3.4528186321258545
0,,2024-07-22 15:36:49,sub_117,3,distance,cathedral,localisation_accuracy,1,10,babble,,,babble-reversed_n13_p307-nine-p318-two-p256-one-p245-three-p268-four-p248-eight.wav,84.69499755273007,30,0.44056651442022543,0,RX81,1,0.0,0.0,2.0,0,0,2.2521994134897367,4.202800035476685
0,,2024-07-22 15:36:52,sub_117,3,distance,cathedral,localisation_accuracy,1,11,babble,,,babble-reversed_n13_p318-four-p256-five-p229-three-p284-one-p245-eight-p248-nine.wav,89.31922158270339,30,0.24327670347578978,3,RX81,4,0.0,0.0,5.0,0,0,3.2492668621700886,2.8278584480285645
0,,2024-07-22 15:36:57,sub_117,3,distance,cathedral,localisation_accuracy,1,12,babble,,,babble-reversed_n13_p229-two-p307-five-p318-four-p284-one-p248-nine-p268-eight.wav,87.40511124900839,30,-0.23849753859336698,2,RX81,3,0.0,0.0,4.0,0,0,2.838709677419355,3.218477725982666
0,,2024-07-22 15:37:03,sub_117,3,distance,cathedral,localisation_accuracy,1,13,babble,,,babble-reversed_n13_p229-two-p256-three-p318-eight-p284-five-p268-four-p245-one.wav,93.13010156630676,30,0.18341464529365925,10,RX81,11,0.0,0.0,12.0,0,0,7.6334310850439895,5.577669382095337
0,,2024-07-22 15:37:10,sub_117,3,distance,cathedral,localisation_accuracy,1,14,babble,,,babble-reversed_n13_p256-four-p229-eight-p307-five-p248-three-p245-one-p284-two.wav,92.14103943259053,30,0.1781617339958027,8,RX81,9,0.0,0.0,10.0,0,0,7.66275659824047,5.062146186828613
0,,2024-07-22 15:37:16,sub_117,3,distance,cathedral,localisation_accuracy,1,15,babble,,,babble-reversed_n13_p307-two-p256-four-p318-three-p284-eight-p248-five-p245-nine.wav,92.2262453528293,30,0.3110771237722685,9,RX81,10,0.0,0.0,11.0,0,0,7.237536656891496,5.0798420906066895
0,,2024-07-22 15:37:21,sub_117,3,distance,cathedral,localisation_accuracy,1,16,babble,,,babble-reversed_n13_p256-three-p318-two-p229-nine-p248-four-p284-one-p268-eight.wav,86.19590454143683,30,-0.011634616832412847,1,RX81,2,0.0,0.0,3.0,0,0,3.4692082111436955,3.8434345722198486
0,,2024-07-22 15:37:26,sub_117,3,distance,cathedral,localisation_accuracy,1,17,babble,,,babble-reversed_n13_p229-five-p256-three-p318-nine-p248-two-p284-four-p268-one.wav,89.48765442667522,30,0.23320326895495092,4,RX81,5,0.0,0.0,6.0,0,0,6.137829912023461,3.859058141708374
0,,2024-07-22 15:37:31,sub_117,3,distance,cathedral,localisation_accuracy,1,18,babble,,,babble-reversed_n13_p229-five-p256-three-p318-nine-p248-two-p284-four-p268-one.wav,84.24800796545519,30,-0.22624445648861435,0,RX81,1,0.0,0.0,2.0,0,0,3.029325513196481,4.202823638916016
0,,2024-07-22 15:37:36,sub_117,3,distance,cathedral,localisation_accuracy,1,19,babble,,,babble-reversed_n13_p229-one-p318-nine-p256-four-p284-eight-p268-five-p245-two.wav,90.00081201651494,30,-0.4831450448044625,5,RX81,6,0.0,0.0,7.0,0,0,6.255131964809385,3.609074354171753
0,,2024-07-22 15:37:40,sub_117,3,distance,cathedral,localisation_accuracy,1,20,babble,,,babble-reversed_n13_p256-three-p318-two-p229-nine-p248-four-p284-one-p268-eight.wav,92.09500441326617,30,0.4969956243272504,7,RX81,8,0.0,0.0,9.0,0,0,8.791788856304986,3.4528584480285645
0,,2024-07-22 15:37:46,sub_117,3,distance,cathedral,localisation_accuracy,1,21,babble,,,babble-reversed_n13_p229-one-p318-nine-p256-four-p284-eight-p268-five-p245-two.wav,91.86387374197152,30,0.39446864071363064,6,RX81,7,0.0,0.0,8.0,0,0,9.422287390029327,4.577739238739014
0,,2024-07-22 15:37:52,sub_117,3,distance,cathedral,localisation_accuracy,1,22,babble,,,babble-reversed_n13_p229-five-p318-two-p307-eight-p268-three-p248-four-p245-one.wav,92.33579698387118,30,0.4561706981651843,8,RX81,9,0.0,0.0,10.0,0,0,11.181818181818183,4.3278234004974365
0,,2024-07-22 15:37:56,sub_117,3,distance,cathedral,localisation_accuracy,1,23,babble,,,babble-reversed_n13_p256-three-p318-one-p307-two-p284-nine-p268-four-p245-eight.wav,87.49619141975461,30,-0.10738631646337327,2,RX81,3,0.0,0.0,4.0,0,0,11.049853372434018,3.265328884124756
0,,2024-07-22 15:38:01,sub_117,3,distance,cathedral,localisation_accuracy,1,24,babble,,,babble-reversed_n13_p318-three-p229-one-p256-eight-p245-five-p248-four-p284-nine.wav,91.83770577672982,30,-0.23581241506300943,9,RX81,10,0.0,0.0,11.0,0,0,11.75366568914956,3.7965621948242188
0,,2024-07-22 15:38:05,sub_117,3,distance,cathedral,localisation_accuracy,1,25,babble,,,babble-reversed_n13_p229-eight-p256-nine-p318-four-p245-three-p268-five-p284-two.wav,91.48650469257478,30,-0.14563161170230465,6,RX81,7,0.0,0.0,8.0,0,0,12.090909090909092,3.093465805053711
0,,2024-07-22 15:38:12,sub_117,3,distance,cathedral,localisation_accuracy,1,26,babble,,,babble-reversed_n13_p229-one-p318-eight-p256-three-p268-nine-p248-five-p284-four.wav,90.24078434119868,30,-0.1436399610549387,5,RX81,6,0.0,0.0,7.0,0,0,7.193548387096774,5.702659606933594
0,,2024-07-22 15:38:17,sub_117,3,distance,cathedral,localisation_accuracy,1,27,babble,,,babble-reversed_n13_p256-five-p229-one-p318-three-p248-nine-p284-eight-p268-two.wav,89.19736057209217,30,0.06879833975674576,3,RX81,4,0.0,0.0,5.0,0,0,5.712609970674487,4.1402668952941895
0,,2024-07-22 15:38:22,sub_117,3,distance,cathedral,localisation_accuracy,1,28,babble,,,babble-reversed_n13_p307-nine-p318-two-p256-one-p245-three-p268-four-p248-eight.wav,89.66647711664183,30,0.47479922042605527,4,RX81,5,0.0,0.0,6.0,0,0,6.900293255131965,3.5465617179870605
0,,2024-07-22 15:38:26,sub_117,3,distance,cathedral,localisation_accuracy,1,29,babble,,,babble-reversed_n13_p307-five-p229-two-p318-four-p248-three-p245-nine-p268-eight.wav,86.33873176727104,30,0.19799637802462122,1,RX81,2,0.0,0.0,3.0,0,0,4.158357771260998,3.343447208404541
0,,2024-07-22 15:38:31,sub_117,3,distance,cathedral,localisation_accuracy,1,30,babble,,,babble-reversed_n13_p318-three-p229-one-p256-eight-p245-five-p248-four-p284-nine.wav,91.44624284994342,30,-0.40063844983479,7,RX81,8,0.0,0.0,9.0,0,0,7.618768328445748,3.280973196029663
0,,2024-07-22 15:38:36,sub_117,3,distance,cathedral,localisation_accuracy,1,31,babble,,,babble-reversed_n13_p307-nine-p318-two-p256-one-p245-three-p268-four-p248-eight.wav,84.61147424912241,30,0.31484335626201043,0,RX81,1,0.0,0.0,2.0,0,0,4.583577712609971,4.53088641166687
0,,2024-07-22 15:38:42,sub_117,3,distance,cathedral,localisation_accuracy,1,32,babble,,,babble-reversed_n13_p256-eight-p318-five-p307-four-p245-three-p268-one-p284-nine.wav,93.2676729139211,30,0.37863026850873727,10,RX81,11,0.0,0.0,12.0,0,0,10.316715542521996,4.780869483947754
0,,2024-07-22 15:38:48,sub_117,3,distance,cathedral,localisation_accuracy,1,33,babble,,,babble-reversed_n13_p229-two-p256-three-p318-eight-p284-five-p268-four-p245-one.wav,86.05521305945692,30,-0.21670812326551114,1,RX81,2,0.0,0.0,3.0,0,0,6.035190615835777,4.515241622924805
0,,2024-07-22 15:38:53,sub_117,3,distance,cathedral,localisation_accuracy,1,34,babble,,,babble-reversed_n13_p229-three-p256-nine-p318-five-p248-one-p245-eight-p284-two.wav,89.60177113654657,30,0.3871569932940766,4,RX81,5,0.0,0.0,6.0,0,0,9.53958944281525,3.7028191089630127
0,,2024-07-22 15:38:56,sub_117,3,distance,cathedral,localisation_accuracy,1,35,babble,,,babble-reversed_n13_p318-three-p307-one-p256-five-p248-nine-p245-two-p284-eight.wav,90.29961962634168,30,-0.05980734556570089,5,RX81,6,0.0,0.0,7.0,0,0,9.53958944281525,1.9841675758361816
0,,2024-07-22 15:38:59,sub_117,3,distance,cathedral,localisation_accuracy,1,36,babble,,,babble-reversed_n13_p229-five-p256-three-p318-nine-p248-two-p284-four-p268-one.wav,89.30607372258356,30,0.2244032179886145,3,RX81,4,0.0,0.0,5.0,0,0,10.565982404692082,2.374765157699585
0,,2024-07-22 15:39:04,sub_117,3,distance,cathedral,localisation_accuracy,1,37,babble,,,babble-reversed_n13_p229-two-p256-three-p318-eight-p284-five-p268-four-p245-one.wav,91.45948541240269,30,-0.3825827150212685,7,RX81,8,0.0,0.0,9.0,0,0,11.343108504398828,3.2965762615203857
0,,2024-07-22 15:39:09,sub_117,3,distance,cathedral,localisation_accuracy,1,38,babble,,,babble-reversed_n13_p229-five-p318-two-p307-eight-p268-three-p248-four-p245-one.wav,87.26879312553592,30,-0.4336557960189099,2,RX81,3,0.0,0.0,4.0,0,0,6.475073313782993,3.9215328693389893
0,,2024-07-22 15:39:14,sub_117,3,distance,cathedral,localisation_accuracy,1,39,babble,,,babble-reversed_n13_p307-five-p229-two-p318-four-p248-three-p245-nine-p268-eight.wav,93.10641590207041,30,0.1499311731222357,10,RX81,11,0.0,0.0,12.0,0,0,11.607038123167156,3.577833652496338
0,,2024-07-22 15:39:19,sub_117,3,distance,cathedral,localisation_accuracy,1,40,babble,,,babble-reversed_n13_p307-nine-p318-two-p256-one-p245-three-p268-four-p248-eight.wav,92.26325810828625,30,0.3636958253405217,9,RX81,10,0.0,0.0,11.0,0,0,11.929618768328446,4.2652575969696045
0,,2024-07-22 15:39:25,sub_117,3,distance,cathedral,localisation_accuracy,1,41,babble,,,babble-reversed_n13_p229-one-p318-nine-p256-four-p284-eight-p268-five-p245-two.wav,84.64759656055318,30,0.3691524892587609,0,RX81,1,0.0,0.0,2.0,0,0,3.5718475073313787,5.202714204788208
0,,2024-07-22 15:39:31,sub_117,3,distance,cathedral,localisation_accuracy,1,42,babble,,,babble-reversed_n13_p318-nine-p256-five-p307-eight-p268-three-p248-one-p245-four.wav,91.24189719481396,30,-0.4905827111827311,6,RX81,7,0.0,0.0,8.0,0,0,10.565982404692082,4.593360424041748
0,,2024-07-22 15:39:37,sub_117,3,distance,cathedral,localisation_accuracy,1,43,babble,,,babble-reversed_n13_p256-four-p229-eight-p307-five-p248-three-p245-one-p284-two.wav,91.73917630863286,30,-0.38748799462274897,8,RX81,9,0.0,0.0,10.0,0,0,9.818181818181818,4.968355655670166
0,,2024-07-22 15:39:41,sub_117,3,distance,cathedral,localisation_accuracy,1,44,babble,,,babble-reversed_n13_p229-five-p256-one-p318-three-p248-nine-p268-four-p284-eight.wav,91.97167662170831,30,-0.04836522005584298,9,RX81,10,0.0,0.0,11.0,0,0,11.797653958944283,2.421654462814331
0,,2024-07-22 15:39:48,sub_117,3,distance,cathedral,localisation_accuracy,1,45,babble,,,babble-reversed_n13_p256-five-p307-nine-p318-three-p284-eight-p268-one-p248-two.wav,86.41599784070135,30,0.3120118264968934,1,RX81,2,0.0,0.0,3.0,0,0,4.627565982404692,6.483899354934692
0,,2024-07-22 15:39:55,sub_117,3,distance,cathedral,localisation_accuracy,1,46,babble,,,babble-reversed_n13_p229-three-p256-nine-p318-five-p248-one-p245-eight-p284-two.wav,93.33367371906633,30,0.47273398158408053,10,RX81,11,0.0,0.0,12.0,0,0,9.906158357771261,5.796422243118286
0,,2024-07-22 15:39:59,sub_117,3,distance,cathedral,localisation_accuracy,1,47,babble,,,babble-reversed_n13_p256-eight-p318-five-p307-four-p245-three-p268-one-p284-nine.wav,89.47480383955221,30,0.21591560501337492,4,RX81,5,0.0,0.0,6.0,0,0,10.521994134897362,2.5622541904449463
0,,2024-07-22 15:40:05,sub_117,3,distance,cathedral,localisation_accuracy,1,48,babble,,,babble-reversed_n13_p256-three-p318-two-p229-nine-p248-four-p284-one-p268-eight.wav,92.29909658493447,30,0.40358715646602616,8,RX81,9,0.0,0.0,10.0,0,0,11.255131964809385,4.827739477157593
0,,2024-07-22 15:40:12,sub_117,3,distance,cathedral,localisation_accuracy,1,49,babble,,,babble-reversed_n13_p229-five-p256-three-p318-nine-p248-two-p284-four-p268-one.wav,84.38109517045164,30,-0.02924909906446216,0,RX81,1,0.0,0.0,2.0,0,0,4.53958944281525,5.624560117721558
0,,2024-07-22 15:40:15,sub_117,3,distance,cathedral,localisation_accuracy,1,50,babble,,,babble-reversed_n13_p318-nine-p307-eight-p229-two-p284-one-p248-three-p245-five.wav,87.47030116417147,30,-0.14471436061196852,2,RX81,3,0.0,0.0,4.0,0,0,5.287390029325514,2.0935347080230713
0,,2024-07-22 15:40:21,sub_117,3,distance,cathedral,localisation_accuracy,1,51,babble,,,babble-reversed_n13_p229-three-p256-nine-p318-five-p248-one-p245-eight-p284-two.wav,91.44464767305193,30,-0.402812670449195,7,RX81,8,0.0,0.0,9.0,0,0,9.744868035190617,5.327681303024292
0,,2024-07-22 15:40:26,sub_117,3,distance,cathedral,localisation_accuracy,1,52,babble,,,babble-reversed_n13_p256-eight-p229-three-p307-nine-p245-five-p248-four-p268-two.wav,90.34347466454773,30,0.0028334535983487452,5,RX81,6,0.0,0.0,7.0,0,0,9.24633431085044,3.655947208404541
0,,2024-07-22 15:40:31,sub_117,3,distance,cathedral,localisation_accuracy,1,53,babble,,,babble-reversed_n13_p256-three-p318-two-p229-nine-p248-four-p284-one-p268-eight.wav,88.82576841967519,30,-0.45705043916856414,3,RX81,4,0.0,0.0,5.0,0,0,7.530791788856305,3.655928611755371
0,,2024-07-22 15:40:36,sub_117,3,distance,cathedral,localisation_accuracy,1,54,babble,,,babble-reversed_n13_p318-nine-p256-five-p307-eight-p268-three-p248-one-p245-four.wav,91.23612004775252,30,-0.4986814150451383,6,RX81,7,0.0,0.0,8.0,0,0,9.011730205278592,3.70281982421875
0,,2024-07-22 15:43:04,sub_117,3,distance,cathedral,localisation_accuracy,2,0,babble,,,babble-reversed_n13_p229-five-p318-two-p307-eight-p268-three-p248-four-p245-one.wav,90.1052514326525,30,-0.3358646100115308,5,RX81,6,0.0,0.0,7.0,0,0,8.073313782991203,5.468301773071289
0,,2024-07-22 15:43:10,sub_117,3,distance,cathedral,localisation_accuracy,2,1,babble,,,babble-reversed_n13_p318-five-p256-nine-p307-eight-p248-two-p245-four-p284-three.wav,86.37059947687786,30,0.24496898736707207,1,RX81,2,0.0,0.0,3.0,0,0,4.143695014662757,4.984024524688721
0,,2024-07-22 15:43:14,sub_117,3,distance,cathedral,localisation_accuracy,2,2,babble,,,babble-reversed_n13_p229-three-p256-one-p307-two-p284-eight-p268-five-p248-nine.wav,89.1309738491257,30,-0.24298006989731202,4,RX81,5,0.0,0.0,6.0,0,0,7.9560117302052795,3.0309691429138184
0,,2024-07-22 15:43:20,sub_117,3,distance,cathedral,localisation_accuracy,2,3,babble,,,babble-reversed_n13_p256-nine-p307-four-p229-one-p284-three-p248-two-p245-five.wav,91.65513356291265,30,-0.11453681398083693,7,RX81,8,0.0,0.0,9.0,0,0,7.530791788856305,4.780874729156494
0,,2024-07-22 15:43:25,sub_117,3,distance,cathedral,localisation_accuracy,2,4,babble,,,babble-reversed_n13_p307-nine-p318-two-p256-one-p245-three-p268-four-p248-eight.wav,84.16896280738527,30,-0.34263345470804885,0,RX81,1,0.0,0.0,2.0,0,0,3.9237536656891496,4.530865430831909
0,,2024-07-22 15:43:30,sub_117,3,distance,cathedral,localisation_accuracy,2,5,babble,,,babble-reversed_n13_p229-five-p256-three-p318-nine-p248-two-p284-four-p268-one.wav,91.82324703144533,30,-0.25597230580627606,9,RX81,10,0.0,0.0,11.0,0,0,11.621700879765397,3.5309360027313232
0,,2024-07-22 15:43:34,sub_117,3,distance,cathedral,localisation_accuracy,2,6,babble,,,babble-reversed_n13_p318-four-p256-five-p229-three-p284-one-p245-eight-p248-nine.wav,91.76006400501072,30,-0.358350090638366,8,RX81,9,0.0,0.0,10.0,0,0,10.375366568914957,2.9997217655181885
0,,2024-07-22 15:43:39,sub_117,3,distance,cathedral,localisation_accuracy,2,7,babble,,,babble-reversed_n13_p256-five-p307-nine-p318-three-p284-eight-p268-one-p248-two.wav,89.25099822106411,30,0.14547137707637292,3,RX81,4,0.0,0.0,5.0,0,0,4.715542521994135,4.077792167663574
0,,2024-07-22 15:43:44,sub_117,3,distance,cathedral,localisation_accuracy,2,8,babble,,,babble-reversed_n13_p256-five-p307-nine-p318-three-p284-eight-p268-one-p248-two.wav,91.86638180475975,30,0.39809073624082836,6,RX81,7,0.0,0.0,8.0,0,0,4.979472140762463,3.8746819496154785
0,,2024-07-22 15:43:49,sub_117,3,distance,cathedral,localisation_accuracy,2,9,babble,,,babble-reversed_n13_p307-four-p318-three-p256-eight-p284-two-p245-nine-p248-five.wav,92.91947125367905,30,-0.11304474144347554,10,RX81,11,0.0,0.0,12.0,0,0,10.419354838709678,3.109156370162964
0,,2024-07-22 15:43:54,sub_117,3,distance,cathedral,localisation_accuracy,2,10,babble,,,babble-reversed_n13_p318-five-p229-three-p256-four-p268-eight-p248-one-p245-nine.wav,87.54264004257737,30,-0.040300623177833894,2,RX81,3,0.0,0.0,4.0,0,0,6.856304985337244,4.218386650085449
0,,2024-07-22 15:43:58,sub_117,3,distance,cathedral,localisation_accuracy,2,11,babble,,,babble-reversed_n13_p307-four-p318-three-p256-eight-p284-two-p245-nine-p248-five.wav,91.67376025552105,30,-0.08889136075875814,7,RX81,8,0.0,0.0,9.0,0,0,8.835777126099707,2.8278589248657227
0,,2024-07-22 15:44:02,sub_117,3,distance,cathedral,localisation_accuracy,2,12,babble,,,babble-reversed_n13_p318-nine-p307-eight-p229-two-p284-one-p248-three-p245-five.wav,91.66823682884774,30,0.11325939905327609,6,RX81,7,0.0,0.0,8.0,0,0,10.331378299120235,3.0465939044952393
0,,2024-07-22 15:44:09,sub_117,3,distance,cathedral,localisation_accuracy,2,13,babble,,,babble-reversed_n13_p256-five-p307-nine-p318-three-p284-eight-p268-one-p248-two.wav,84.46478043053327,30,0.09528853988471209,0,RX81,1,0.0,0.0,2.0,0,0,2.9266862170087977,6.0307581424713135
0,,2024-07-22 15:44:15,sub_117,3,distance,cathedral,localisation_accuracy,2,14,babble,,,babble-reversed_n13_p229-one-p318-eight-p256-three-p268-nine-p248-five-p284-four.wav,89.01285153542194,30,-0.19346437827534924,3,RX81,4,0.0,0.0,5.0,0,0,7.67741935483871,4.4683685302734375
0,,2024-07-22 15:44:20,sub_117,3,distance,cathedral,localisation_accuracy,2,15,babble,,,babble-reversed_n13_p256-five-p229-one-p318-three-p248-nine-p284-eight-p268-two.wav,92.19912587318088,30,0.2725809607347337,9,RX81,10,0.0,0.0,11.0,0,0,11.12316715542522,3.5934743881225586
0,,2024-07-22 15:44:23,sub_117,3,distance,cathedral,localisation_accuracy,2,16,babble,,,babble-reversed_n13_p229-two-p307-five-p318-four-p284-one-p248-nine-p268-eight.wav,89.16341999387564,30,-0.19997501116854077,4,RX81,5,0.0,0.0,6.0,0,0,10.17008797653959,2.5622522830963135
0,,2024-07-22 15:44:30,sub_117,3,distance,cathedral,localisation_accuracy,2,17,babble,,,babble-reversed_n13_p256-nine-p307-four-p229-one-p284-three-p248-two-p245-five.wav,92.13460542270478,30,0.1690208613816837,8,RX81,9,0.0,0.0,10.0,0,0,9.51026392961877,5.202692985534668
0,,2024-07-22 15:44:36,sub_117,3,distance,cathedral,localisation_accuracy,2,18,babble,,,babble-reversed_n13_p318-three-p229-one-p256-eight-p245-five-p248-four-p284-nine.wav,90.04117946222813,30,-0.42630577989221885,5,RX81,6,0.0,0.0,7.0,0,0,11.357771260997069,5.70267915725708
0,,2024-07-22 15:44:41,sub_117,3,distance,cathedral,localisation_accuracy,2,19,babble,,,babble-reversed_n13_p318-five-p229-four-p256-eight-p284-one-p245-three-p248-two.wav,87.42049936552084,30,-0.21638656304815806,2,RX81,3,0.0,0.0,4.0,0,0,6.43108504398827,3.5778067111968994
0,,2024-07-22 15:44:45,sub_117,3,distance,cathedral,localisation_accuracy,2,20,babble,,,babble-reversed_n13_p256-three-p318-one-p307-two-p284-nine-p268-four-p245-eight.wav,92.73929216041014,30,-0.36433255586985214,10,RX81,11,0.0,0.0,12.0,0,0,10.595307917888563,2.906033515930176
0,,2024-07-22 15:44:49,sub_117,3,distance,cathedral,localisation_accuracy,2,21,babble,,,babble-reversed_n13_p229-one-p318-eight-p256-three-p268-two-p245-five-p248-nine.wav,86.32435176520985,30,0.17682432641052903,1,RX81,2,0.0,0.0,3.0,0,0,4.700879765395895,2.484133243560791
0,,2024-07-22 15:44:53,sub_117,3,distance,cathedral,localisation_accuracy,2,22,babble,,,babble-reversed_n13_p229-eight-p256-nine-p318-four-p245-three-p268-five-p284-two.wav,84.57240845773731,30,0.2562180724508428,0,RX81,1,0.0,0.0,2.0,0,0,4.173020527859238,2.952852249145508
0,,2024-07-22 15:44:58,sub_117,3,distance,cathedral,localisation_accuracy,2,23,babble,,,babble-reversed_n13_p318-nine-p256-five-p307-eight-p268-three-p248-one-p245-four.wav,91.77150499366108,30,0.04604594660853656,7,RX81,8,0.0,0.0,9.0,0,0,11.548387096774194,3.890305280685425
0,,2024-07-22 15:45:01,sub_117,3,distance,cathedral,localisation_accuracy,2,24,babble,,,babble-reversed_n13_p256-eight-p318-five-p307-four-p245-three-p268-one-p284-nine.wav,89.01050548566937,30,-0.40211004625827174,4,RX81,5,0.0,0.0,6.0,0,0,9.348973607038124,2.6091232299804688
0,,2024-07-22 15:45:06,sub_117,3,distance,cathedral,localisation_accuracy,2,25,babble,,,babble-reversed_n13_p229-nine-p307-five-p256-two-p248-three-p245-one-p268-eight.wav,90.05708880181743,30,-0.4038746233151915,5,RX81,6,0.0,0.0,7.0,0,0,10.19941348973607,3.1715848445892334
0,,2024-07-22 15:45:09,sub_117,3,distance,cathedral,localisation_accuracy,2,26,babble,,,babble-reversed_n13_p229-five-p256-three-p318-nine-p248-two-p284-four-p268-one.wav,92.15535252499129,30,0.19850644564244246,8,RX81,9,0.0,0.0,10.0,0,0,10.360703812316716,2.609126567840576
0,,2024-07-22 15:45:13,sub_117,3,distance,cathedral,localisation_accuracy,2,27,babble,,,babble-reversed_n13_p229-two-p256-three-p318-eight-p284-five-p268-four-p245-one.wav,91.91898029304917,30,0.4741519773064461,6,RX81,7,0.0,0.0,8.0,0,0,11.313782991202347,1.9841701984405518
0,,2024-07-22 15:45:18,sub_117,3,distance,cathedral,localisation_accuracy,2,28,babble,,,babble-reversed_n13_p229-nine-p256-four-p318-three-p268-eight-p248-two-p284-five.wav,87.74092848174675,30,0.24778452631058145,2,RX81,3,0.0,0.0,4.0,0,0,5.697947214076247,3.765314817428589
0,,2024-07-22 15:45:22,sub_117,3,distance,cathedral,localisation_accuracy,2,29,babble,,,babble-reversed_n13_p229-two-p256-three-p318-eight-p284-five-p268-four-p245-one.wav,92.12489779369967,30,0.16746389665689554,9,RX81,10,0.0,0.0,11.0,0,0,9.085043988269796,3.4840619564056396
0,,2024-07-22 15:45:27,sub_117,3,distance,cathedral,localisation_accuracy,2,30,babble,,,babble-reversed_n13_p229-eight-p256-nine-p318-four-p245-three-p268-five-p284-two.wav,93.17841975330458,30,0.25183547269755435,10,RX81,11,0.0,0.0,12.0,0,0,11.475073313782993,3.8902854919433594
0,,2024-07-22 15:45:34,sub_117,3,distance,cathedral,localisation_accuracy,2,31,babble,,,babble-reversed_n13_p229-three-p307-one-p318-two-p245-eight-p268-five-p284-four.wav,88.80031635118806,30,-0.49272990082061985,3,RX81,4,0.0,0.0,5.0,0,0,7.486803519061585,5.937036514282227
0,,2024-07-22 15:45:40,sub_117,3,distance,cathedral,localisation_accuracy,2,32,babble,,,babble-reversed_n13_p256-eight-p229-three-p307-nine-p245-five-p248-four-p268-two.wav,86.52751817203756,30,0.47733304703253165,1,RX81,2,0.0,0.0,3.0,0,0,5.375366568914957,4.733995676040649
0,,2024-07-22 15:45:46,sub_117,3,distance,cathedral,localisation_accuracy,2,33,babble,,,babble-reversed_n13_p318-five-p229-three-p256-four-p268-eight-p248-one-p245-nine.wav,91.49457915963495,30,-0.13417632070924335,6,RX81,7,0.0,0.0,8.0,0,0,9.964809384164223,4.827772855758667
0,,2024-07-22 15:45:50,sub_117,3,distance,cathedral,localisation_accuracy,2,34,babble,,,babble-reversed_n13_p307-two-p229-one-p256-five-p248-nine-p284-three-p268-eight.wav,90.27819971057426,30,-0.09035514897541785,5,RX81,6,0.0,0.0,7.0,0,0,9.275659824046922,2.859104633331299
0,,2024-07-22 15:45:55,sub_117,3,distance,cathedral,localisation_accuracy,2,35,babble,,,babble-reversed_n13_p318-five-p229-four-p256-eight-p284-one-p245-three-p248-two.wav,92.06993284888674,30,0.07729343053453475,8,RX81,9,0.0,0.0,10.0,0,0,10.096774193548388,3.8902876377105713
0,,2024-07-22 15:46:01,sub_117,3,distance,cathedral,localisation_accuracy,2,36,babble,,,babble-reversed_n13_p229-one-p318-nine-p256-four-p284-eight-p268-five-p245-two.wav,92.0374353833968,30,0.41625375587766,7,RX81,8,0.0,0.0,9.0,0,0,10.697947214076247,4.4371562004089355
0,,2024-07-22 15:46:06,sub_117,3,distance,cathedral,localisation_accuracy,2,37,babble,,,babble-reversed_n13_p318-one-p307-two-p256-eight-p284-three-p248-five-p245-four.wav,92.68968711555362,30,-0.43314285268810415,10,RX81,11,0.0,0.0,12.0,0,0,11.445747800586512,3.859057903289795
0,,2024-07-22 15:46:11,sub_117,3,distance,cathedral,localisation_accuracy,2,38,babble,,,babble-reversed_n13_p229-three-p256-one-p307-two-p284-eight-p268-five-p248-nine.wav,87.68918211671065,30,0.1723382970006695,2,RX81,3,0.0,0.0,4.0,0,0,5.302052785923754,3.827810525894165
0,,2024-07-22 15:46:15,sub_117,3,distance,cathedral,localisation_accuracy,2,39,babble,,,babble-reversed_n13_p318-nine-p256-five-p307-eight-p268-three-p248-one-p245-four.wav,91.85534796675626,30,-0.2111953248704106,9,RX81,10,0.0,0.0,11.0,0,0,10.609970674486805,2.9997506141662598
0,,2024-07-22 15:46:19,sub_117,3,distance,cathedral,localisation_accuracy,2,40,babble,,,babble-reversed_n13_p256-eight-p318-five-p307-four-p245-three-p268-one-p284-nine.wav,89.16783768842492,30,-0.19411486586150228,4,RX81,5,0.0,0.0,6.0,0,0,11.12316715542522,3.5778281688690186
0,,2024-07-22 15:46:25,sub_117,3,distance,cathedral,localisation_accuracy,2,41,babble,,,babble-reversed_n13_p256-four-p229-two-p318-five-p268-one-p248-eight-p245-three.wav,84.68547995244768,30,0.426213898388049,0,RX81,1,0.0,0.0,2.0,0,0,3.2199413489736077,4.718371152877808
0,,2024-07-22 15:46:31,sub_117,3,distance,cathedral,localisation_accuracy,2,42,babble,,,babble-reversed_n13_p307-five-p229-three-p318-nine-p245-four-p268-eight-p284-two.wav,86.51669723339049,30,0.46125232842329666,1,RX81,2,0.0,0.0,3.0,0,0,4.2756598240469215,4.265261173248291
0,,2024-07-22 15:46:35,sub_117,3,distance,cathedral,localisation_accuracy,2,43,babble,,,babble-reversed_n13_p307-two-p229-one-p256-five-p248-nine-p284-three-p268-eight.wav,89.04213545889978,30,-0.15199319210556295,3,RX81,4,0.0,0.0,5.0,0,0,5.038123167155426,2.81223464012146
0,,2024-07-22 15:46:38,sub_117,3,distance,cathedral,localisation_accuracy,2,44,babble,,,babble-reversed_n13_p307-five-p229-two-p318-four-p248-three-p245-nine-p268-eight.wav,92.04877965790445,30,0.047351671050435695,8,RX81,9,0.0,0.0,10.0,0,0,8.30791788856305,2.702867031097412
0,,2024-07-22 15:46:43,sub_117,3,distance,cathedral,localisation_accuracy,2,45,babble,,,babble-reversed_n13_p318-five-p229-four-p256-eight-p284-one-p245-three-p248-two.wav,86.1596121079051,30,-0.064669635559231,1,RX81,2,0.0,0.0,3.0,0,0,5.096774193548388,3.6715707778930664
0,,2024-07-22 15:46:49,sub_117,3,distance,cathedral,localisation_accuracy,2,46,babble,,,babble-reversed_n13_p318-nine-p256-five-p307-eight-p268-three-p248-one-p245-four.wav,87.75148692384576,30,0.26320189929896076,2,RX81,3,0.0,0.0,4.0,0,0,5.448680351906159,4.796492576599121
0,,2024-07-22 15:46:55,sub_117,3,distance,cathedral,localisation_accuracy,2,47,babble,,,babble-reversed_n13_p229-three-p307-one-p318-two-p245-eight-p268-five-p284-four.wav,90.27913193496202,30,-0.08902631522536963,5,RX81,6,0.0,0.0,7.0,0,0,8.161290322580646,4.796470642089844
0,,2024-07-22 15:46:59,sub_117,3,distance,cathedral,localisation_accuracy,2,48,babble,,,babble-reversed_n13_p256-four-p229-two-p318-five-p268-one-p248-eight-p245-three.wav,91.58942577480599,30,0.000712606817021455,6,RX81,7,0.0,0.0,8.0,0,0,10.360703812316716,2.687264919281006
0,,2024-07-22 15:47:05,sub_117,3,distance,cathedral,localisation_accuracy,2,49,babble,,,babble-reversed_n13_p256-three-p318-two-p229-nine-p248-four-p284-one-p268-eight.wav,84.15811186256695,30,-0.358575229469699,0,RX81,1,0.0,0.0,2.0,0,0,2.1055718475073313,4.999583959579468
0,,2024-07-22 15:47:11,sub_117,3,distance,cathedral,localisation_accuracy,2,50,babble,,,babble-reversed_n13_p229-two-p256-three-p318-eight-p284-five-p268-four-p245-one.wav,93.30187177898665,30,0.42735455416671286,10,RX81,11,0.0,0.0,12.0,0,0,10.419354838709678,4.765223741531372
0,,2024-07-22 15:47:17,sub_117,3,distance,cathedral,localisation_accuracy,2,51,babble,,,babble-reversed_n13_p229-three-p307-one-p318-two-p245-eight-p268-five-p284-four.wav,91.42021378517175,30,-0.4360960240337156,7,RX81,8,0.0,0.0,9.0,0,0,9.818181818181818,5.111981630325317
0,,2024-07-22 15:47:22,sub_117,3,distance,cathedral,localisation_accuracy,2,52,babble,,,babble-reversed_n13_p229-five-p318-two-p307-eight-p268-three-p248-four-p245-one.wav,89.54506620455996,30,0.31055918695592166,4,RX81,5,0.0,0.0,6.0,0,0,8.131964809384165,3.5621824264526367
0,,2024-07-22 15:47:27,sub_117,3,distance,cathedral,localisation_accuracy,2,53,babble,,,babble-reversed_n13_p318-five-p256-nine-p307-eight-p248-two-p245-four-p284-three.wav,92.15090480223523,30,0.2042517564525872,9,RX81,10,0.0,0.0,11.0,0,0,10.536656891495602,4.202784776687622
0,,2024-07-22 15:47:33,sub_117,3,distance,cathedral,localisation_accuracy,2,54,babble,,,babble-reversed_n13_p318-five-p256-nine-p307-two-p245-eight-p248-one-p284-four.wav,88.89505535647729,30,-0.3597032315539964,3,RX81,4,0.0,0.0,5.0,0,0,7.398826979472142,4.687103748321533
0,,2024-07-22 15:49:12,sub_117,3,distance,cathedral,localisation_accuracy,3,0,pinknoise,,,pinknoise_0.wav,85.94701947126944,30,-0.373457930153385,1,RX81,2,0.0,0.0,3.0,0,0,6.607038123167156,3.3903372287750244
0,,2024-07-22 15:49:15,sub_117,3,distance,cathedral,localisation_accuracy,3,1,pinknoise,,,pinknoise_1.wav,84.66858087252811,30,0.40074662601127675,0,RX81,1,0.0,0.0,2.0,0,0,3.263929618768329,2.6716198921203613
0,,2024-07-22 15:49:21,sub_117,3,distance,cathedral,localisation_accuracy,3,2,pinknoise,,,pinknoise_6.wav,92.7666784880421,30,-0.3262746602399348,10,RX81,11,0.0,0.0,12.0,0,0,11.782991202346041,4.312151908874512
0,,2024-07-22 15:49:25,sub_117,3,distance,cathedral,localisation_accuracy,3,3,pinknoise,,,pinknoise_8.wav,89.66676391125517,30,0.47518823689625866,4,RX81,5,0.0,0.0,6.0,0,0,8.703812316715544,2.6403746604919434
0,,2024-07-22 15:49:29,sub_117,3,distance,cathedral,localisation_accuracy,3,4,pinknoise,,,pinknoise_9.wav,87.79771329690782,30,0.3307939380125219,2,RX81,3,0.0,0.0,4.0,0,0,5.81524926686217,2.7341153621673584
0,,2024-07-22 15:49:32,sub_117,3,distance,cathedral,localisation_accuracy,3,5,pinknoise,,,pinknoise_9.wav,90.624297867769,30,0.40706846687896225,5,RX81,6,0.0,0.0,7.0,0,0,8.322580645161292,2.7497611045837402
0,,2024-07-22 15:49:36,sub_117,3,distance,cathedral,localisation_accuracy,3,6,pinknoise,,,pinknoise_4.wav,91.70732950490009,30,-0.04261723421220054,7,RX81,8,0.0,0.0,9.0,0,0,9.744868035190617,2.1716573238372803
0,,2024-07-22 15:49:39,sub_117,3,distance,cathedral,localisation_accuracy,3,7,pinknoise,,,pinknoise_7.wav,91.99417233101768,30,-0.029805775856136307,8,RX81,9,0.0,0.0,10.0,0,0,10.375366568914957,2.4060139656066895
0,,2024-07-22 15:49:44,sub_117,3,distance,cathedral,localisation_accuracy,3,8,pinknoise,,,pinknoise_6.wav,92.15637138519541,30,0.2119901409792252,9,RX81,10,0.0,0.0,11.0,0,0,11.40175953079179,3.8590588569641113
0,,2024-07-22 15:49:48,sub_117,3,distance,cathedral,localisation_accuracy,3,9,pinknoise,,,pinknoise_6.wav,91.49960095929382,30,-0.12704964897986182,6,RX81,7,0.0,0.0,8.0,0,0,10.565982404692082,2.5310049057006836
0,,2024-07-22 15:49:53,sub_117,3,distance,cathedral,localisation_accuracy,3,10,pinknoise,,,pinknoise_1.wav,89.25043404312753,30,0.14466388903097616,3,RX81,4,0.0,0.0,5.0,0,0,7.222873900293255,3.2809510231018066
0,,2024-07-22 15:49:56,sub_117,3,distance,cathedral,localisation_accuracy,3,11,pinknoise,,,pinknoise_3.wav,89.38543177952184,30,0.09595810807270178,4,RX81,5,0.0,0.0,6.0,0,0,8.454545454545455,2.3122916221618652
0,,2024-07-22 15:50:01,sub_117,3,distance,cathedral,localisation_accuracy,3,12,pinknoise,,,pinknoise_6.wav,90.52891433326022,30,0.26916012622188723,5,RX81,6,0.0,0.0,7.0,0,0,7.325513196480939,3.8434343338012695
0,,2024-07-22 15:50:04,sub_117,3,distance,cathedral,localisation_accuracy,3,13,pinknoise,,,pinknoise_2.wav,93.33900910335498,30,0.4803538762556492,10,RX81,11,0.0,0.0,12.0,0,0,9.2316715542522,2.29664945602417
0,,2024-07-22 15:50:10,sub_117,3,distance,cathedral,localisation_accuracy,3,14,pinknoise,,,pinknoise_2.wav,91.98001263059544,30,0.335929997693439,7,RX81,8,0.0,0.0,9.0,0,0,10.492668621700881,4.155893564224243
0,,2024-07-22 15:50:21,sub_117,3,distance,cathedral,localisation_accuracy,3,15,pinknoise,,,pinknoise_2.wav,84.16297116279497,30,-0.3514371994070207,0,RX81,1,0.0,0.0,2.0,0,0,2.838709677419355,9.63990592956543
0,,2024-07-22 15:50:24,sub_117,3,distance,cathedral,localisation_accuracy,3,16,pinknoise,,,pinknoise_0.wav,88.89894180126264,30,-0.35423333818398806,3,RX81,4,0.0,0.0,5.0,0,0,6.225806451612904,2.702888011932373
0,,2024-07-22 15:50:29,sub_117,3,distance,cathedral,localisation_accuracy,3,17,pinknoise,,,pinknoise_6.wav,92.04757163084375,30,0.05834767886609016,9,RX81,10,0.0,0.0,11.0,0,0,10.80058651026393,3.218506097793579
0,,2024-07-22 15:50:33,sub_117,3,distance,cathedral,localisation_accuracy,3,18,pinknoise,,,pinknoise_0.wav,91.37409931671294,30,-0.3046461593620515,6,RX81,7,0.0,0.0,8.0,0,0,10.052785923753666,3.421569347381592
0,,2024-07-22 15:50:39,sub_117,3,distance,cathedral,localisation_accuracy,3,19,pinknoise,,,pinknoise_5.wav,87.37441968546355,30,-0.2825488221507747,2,RX81,3,0.0,0.0,4.0,0,0,3.7331378299120237,4.202784299850464
0,,2024-07-22 15:50:43,sub_117,3,distance,cathedral,localisation_accuracy,3,20,pinknoise,,,pinknoise_2.wav,91.66720454350632,30,-0.4876679154059317,8,RX81,9,0.0,0.0,10.0,0,0,10.228739002932553,3.3746979236602783
0,,2024-07-22 15:50:51,sub_117,3,distance,cathedral,localisation_accuracy,3,21,pinknoise,,,pinknoise_1.wav,86.21354606779056,30,0.014179303154881806,1,RX81,2,0.0,0.0,3.0,0,0,3.161290322580646,6.561995029449463
0,,2024-07-22 15:50:55,sub_117,3,distance,cathedral,localisation_accuracy,3,22,pinknoise,,,pinknoise_7.wav,91.46542721312281,30,-0.17551364784883328,6,RX81,7,0.0,0.0,8.0,0,0,9.363636363636365,3.124715566635132
0,,2024-07-22 15:51:01,sub_117,3,distance,cathedral,localisation_accuracy,3,23,pinknoise,,,pinknoise_4.wav,84.06573713942663,30,-0.4939419605087122,0,RX81,1,0.0,0.0,2.0,0,0,3.2785923753665696,4.655878305435181
0,,2024-07-22 15:51:07,sub_117,3,distance,cathedral,localisation_accuracy,3,24,pinknoise,,,pinknoise_6.wav,93.21043986317267,30,0.2972628819885147,10,RX81,11,0.0,0.0,12.0,0,0,10.595307917888563,4.1715147495269775
0,,2024-07-22 15:51:13,sub_117,3,distance,cathedral,localisation_accuracy,3,25,pinknoise,,,pinknoise_6.wav,91.70039763388624,30,-0.052178456038439625,7,RX81,8,0.0,0.0,9.0,0,0,9.686217008797655,5.405803442001343
0,,2024-07-22 15:51:17,sub_117,3,distance,cathedral,localisation_accuracy,3,26,pinknoise,,,pinknoise_6.wav,89.47693372546865,30,0.2187802186855785,4,RX81,5,0.0,0.0,6.0,0,0,8.249266862170089,2.640374183654785
0,,2024-07-22 15:51:22,sub_117,3,distance,cathedral,localisation_accuracy,3,27,pinknoise,,,pinknoise_0.wav,89.29453323874185,30,0.2078467949105438,3,RX81,4,0.0,0.0,5.0,0,0,8.659824046920821,4.312129974365234
0,,2024-07-22 15:51:26,sub_117,3,distance,cathedral,localisation_accuracy,3,28,pinknoise,,,pinknoise_9.wav,90.4727915402219,30,0.18830859158453495,5,RX81,6,0.0,0.0,7.0,0,0,9.466275659824047,2.6716411113739014
0,,2024-07-22 15:51:31,sub_117,3,distance,cathedral,localisation_accuracy,3,29,pinknoise,,,pinknoise_2.wav,85.9948708589462,30,-0.3042333159536348,1,RX81,2,0.0,0.0,3.0,0,0,4.055718475073314,3.1715850830078125
0,,2024-07-22 15:51:35,sub_117,3,distance,cathedral,localisation_accuracy,3,30,pinknoise,,,pinknoise_9.wav,91.91220088547594,30,-0.14525559408489197,8,RX81,9,0.0,0.0,10.0,0,0,7.9560117302052795,3.062238931655884
0,,2024-07-22 15:51:41,sub_117,3,distance,cathedral,localisation_accuracy,3,31,pinknoise,,,pinknoise_1.wav,92.07984256046356,30,0.10383764933544626,9,RX81,10,0.0,0.0,11.0,0,0,9.099706744868035,5.062099456787109
0,,2024-07-22 15:51:47,sub_117,3,distance,cathedral,localisation_accuracy,3,32,pinknoise,,,pinknoise_1.wav,87.58444071185411,30,0.020200737161850002,2,RX81,3,0.0,0.0,4.0,0,0,4.378299120234605,4.780871629714966
0,,2024-07-22 15:51:52,sub_117,3,distance,cathedral,localisation_accuracy,3,33,pinknoise,,,pinknoise_7.wav,91.54567237655085,30,-0.26480062543665084,7,RX81,8,0.0,0.0,9.0,0,0,9.994134897360704,3.7028186321258545
0,,2024-07-22 15:51:56,sub_117,3,distance,cathedral,localisation_accuracy,3,34,pinknoise,,,pinknoise_5.wav,91.34456963210125,30,-0.3462797390497132,6,RX81,7,0.0,0.0,8.0,0,0,10.639296187683286,2.640371561050415
0,,2024-07-22 15:52:00,sub_117,3,distance,cathedral,localisation_accuracy,3,35,pinknoise,,,pinknoise_7.wav,89.49247906582927,30,0.23969632283249886,4,RX81,5,0.0,0.0,6.0,0,0,7.252199413489736,3.077860116958618
0,,2024-07-22 15:52:06,sub_117,3,distance,cathedral,localisation_accuracy,3,36,pinknoise,,,pinknoise_4.wav,84.06960611549744,30,-0.4882847525308375,0,RX81,1,0.0,0.0,2.0,0,0,3.6011730205278596,5.124594449996948
0,,2024-07-22 15:52:11,sub_117,3,distance,cathedral,localisation_accuracy,3,37,pinknoise,,,pinknoise_6.wav,86.33557138235079,30,0.19334198777698808,1,RX81,2,0.0,0.0,3.0,0,0,3.8504398826979473,3.562208890914917
0,,2024-07-22 15:52:16,sub_117,3,distance,cathedral,localisation_accuracy,3,38,pinknoise,,,pinknoise_0.wav,88.80788222783329,30,-0.4821283344759688,3,RX81,4,0.0,0.0,5.0,0,0,6.5043988269794735,3.4684600830078125
0,,2024-07-22 15:52:22,sub_117,3,distance,cathedral,localisation_accuracy,3,39,pinknoise,,,pinknoise_9.wav,90.50143910903054,30,0.22955178980812352,5,RX81,6,0.0,0.0,7.0,0,0,8.58651026392962,5.077700853347778
0,,2024-07-22 15:52:27,sub_117,3,distance,cathedral,localisation_accuracy,3,40,pinknoise,,,pinknoise_0.wav,87.78701091339671,30,0.3151315333270881,2,RX81,3,0.0,0.0,4.0,0,0,5.7272727272727275,4.046545505523682
0,,2024-07-22 15:52:32,sub_117,3,distance,cathedral,localisation_accuracy,3,41,pinknoise,,,pinknoise_9.wav,91.99990798781079,30,-0.008714563277309018,9,RX81,10,0.0,0.0,11.0,0,0,11.357771260997069,3.718423366546631
0,,2024-07-22 15:52:36,sub_117,3,distance,cathedral,localisation_accuracy,3,42,pinknoise,,,pinknoise_1.wav,92.99869504980228,30,-0.0018814770264354852,10,RX81,11,0.0,0.0,12.0,0,0,11.900293255131965,2.390392303466797
0,,2024-07-22 15:52:40,sub_117,3,distance,cathedral,localisation_accuracy,3,43,pinknoise,,,pinknoise_0.wav,91.74558471323166,30,-0.37855144998623624,8,RX81,9,0.0,0.0,10.0,0,0,11.38709677419355,3.1403374671936035
0,,2024-07-22 15:52:45,sub_117,3,distance,cathedral,localisation_accuracy,3,44,pinknoise,,,pinknoise_0.wav,84.322087499811,30,-0.11675243552962278,0,RX81,1,0.0,0.0,2.0,0,0,4.392961876832845,4.21838641166687
0,,2024-07-22 15:52:50,sub_117,3,distance,cathedral,localisation_accuracy,3,45,pinknoise,,,pinknoise_0.wav,93.3426832303252,30,0.4856023025458531,10,RX81,11,0.0,0.0,12.0,0,0,9.920821114369502,3.8903276920318604
0,,2024-07-22 15:52:54,sub_117,3,distance,cathedral,localisation_accuracy,3,46,pinknoise,,,pinknoise_2.wav,87.88740976182018,30,0.4623787521315882,2,RX81,3,0.0,0.0,4.0,0,0,6.563049853372435,2.4372847080230713
0,,2024-07-22 15:52:58,sub_117,3,distance,cathedral,localisation_accuracy,3,47,pinknoise,,,pinknoise_1.wav,91.77430103176894,30,-0.33847330384901964,8,RX81,9,0.0,0.0,10.0,0,0,10.78592375366569,2.7653841972351074
0,,2024-07-22 15:53:01,sub_117,3,distance,cathedral,localisation_accuracy,3,48,pinknoise,,,pinknoise_4.wav,91.39889195896504,30,-0.26964614729247727,6,RX81,7,0.0,0.0,8.0,0,0,11.12316715542522,2.343518018722534
0,,2024-07-22 15:53:07,sub_117,3,distance,cathedral,localisation_accuracy,3,49,pinknoise,,,pinknoise_6.wav,86.22426154322994,30,0.02986954235142547,1,RX81,2,0.0,0.0,3.0,0,0,4.891495601173021,4.3121302127838135
0,,2024-07-22 15:53:12,sub_117,3,distance,cathedral,localisation_accuracy,3,50,pinknoise,,,pinknoise_4.wav,90.44923487281221,30,0.15443680062839082,5,RX81,6,0.0,0.0,7.0,0,0,9.260997067448681,3.5309560298919678
0,,2024-07-22 15:53:15,sub_117,3,distance,cathedral,localisation_accuracy,3,51,pinknoise,,,pinknoise_1.wav,89.167949345451,30,0.026838892643278434,3,RX81,4,0.0,0.0,5.0,0,0,8.337243401759531,1.8436098098754883
0,,2024-07-22 15:53:19,sub_117,3,distance,cathedral,localisation_accuracy,3,52,pinknoise,,,pinknoise_2.wav,89.388268412703,30,0.09975818285323668,4,RX81,5,0.0,0.0,6.0,0,0,9.129032258064516,2.9528520107269287
0,,2024-07-22 15:53:23,sub_117,3,distance,cathedral,localisation_accuracy,3,53,pinknoise,,,pinknoise_9.wav,92.15028465733289,30,0.2033740170328291,9,RX81,10,0.0,0.0,11.0,0,0,10.727272727272728,2.8278582096099854
0,,2024-07-22 15:53:26,sub_117,3,distance,cathedral,localisation_accuracy,3,54,pinknoise,,,pinknoise_5.wav,92.0050959559436,30,0.37099078298176713,7,RX81,8,0.0,0.0,9.0,0,0,11.680351906158359,1.874821424484253
0,,2024-07-22 15:55:13,sub_117,3,distance,cathedral,localisation_accuracy,4,0,pinknoise,,,pinknoise_5.wav,91.54347715634627,30,-0.06471049406165774,6,RX81,7,0.0,0.0,8.0,0,0,8.850439882697948,4.0308997631073
0,,2024-07-22 15:55:17,sub_117,3,distance,cathedral,localisation_accuracy,4,1,pinknoise,,,pinknoise_3.wav,92.06965315901954,30,0.08946696301547108,9,RX81,10,0.0,0.0,11.0,0,0,9.319648093841643,3.1090893745422363
0,,2024-07-22 15:55:20,sub_117,3,distance,cathedral,localisation_accuracy,4,2,pinknoise,,,pinknoise_4.wav,91.44856878612725,30,-0.397467920585297,7,RX81,8,0.0,0.0,9.0,0,0,9.920821114369502,2.046684741973877
0,,2024-07-22 15:55:24,sub_117,3,distance,cathedral,localisation_accuracy,4,3,pinknoise,,,pinknoise_6.wav,89.31017648634602,30,0.23029138725790632,3,RX81,4,0.0,0.0,5.0,0,0,6.475073313782993,2.452888250350952
0,,2024-07-22 15:55:28,sub_117,3,distance,cathedral,localisation_accuracy,4,4,pinknoise,,,pinknoise_1.wav,93.21599990590664,30,0.30515794595710277,10,RX81,11,0.0,0.0,12.0,0,0,10.78592375366569,2.9841179847717285
0,,2024-07-22 15:55:33,sub_117,3,distance,cathedral,localisation_accuracy,4,5,pinknoise,,,pinknoise_9.wav,87.66731250329377,30,0.14050898798250633,2,RX81,3,0.0,0.0,4.0,0,0,5.624633431085044,3.7496907711029053
0,,2024-07-22 15:55:37,sub_117,3,distance,cathedral,localisation_accuracy,4,6,pinknoise,,,pinknoise_0.wav,90.40562949588605,30,0.09183751545530638,5,RX81,6,0.0,0.0,7.0,0,0,8.190615835777127,2.327915668487549
0,,2024-07-22 15:55:40,sub_117,3,distance,cathedral,localisation_accuracy,4,7,pinknoise,,,pinknoise_0.wav,92.33376341056893,30,0.4532546595516005,8,RX81,9,0.0,0.0,10.0,0,0,9.2316715542522,1.9372961521148682
0,,2024-07-22 15:55:44,sub_117,3,distance,cathedral,localisation_accuracy,4,8,pinknoise,,,pinknoise_1.wav,84.70086647602159,30,0.44942027131502316,0,RX81,1,0.0,0.0,2.0,0,0,3.102639296187683,3.2028326988220215
0,,2024-07-22 15:55:48,sub_117,3,distance,cathedral,localisation_accuracy,4,9,pinknoise,,,pinknoise_6.wav,89.51669551518063,30,0.2723081657852068,4,RX81,5,0.0,0.0,6.0,0,0,7.472140762463344,2.8122575283050537
0,,2024-07-22 15:55:53,sub_117,3,distance,cathedral,localisation_accuracy,4,10,pinknoise,,,pinknoise_6.wav,86.30987107752023,30,0.15551903285389534,1,RX81,2,0.0,0.0,3.0,0,0,3.9237536656891496,3.421570062637329
0,,2024-07-22 15:55:57,sub_117,3,distance,cathedral,localisation_accuracy,4,11,pinknoise,,,pinknoise_1.wav,89.0138177836449,30,-0.39774613873853126,4,RX81,5,0.0,0.0,6.0,0,0,7.0469208211143695,3.0309698581695557
0,,2024-07-22 15:56:00,sub_117,3,distance,cathedral,localisation_accuracy,4,12,pinknoise,,,pinknoise_8.wav,87.25512776455844,30,-0.45314893777175025,2,RX81,3,0.0,0.0,4.0,0,0,5.434017595307918,1.9529433250427246
0,,2024-07-22 15:56:03,sub_117,3,distance,cathedral,localisation_accuracy,4,13,pinknoise,,,pinknoise_1.wav,92.33561106547486,30,0.46681941532142457,9,RX81,10,0.0,0.0,11.0,0,0,9.51026392961877,2.2653985023498535
0,,2024-07-22 15:56:08,sub_117,3,distance,cathedral,localisation_accuracy,4,14,pinknoise,,,pinknoise_3.wav,91.82714490779733,30,0.3414749844139444,6,RX81,7,0.0,0.0,8.0,0,0,9.700879765395895,3.4997103214263916
0,,2024-07-22 15:56:13,sub_117,3,distance,cathedral,localisation_accuracy,4,15,pinknoise,,,pinknoise_2.wav,91.90658045987146,30,0.23352103633305643,7,RX81,8,0.0,0.0,9.0,0,0,10.521994134897362,3.859036684036255
0,,2024-07-22 15:56:16,sub_117,3,distance,cathedral,localisation_accuracy,4,16,pinknoise,,,pinknoise_1.wav,93.23389927922263,30,0.33058839806424933,10,RX81,11,0.0,0.0,12.0,0,0,11.020527859237538,1.7966828346252441
0,,2024-07-22 15:56:21,sub_117,3,distance,cathedral,localisation_accuracy,4,17,pinknoise,,,pinknoise_1.wav,84.6036078105891,30,0.303029216031111,0,RX81,1,0.0,0.0,2.0,0,0,3.2785923753665696,3.9371776580810547
0,,2024-07-22 15:56:25,sub_117,3,distance,cathedral,localisation_accuracy,4,18,pinknoise,,,pinknoise_5.wav,90.13678687918645,30,-0.2912490492657366,5,RX81,6,0.0,0.0,7.0,0,0,7.0175953079178885,2.6091270446777344
0,,2024-07-22 15:56:28,sub_117,3,distance,cathedral,localisation_accuracy,4,19,pinknoise,,,pinknoise_7.wav,86.12782417606599,30,-0.11104505650161833,1,RX81,2,0.0,0.0,3.0,0,0,5.038123167155426,1.9841699600219727
0,,2024-07-22 15:56:32,sub_117,3,distance,cathedral,localisation_accuracy,4,20,pinknoise,,,pinknoise_4.wav,89.01575136510361,30,-0.1893602811444055,3,RX81,4,0.0,0.0,5.0,0,0,6.724340175953079,2.7184908390045166
0,,2024-07-22 15:56:36,sub_117,3,distance,cathedral,localisation_accuracy,4,21,pinknoise,,,pinknoise_0.wav,92.25256001535732,30,0.33704108699020685,8,RX81,9,0.0,0.0,10.0,0,0,8.850439882697948,2.2966456413269043
0,,2024-07-22 15:56:40,sub_117,3,distance,cathedral,localisation_accuracy,4,22,pinknoise,,,pinknoise_4.wav,87.43288445487627,30,-0.1985786657714501,2,RX81,3,0.0,0.0,4.0,0,0,4.627565982404692,2.9372267723083496
0,,2024-07-22 15:56:44,sub_117,3,distance,cathedral,localisation_accuracy,4,23,pinknoise,,,pinknoise_7.wav,91.81659013325684,30,0.3262632818726807,6,RX81,7,0.0,0.0,8.0,0,0,10.023460410557185,3.4371912479400635
0,,2024-07-22 15:56:47,sub_117,3,distance,cathedral,localisation_accuracy,4,24,pinknoise,,,pinknoise_9.wav,90.16312844524916,30,-0.2539302296686132,5,RX81,6,0.0,0.0,7.0,0,0,8.0,1.9997923374176025
0,,2024-07-22 15:56:52,sub_117,3,distance,cathedral,localisation_accuracy,4,25,pinknoise,,,pinknoise_3.wav,92.21662996604935,30,0.2857617196890144,8,RX81,9,0.0,0.0,10.0,0,0,10.536656891495602,3.5153112411499023
0,,2024-07-22 15:56:55,sub_117,3,distance,cathedral,localisation_accuracy,4,26,pinknoise,,,pinknoise_4.wav,91.90780714585921,30,0.23522893762270258,7,RX81,8,0.0,0.0,9.0,0,0,11.064516129032258,2.0779144763946533
0,,2024-07-22 15:56:59,sub_117,3,distance,cathedral,localisation_accuracy,4,27,pinknoise,,,pinknoise_4.wav,92.3429070537942,30,0.4772376982276848,9,RX81,10,0.0,0.0,11.0,0,0,11.10850439882698,2.2810211181640625
0,,2024-07-22 15:57:04,sub_117,3,distance,cathedral,localisation_accuracy,4,28,pinknoise,,,pinknoise_1.wav,84.67283763463435,30,0.40715964774024627,0,RX81,1,0.0,0.0,2.0,0,0,2.868035190615836,3.6090753078460693
0,,2024-07-22 15:57:07,sub_117,3,distance,cathedral,localisation_accuracy,4,29,pinknoise,,,pinknoise_7.wav,88.97056170848343,30,-0.45468480046132365,4,RX81,5,0.0,0.0,6.0,0,0,8.542521994134898,2.234149217605591
0,,2024-07-22 15:57:12,sub_117,3,distance,cathedral,localisation_accuracy,4,30,pinknoise,,,pinknoise_0.wav,89.48873421058985,30,0.4876667337891194,3,RX81,4,0.0,0.0,5.0,0,0,7.545454545454547,4.299063444137573
0,,2024-07-22 15:57:16,sub_117,3,distance,cathedral,localisation_accuracy,4,31,pinknoise,,,pinknoise_1.wav,86.25773914265966,30,0.0789423057892853,1,RX81,2,0.0,0.0,3.0,0,0,4.715542521994135,2.687243938446045
0,,2024-07-22 15:57:22,sub_117,3,distance,cathedral,localisation_accuracy,4,32,pinknoise,,,pinknoise_1.wav,93.24739610854016,30,0.34977806731839,10,RX81,11,0.0,0.0,12.0,0,0,10.82991202346041,4.530929088592529
0,,2024-07-22 15:57:27,sub_117,3,distance,cathedral,localisation_accuracy,4,33,pinknoise,,,pinknoise_9.wav,84.17543562356174,30,-0.333119769315141,0,RX81,1,0.0,0.0,2.0,0,0,3.454545454545455,3.7340738773345947
0,,2024-07-22 15:57:31,sub_117,3,distance,cathedral,localisation_accuracy,4,34,pinknoise,,,pinknoise_8.wav,87.68142719701342,30,0.16104784539450234,2,RX81,3,0.0,0.0,4.0,0,0,3.8797653958944283,2.7341361045837402
0,,2024-07-22 15:57:35,sub_117,3,distance,cathedral,localisation_accuracy,4,35,pinknoise,,,pinknoise_8.wav,85.96627352236501,30,-0.3456233180507584,1,RX81,2,0.0,0.0,3.0,0,0,3.674486803519062,3.4371938705444336
0,,2024-07-22 15:57:39,sub_117,3,distance,cathedral,localisation_accuracy,4,36,pinknoise,,,pinknoise_6.wav,90.28875940486708,30,-0.07529944140161438,5,RX81,6,0.0,0.0,7.0,0,0,6.43108504398827,2.546628475189209
0,,2024-07-22 15:57:43,sub_117,3,distance,cathedral,localisation_accuracy,4,37,pinknoise,,,pinknoise_0.wav,89.22706588214048,30,0.11123685685302886,3,RX81,4,0.0,0.0,5.0,0,0,6.782991202346041,3.0622200965881348
0,,2024-07-22 15:57:47,sub_117,3,distance,cathedral,localisation_accuracy,4,38,pinknoise,,,pinknoise_4.wav,91.88377072564231,30,0.2017808660484447,7,RX81,8,0.0,0.0,9.0,0,0,9.378299120234605,2.562252998352051
0,,2024-07-22 15:57:50,sub_117,3,distance,cathedral,localisation_accuracy,4,39,pinknoise,,,pinknoise_4.wav,93.16037071617416,30,0.226259057988917,10,RX81,11,0.0,0.0,12.0,0,0,10.624633431085044,1.9841892719268799
0,,2024-07-22 15:57:54,sub_117,3,distance,cathedral,localisation_accuracy,4,40,pinknoise,,,pinknoise_0.wav,92.2571524191809,30,0.35500946493706786,9,RX81,10,0.0,0.0,11.0,0,0,11.152492668621703,2.7028892040252686
0,,2024-07-22 15:57:59,sub_117,3,distance,cathedral,localisation_accuracy,4,41,pinknoise,,,pinknoise_1.wav,91.6221038752191,30,0.04732770706441347,6,RX81,7,0.0,0.0,8.0,0,0,11.651026392961878,3.8590571880340576
0,,2024-07-22 15:58:03,sub_117,3,distance,cathedral,localisation_accuracy,4,42,pinknoise,,,pinknoise_4.wav,91.8130108745301,30,-0.28436179033832,8,RX81,9,0.0,0.0,10.0,0,0,10.844574780058652,2.20290207862854
0,,2024-07-22 15:58:08,sub_117,3,distance,cathedral,localisation_accuracy,4,43,pinknoise,,,pinknoise_4.wav,89.22915903898357,30,-0.11265195539022654,4,RX81,5,0.0,0.0,6.0,0,0,9.671554252199414,4.015300750732422
0,,2024-07-22 15:58:11,sub_117,3,distance,cathedral,localisation_accuracy,4,44,pinknoise,,,pinknoise_8.wav,91.80225425063821,30,0.30561440162150777,6,RX81,7,0.0,0.0,8.0,0,0,10.873900293255133,2.3591439723968506
0,,2024-07-22 15:58:17,sub_117,3,distance,cathedral,localisation_accuracy,4,45,pinknoise,,,pinknoise_9.wav,86.35553450992668,30,0.22275431357190278,1,RX81,2,0.0,0.0,3.0,0,0,3.7184750733137832,4.265279531478882
0,,2024-07-22 15:58:20,sub_117,3,distance,cathedral,localisation_accuracy,4,46,pinknoise,,,pinknoise_6.wav,91.9090911392382,30,-0.13607905384754604,9,RX81,10,0.0,0.0,11.0,0,0,10.360703812316716,2.5622527599334717
0,,2024-07-22 15:58:24,sub_117,3,distance,cathedral,localisation_accuracy,4,47,pinknoise,,,pinknoise_0.wav,92.34888501884635,30,0.47494494399628984,8,RX81,9,0.0,0.0,10.0,0,0,11.167155425219942,2.5935211181640625
0,,2024-07-22 15:58:28,sub_117,3,distance,cathedral,localisation_accuracy,4,48,pinknoise,,,pinknoise_8.wav,87.46475964263814,30,-0.15269795549346077,2,RX81,3,0.0,0.0,4.0,0,0,7.1788856304985345,2.9997241497039795
0,,2024-07-22 15:58:34,sub_117,3,distance,cathedral,localisation_accuracy,4,49,pinknoise,,,pinknoise_5.wav,91.43065583146705,30,-0.42187665960815546,7,RX81,8,0.0,0.0,9.0,0,0,11.372434017595308,3.921534538269043
0,,2024-07-22 15:58:41,sub_117,3,distance,cathedral,localisation_accuracy,4,50,pinknoise,,,pinknoise_7.wav,92.68459006065888,30,-0.4402042420154012,10,RX81,11,0.0,0.0,12.0,0,0,11.695014662756599,6.468249797821045
0,,2024-07-22 15:58:45,sub_117,3,distance,cathedral,localisation_accuracy,4,51,pinknoise,,,pinknoise_2.wav,89.46260639755837,30,0.4498693588005591,3,RX81,4,0.0,0.0,5.0,0,0,7.6334310850439895,2.406038522720337
0,,2024-07-22 15:58:48,sub_117,3,distance,cathedral,localisation_accuracy,4,52,pinknoise,,,pinknoise_2.wav,90.47881881341935,30,0.19698123159273095,5,RX81,6,0.0,0.0,7.0,0,0,8.439882697947215,1.7966830730438232
0,,2024-07-22 15:58:52,sub_117,3,distance,cathedral,localisation_accuracy,4,53,pinknoise,,,pinknoise_6.wav,89.21816392418759,30,-0.1272748805796483,4,RX81,5,0.0,0.0,6.0,0,0,10.243401759530792,3.2497260570526123
0,,2024-07-22 15:58:57,sub_117,3,distance,cathedral,localisation_accuracy,4,54,pinknoise,,,pinknoise_2.wav,84.49980380217127,30,0.1475626495549187,0,RX81,1,0.0,0.0,2.0,0,0,3.6011730205278596,3.4215898513793945
