,event_id,subject_id,timestamp,session_index,plane,setup,task,block,trial_index,stim_number,stim_type,stim_country_ids,stim_sexes,stim_talker_ids,speaker_ids,stim_level,resp_number,is_correct,speaker_distance_mean,speaker_distance_st_dev,reaction_time,spectral_coverage
0,,sub_101,2024-07-10 15:45:06,3,distance,cathedral,numerosity_judgement,1,0,6,countries_forward,"['_Sudan_', '_Yemen_', '_Oman_', '_Tonga_', '_Belgium_', '_Peru_']","['m', 'm', 'f', 'f', 'f', 'f']","['p307', 'p256', 'p248', 'p284', 'p245', 'p268']","[2, 7, 3, 0, 4, 10]","[87.57049330475357, 91.73820004985969, 89.14911522239515, 84.40078082039426, 89.31368318402099, 93.00003341222717]",3.0,False,6.333333333333333,3.6147844564602556,41.62216544151306,0.765531721711497
0,,sub_101,2024-07-10 15:45:12,3,distance,cathedral,numerosity_judgement,1,1,5,countries_forward,"['_Togo_', '_Belgium_', '_Cuba_', '_Mali_', '_Britain_']","['m', 'm', 'm', 'm', 'f']","['p318', 'p307', 'p229', 'p256', 'p248']","[2, 4, 1, 10, 9]","[87.57049330475357, 89.31368318402099, 86.2038576498559, 93.00003341222717, 92.00610777531934]",3.0,False,7.2,4.08656334834051,3.624753475189209,0.8491658154579503
0,,sub_101,2024-07-10 15:45:16,3,distance,cathedral,numerosity_judgement,1,2,3,countries_forward,"['_Togo_', '_Yemen_', '_Congo_']","['m', 'f', 'm']","['p307', 'p245', 'p256']","[3, 0, 6]","[89.14911522239515, 84.40078082039426, 91.58892582949886]",2.0,False,5.0,3.0,2.2498481273651123,0.8104868913857678
0,,sub_101,2024-07-10 15:45:19,3,distance,cathedral,numerosity_judgement,1,3,2,countries_forward,"['_Congo_', '_Yemen_']","['m', 'm']","['p307', 'p318']","[6, 7]","[91.58892582949886, 91.73820004985969]",2.0,True,8.5,0.7071067811865476,1.6873250007629395,0.7260696856202474
0,,sub_101,2024-07-10 15:45:22,3,distance,cathedral,numerosity_judgement,1,4,4,countries_forward,"['_Syria_', '_Cuba_', '_Japan_', '_Yemen_']","['m', 'f', 'm', 'f']","['p229', 'p284', 'p318', 'p248']","[8, 10, 5, 3]","[92.0152836843556, 93.00003341222717, 90.34149293193902, 89.14911522239515]",3.0,False,8.5,3.1091263510296048,1.7498807907104492,0.8313017818635796
0,,sub_101,2024-07-10 15:45:27,3,distance,cathedral,numerosity_judgement,1,5,6,countries_forward,"['_Cuba_', '_Congo_', '_Togo_', '_Yemen_', '_Mali_', '_Peru_']","['m', 'f', 'f', 'f', 'm', 'f']","['p307', 'p245', 'p268', 'p248', 'p256', 'p284']","[4, 2, 10, 3, 6, 8]","[89.31368318402099, 87.57049330475357, 93.00003341222717, 89.14911522239515, 91.58892582949886, 92.0152836843556]",3.0,False,7.5,3.082207001484488,2.9997973442077637,0.721632050845534
0,,sub_101,2024-07-10 15:45:31,3,distance,cathedral,numerosity_judgement,1,6,3,countries_forward,"['_Belgium_', '_Britain_', '_Syria_']","['m', 'f', 'f']","['p318', 'p268', 'p284']","[6, 2, 1]","[91.58892582949886, 87.57049330475357, 86.2038576498559]",2.0,False,5.0,2.6457513110645907,2.5623257160186768,0.9452162070139598
0,,sub_101,2024-07-10 15:45:34,3,distance,cathedral,numerosity_judgement,1,7,2,countries_forward,"['_Tonga_', '_Cuba_']","['m', 'f']","['p229', 'p248']","[3, 2]","[89.14911522239515, 87.57049330475357]",2.0,True,4.5,0.7071067811865476,1.249908685684204,0.8066053796390875
0,,sub_101,2024-07-10 15:45:37,3,distance,cathedral,numerosity_judgement,1,8,4,countries_forward,"['_Cuba_', '_Yemen_', '_Congo_', '_Oman_']","['m', 'f', 'f', 'f']","['p307', 'p268', 'p245', 'p248']","[7, 8, 4, 3]","[91.73820004985969, 92.0152836843556, 89.31368318402099, 89.14911522239515]",3.0,False,7.5,2.3804761428476167,1.5623931884765625,0.629043241402792
0,,sub_101,2024-07-10 15:45:41,3,distance,cathedral,numerosity_judgement,1,9,5,countries_forward,"['_Cuba_', '_Congo_', '_Oman_', '_Peru_', '_Sudan_']","['f', 'm', 'f', 'm', 'm']","['p268', 'p229', 'p245', 'p307', 'p318']","[3, 10, 9, 8, 5]","[89.14911522239515, 93.00003341222717, 92.00610777531934, 92.0152836843556, 90.34149293193902]",3.0,False,9.0,2.9154759474226504,1.8748726844787598,0.7561116785835887
0,,sub_101,2024-07-10 15:45:45,3,distance,cathedral,numerosity_judgement,1,10,2,countries_forward,"['_Yemen_', '_Mali_']","['f', 'f']","['p245', 'p248']","[1, 10]","[86.2038576498559, 93.00003341222717]",2.0,True,7.5,6.363961030678928,1.9998643398284912,0.7477017364657814
0,,sub_101,2024-07-10 15:45:49,3,distance,cathedral,numerosity_judgement,1,11,3,countries_forward,"['_Yemen_', '_Belgium_', '_Sudan_']","['m', 'm', 'm']","['p318', 'p229', 'p307']","[3, 2, 8]","[89.14911522239515, 87.57049330475357, 92.0152836843556]",2.0,False,6.333333333333333,3.2145502536643185,3.24977970123291,0.8669731018045624
0,,sub_101,2024-07-10 15:45:53,3,distance,cathedral,numerosity_judgement,1,12,6,countries_forward,"['_Belgium_', '_Sudan_', '_Cuba_', '_Oman_', '_Tonga_', '_Syria_']","['m', 'f', 'm', 'm', 'f', 'm']","['p318', 'p268', 'p229', 'p307', 'p248', 'p256']","[4, 9, 0, 2, 6, 5]","[89.31368318402099, 92.00610777531934, 84.40078082039426, 87.57049330475357, 91.58892582949886, 90.34149293193902]",3.0,False,6.333333333333333,3.141125063837266,1.8748724460601807,0.9350130518669844
0,,sub_101,2024-07-10 15:45:57,3,distance,cathedral,numerosity_judgement,1,13,5,countries_forward,"['_Oman_', '_Peru_', '_Mali_', '_Yemen_', '_Belgium_']","['f', 'f', 'm', 'm', 'f']","['p248', 'p284', 'p307', 'p256', 'p268']","[6, 7, 5, 10, 8]","[91.58892582949886, 91.73820004985969, 90.34149293193902, 93.00003341222717, 92.0152836843556]",3.0,False,9.2,1.9235384061671346,1.3749067783355713,0.6961298377028714
0,,sub_101,2024-07-10 15:46:00,3,distance,cathedral,numerosity_judgement,1,14,4,countries_forward,"['_Oman_', '_Mali_', '_Yemen_', '_Britain_']","['f', 'f', 'm', 'f']","['p248', 'p268', 'p256', 'p245']","[3, 6, 9, 7]","[89.14911522239515, 91.58892582949886, 92.00610777531934, 91.73820004985969]",3.0,False,8.25,2.5,1.7498815059661865,0.6700034048348655
0,,sub_101,2024-07-10 15:46:04,3,distance,cathedral,numerosity_judgement,1,15,2,countries_forward,"['_Yemen_', '_Congo_']","['m', 'm']","['p256', 'p229']","[5, 1]","[90.34149293193902, 86.2038576498559]",2.0,True,5.0,2.8284271247461903,2.06235933303833,0.6832255135625922
0,,sub_101,2024-07-10 15:46:07,3,distance,cathedral,numerosity_judgement,1,16,6,countries_forward,"['_Congo_', '_Cuba_', '_Tonga_', '_Britain_', '_Peru_', '_Mali_']","['m', 'm', 'f', 'f', 'm', 'm']","['p229', 'p307', 'p248', 'p268', 'p318', 'p256']","[5, 7, 4, 8, 0, 1]","[90.34149293193902, 91.73820004985969, 89.31368318402099, 92.0152836843556, 84.40078082039426, 86.2038576498559]",3.0,False,6.166666666666667,3.188521078284832,1.3123466968536377,0.7363863352627398
0,,sub_101,2024-07-10 15:46:11,3,distance,cathedral,numerosity_judgement,1,17,5,countries_forward,"['_Syria_', '_Mali_', '_Cuba_', '_Japan_', '_Yemen_']","['f', 'm', 'm', 'f', 'm']","['p248', 'p318', 'p256', 'p268', 'p307']","[1, 4, 9, 3, 0]","[86.2038576498559, 89.31368318402099, 92.00610777531934, 89.14911522239515, 84.40078082039426]",3.0,False,5.4,3.5071355833500366,2.1248538494110107,0.8955283168766315
0,,sub_101,2024-07-10 15:46:15,3,distance,cathedral,numerosity_judgement,1,18,4,countries_forward,"['_Britain_', '_Oman_', '_Japan_', '_Yemen_']","['m', 'm', 'm', 'm']","['p318', 'p256', 'p307', 'p229']","[5, 8, 3, 9]","[90.34149293193902, 92.0152836843556, 89.14911522239515, 92.00610777531934]",2.0,False,8.25,2.753785273643051,2.05029296875,0.7369084099421178
0,,sub_101,2024-07-10 15:46:18,3,distance,cathedral,numerosity_judgement,1,19,3,countries_forward,"['_Japan_', '_Syria_', '_Mali_']","['m', 'm', 'f']","['p229', 'p256', 'p245']","[0, 3, 10]","[84.40078082039426, 89.14911522239515, 93.00003341222717]",3.0,True,6.333333333333333,5.131601439446884,1.7498807907104492,0.8845874475087958
0,,sub_101,2024-07-10 15:46:22,3,distance,cathedral,numerosity_judgement,1,20,4,countries_forward,"['_Cuba_', '_Britain_', '_Peru_', '_Belgium_']","['m', 'f', 'f', 'm']","['p318', 'p245', 'p248', 'p256']","[7, 2, 5, 6]","[91.73820004985969, 87.57049330475357, 90.34149293193902, 91.58892582949886]",3.0,False,7.0,2.160246899469287,1.9373679161071777,0.8557484961979344
0,,sub_101,2024-07-10 15:46:26,3,distance,cathedral,numerosity_judgement,1,21,5,countries_forward,"['_Sudan_', '_Togo_', '_Britain_', '_Oman_', '_Cuba_']","['m', 'm', 'f', 'f', 'f']","['p256', 'p307', 'p284', 'p268', 'p245']","[4, 10, 8, 3, 6]","[89.31368318402099, 93.00003341222717, 92.0152836843556, 89.14911522239515, 91.58892582949886]",3.0,False,8.2,2.8635642126552705,1.4998977184295654,0.790160027238679
0,,sub_101,2024-07-10 15:46:29,3,distance,cathedral,numerosity_judgement,1,22,3,countries_forward,"['_Oman_', '_Mali_', '_Belgium_']","['m', 'm', 'f']","['p256', 'p307', 'p284']","[6, 5, 8]","[91.58892582949886, 90.34149293193902, 92.0152836843556]",2.0,False,8.333333333333334,1.5275252316519468,2.0623581409454346,0.7623425263874702
0,,sub_101,2024-07-10 15:48:28,3,distance,cathedral,numerosity_judgement,1,23,2,countries_forward,"['_Oman_', '_Yemen_']","['m', 'f']","['p307', 'p268']","[5, 6]","[90.34149293193902, 91.58892582949886]",2.0,True,7.5,0.7071067811865476,117.67948484420776,0.6137328339575531
0,,sub_101,2024-07-10 15:48:32,3,distance,cathedral,numerosity_judgement,1,24,6,countries_forward,"['_Peru_', '_Sudan_', '_Britain_', '_Togo_', '_Congo_', '_Mali_']","['m', 'm', 'm', 'f', 'f', 'f']","['p229', 'p256', 'p307', 'p248', 'p284', 'p245']","[5, 2, 8, 1, 3, 6]","[90.34149293193902, 87.57049330475357, 92.0152836843556, 86.2038576498559, 89.14911522239515, 91.58892582949886]",3.0,False,6.166666666666667,2.6394443859772205,1.999863862991333,0.89812734082397
0,,sub_101,2024-07-10 15:48:36,3,distance,cathedral,numerosity_judgement,1,25,3,countries_forward,"['_Cuba_', '_Oman_', '_Peru_']","['m', 'f', 'm']","['p307', 'p284', 'p229']","[7, 4, 8]","[91.73820004985969, 89.31368318402099, 92.0152836843556]",2.0,False,8.333333333333334,2.0816659994661326,1.8123672008514404,0.7465554420610601
0,,sub_101,2024-07-10 15:48:39,3,distance,cathedral,numerosity_judgement,1,26,2,countries_forward,"['_Mali_', '_Oman_']","['m', 'm']","['p307', 'p256']","[5, 7]","[90.34149293193902, 91.73820004985969]",2.0,True,8.0,1.4142135623730951,1.4998984336853027,0.5621949835432981
0,,sub_101,2024-07-10 15:48:42,3,distance,cathedral,numerosity_judgement,1,27,4,countries_forward,"['_Syria_', '_Togo_', '_Cuba_', '_Mali_']","['m', 'f', 'f', 'm']","['p229', 'p248', 'p284', 'p318']","[1, 2, 4, 5]","[86.2038576498559, 87.57049330475357, 89.31368318402099, 90.34149293193902]",3.0,False,5.0,1.8257418583505538,1.624889612197876,0.9583248212461696
0,,sub_101,2024-07-10 15:48:46,3,distance,cathedral,numerosity_judgement,1,28,5,countries_forward,"['_Yemen_', '_Peru_', '_Syria_', '_Congo_', '_Japan_']","['f', 'm', 'm', 'f', 'm']","['p248', 'p318', 'p229', 'p245', 'p256']","[10, 7, 5, 1, 4]","[93.00003341222717, 91.73820004985969, 90.34149293193902, 86.2038576498559, 89.31368318402099]",4.0,False,7.4,3.361547262794322,1.4374020099639893,0.811826126432868
0,,sub_101,2024-07-10 15:48:49,3,distance,cathedral,numerosity_judgement,1,29,6,countries_forward,"['_Britain_', '_Oman_', '_Belgium_', '_Tonga_', '_Mali_', '_Togo_']","['m', 'f', 'm', 'f', 'm', 'm']","['p229', 'p245', 'p307', 'p268', 'p256', 'p318']","[3, 10, 6, 5, 0, 1]","[89.14911522239515, 93.00003341222717, 91.58892582949886, 90.34149293193902, 84.40078082039426, 86.2038576498559]",3.0,False,6.166666666666667,3.65604522218567,1.624889850616455,0.863250482351606
0,,sub_101,2024-07-10 15:48:52,3,distance,cathedral,numerosity_judgement,1,30,2,countries_forward,"['_Yemen_', '_Peru_']","['f', 'm']","['p248', 'p307']","[9, 8]","[92.00610777531934, 92.0152836843556]",2.0,True,10.5,0.7071067811865476,1.6248893737792969,0.6967881057768698
0,,sub_101,2024-07-10 15:48:56,3,distance,cathedral,numerosity_judgement,1,31,5,countries_forward,"['_Congo_', '_Peru_', '_Oman_', '_Togo_', '_Yemen_']","['f', 'm', 'm', 'm', 'm']","['p268', 'p318', 'p256', 'p307', 'p229']","[2, 3, 10, 1, 7]","[87.57049330475357, 89.14911522239515, 93.00003341222717, 86.2038576498559, 91.73820004985969]",3.0,False,6.6,3.7815340802378072,1.8123753070831299,0.7046759732152991
0,,sub_101,2024-07-10 15:49:00,3,distance,cathedral,numerosity_judgement,1,32,4,countries_forward,"['_Syria_', '_Togo_', '_Japan_', '_Peru_']","['f', 'm', 'f', 'm']","['p268', 'p256', 'p284', 'p307']","[3, 1, 8, 4]","[89.14911522239515, 86.2038576498559, 92.0152836843556, 89.31368318402099]",3.0,False,6.0,2.943920288775949,1.8123760223388672,0.941504937010555
0,,sub_101,2024-07-10 15:49:04,3,distance,cathedral,numerosity_judgement,1,33,6,countries_forward,"['_Japan_', '_Togo_', '_Britain_', '_Yemen_', '_Cuba_', '_Syria_']","['m', 'f', 'm', 'f', 'm', 'm']","['p318', 'p284', 'p307', 'p248', 'p256', 'p229']","[6, 1, 8, 5, 4, 3]","[91.58892582949886, 86.2038576498559, 92.0152836843556, 90.34149293193902, 89.31368318402099, 89.14911522239515]",4.0,False,6.5,2.4289915602982237,1.8748712539672852,0.8146180910225854
0,,sub_101,2024-07-10 15:49:07,3,distance,cathedral,numerosity_judgement,1,34,3,countries_forward,"['_Yemen_', '_Oman_', '_Japan_']","['m', 'f', 'm']","['p256', 'p268', 'p318']","[9, 5, 6]","[92.00610777531934, 90.34149293193902, 91.58892582949886]",2.0,False,8.666666666666666,2.0816659994661326,1.9373624324798584,0.8420951083872432
0,,sub_101,2024-07-10 15:49:10,3,distance,cathedral,numerosity_judgement,1,35,2,countries_forward,"['_Congo_', '_Sudan_']","['m', 'f']","['p318', 'p268']","[1, 4]","[86.2038576498559, 89.31368318402099]",2.0,True,4.5,2.1213203435596424,1.437401294708252,0.9608784473953014
0,,sub_101,2024-07-10 15:49:14,3,distance,cathedral,numerosity_judgement,1,36,6,countries_forward,"['_Peru_', '_Mali_', '_Cuba_', '_Britain_', '_Sudan_', '_Congo_']","['f', 'm', 'm', 'm', 'f', 'f']","['p248', 'p318', 'p229', 'p307', 'p284', 'p268']","[1, 5, 2, 0, 7, 9]","[86.2038576498559, 90.34149293193902, 87.57049330475357, 84.40078082039426, 91.73820004985969, 92.00610777531934]",3.0,False,6.0,3.5777087639996634,1.6873843669891357,0.9599477925320622
0,,sub_101,2024-07-10 15:49:17,3,distance,cathedral,numerosity_judgement,1,37,5,countries_forward,"['_Peru_', '_Congo_', '_Britain_', '_Cuba_', '_Syria_']","['m', 'f', 'm', 'f', 'f']","['p307', 'p245', 'p256', 'p268', 'p248']","[5, 2, 4, 3, 0]","[90.34149293193902, 87.57049330475357, 89.31368318402099, 89.14911522239515, 84.40078082039426]",3.0,False,4.8,1.9235384061671346,1.4374020099639893,0.744909771876064
0,,sub_101,2024-07-10 15:49:21,3,distance,cathedral,numerosity_judgement,1,38,3,countries_forward,"['_Togo_', '_Yemen_', '_Congo_']","['m', 'f', 'm']","['p229', 'p245', 'p256']","[0, 3, 8]","[84.40078082039426, 89.14911522239515, 92.0152836843556]",2.0,False,5.666666666666667,4.041451884327381,2.249846935272217,0.6506639427987743
0,,sub_101,2024-07-10 15:49:24,3,distance,cathedral,numerosity_judgement,1,39,4,countries_forward,"['_Yemen_', '_Oman_', '_Mali_', '_Britain_']","['m', 'f', 'm', 'm']","['p318', 'p268', 'p256', 'p307']","[5, 3, 2, 8]","[90.34149293193902, 89.14911522239515, 87.57049330475357, 92.0152836843556]",3.0,False,6.5,2.6457513110645907,1.6248893737792969,0.6913517194416071
0,,sub_101,2024-07-10 15:49:28,3,distance,cathedral,numerosity_judgement,1,40,6,countries_forward,"['_Yemen_', '_Tonga_', '_Mali_', '_Cuba_', '_Togo_', '_Congo_']","['m', 'f', 'f', 'm', 'm', 'f']","['p318', 'p268', 'p248', 'p307', 'p256', 'p245']","[5, 3, 10, 7, 2, 4]","[90.34149293193902, 89.14911522239515, 93.00003341222717, 91.73820004985969, 87.57049330475357, 89.31368318402099]",3.0,False,7.166666666666667,2.9268868558020253,1.6873853206634521,0.6946544092611509
0,,sub_101,2024-07-10 15:49:31,3,distance,cathedral,numerosity_judgement,1,41,3,countries_forward,"['_Cuba_', '_Japan_', '_Britain_']","['f', 'f', 'f']","['p268', 'p284', 'p248']","[9, 6, 0]","[92.00610777531934, 91.58892582949886, 84.40078082039426]",2.0,False,7.0,4.58257569495584,1.6248891353607178,0.9087277267052548
0,,sub_101,2024-07-10 15:49:36,3,distance,cathedral,numerosity_judgement,1,42,4,countries_forward,"['_Peru_', '_Britain_', '_Cuba_', '_Oman_']","['f', 'm', 'm', 'f']","['p245', 'p229', 'p307', 'p284']","[5, 0, 4, 1]","[90.34149293193902, 84.40078082039426, 89.31368318402099, 86.2038576498559]",3.0,False,4.5,2.3804761428476167,2.4998295307159424,0.7812734082397004
0,,sub_101,2024-07-10 15:49:39,3,distance,cathedral,numerosity_judgement,1,43,2,countries_forward,"['_Congo_', '_Syria_']","['f', 'm']","['p248', 'p318']","[3, 7]","[89.14911522239515, 91.73820004985969]",2.0,True,7.0,2.8284271247461903,1.5623934268951416,0.8557144478492793
0,,sub_101,2024-07-10 15:49:42,3,distance,cathedral,numerosity_judgement,1,44,5,countries_forward,"['_Japan_', '_Britain_', '_Mali_', '_Syria_', '_Tonga_']","['f', 'f', 'm', 'm', 'm']","['p284', 'p268', 'p318', 'p307', 'p256']","[10, 2, 7, 6, 9]","[93.00003341222717, 87.57049330475357, 91.73820004985969, 91.58892582949886, 92.00610777531934]",3.0,False,8.8,3.1144823004794873,1.5623934268951416,0.8605720122574055
0,,sub_101,2024-07-10 15:49:46,3,distance,cathedral,numerosity_judgement,1,45,4,countries_forward,"['_Tonga_', '_Japan_', '_Mali_', '_Oman_']","['f', 'm', 'f', 'm']","['p284', 'p318', 'p245', 'p229']","[4, 1, 0, 8]","[89.31368318402099, 86.2038576498559, 84.40078082039426, 92.0152836843556]",3.0,False,5.25,3.593976442141304,2.4998302459716797,0.8653501305186698
0,,sub_101,2024-07-10 15:49:49,3,distance,cathedral,numerosity_judgement,1,46,5,countries_forward,"['_Togo_', '_Sudan_', '_Peru_', '_Oman_', '_Yemen_']","['m', 'f', 'm', 'f', 'f']","['p229', 'p245', 'p307', 'p268', 'p284']","[10, 7, 9, 0, 6]","[93.00003341222717, 91.73820004985969, 92.00610777531934, 84.40078082039426, 91.58892582949886]",3.0,False,8.4,3.9115214431215892,1.2499160766601562,0.8806718874134605
0,,sub_101,2024-07-10 15:49:52,3,distance,cathedral,numerosity_judgement,1,47,3,countries_forward,"['_Oman_', '_Britain_', '_Yemen_']","['m', 'm', 'f']","['p229', 'p256', 'p248']","[7, 8, 3]","[91.73820004985969, 92.0152836843556, 89.14911522239515]",2.0,False,8.0,2.6457513110645907,1.3749048709869385,0.616956077630235
0,,sub_101,2024-07-10 15:49:55,3,distance,cathedral,numerosity_judgement,1,48,2,countries_forward,"['_Oman_', '_Japan_']","['f', 'f']","['p248', 'p284']","[0, 10]","[84.40078082039426, 93.00003341222717]",2.0,True,7.0,7.0710678118654755,1.6248986721038818,0.944762229031892
0,,sub_101,2024-07-10 15:49:59,3,distance,cathedral,numerosity_judgement,1,49,6,countries_forward,"['_Britain_', '_Congo_', '_Yemen_', '_Syria_', '_Japan_', '_Peru_']","['f', 'f', 'm', 'f', 'm', 'f']","['p245', 'p284', 'p229', 'p248', 'p307', 'p268']","[1, 4, 2, 9, 7, 6]","[86.2038576498559, 89.31368318402099, 87.57049330475357, 92.00610777531934, 91.73820004985969, 91.58892582949886]",3.0,False,6.833333333333333,3.0605010483034745,1.249915361404419,0.8887072976960617
0,,sub_101,2024-07-10 15:50:02,3,distance,cathedral,numerosity_judgement,1,50,3,countries_forward,"['_Oman_', '_Peru_', '_Yemen_']","['m', 'm', 'f']","['p256', 'p307', 'p248']","[8, 10, 0]","[92.0152836843556, 93.00003341222717, 84.40078082039426]",2.0,False,8.0,5.291502622129181,1.4998981952667236,0.6747247758483713
0,,sub_101,2024-07-10 15:50:05,3,distance,cathedral,numerosity_judgement,1,51,2,countries_forward,"['_Sudan_', '_Tonga_']","['m', 'f']","['p229', 'p268']","[6, 4]","[91.58892582949886, 89.31368318402099]",2.0,True,7.0,1.4142135623730951,1.937368392944336,0.9189762796504368
0,,sub_101,2024-07-10 15:50:08,3,distance,cathedral,numerosity_judgement,1,52,6,countries_forward,"['_Yemen_', '_Togo_', '_Japan_', '_Cuba_', '_Mali_', '_Oman_']","['f', 'f', 'm', 'm', 'f', 'm']","['p248', 'p268', 'p307', 'p256', 'p245', 'p229']","[8, 9, 2, 1, 0, 10]","[92.0152836843556, 92.00610777531934, 87.57049330475357, 86.2038576498559, 84.40078082039426, 93.00003341222717]",3.0,False,7.0,4.47213595499958,0.999931812286377,0.8433889456361366
0,,sub_101,2024-07-10 15:50:12,3,distance,cathedral,numerosity_judgement,1,53,5,countries_forward,"['_Oman_', '_Tonga_', '_Belgium_', '_Cuba_', '_Yemen_']","['m', 'm', 'm', 'f', 'm']","['p318', 'p256', 'p229', 'p245', 'p307']","[2, 9, 3, 6, 8]","[87.57049330475357, 92.00610777531934, 89.14911522239515, 91.58892582949886, 92.0152836843556]",3.0,False,7.6,3.0495901363953815,1.8748719692230225,0.7290091930541369
0,,sub_101,2024-07-10 15:50:16,3,distance,cathedral,numerosity_judgement,1,54,4,countries_forward,"['_Peru_', '_Britain_', '_Togo_', '_Oman_']","['f', 'f', 'f', 'm']","['p284', 'p245', 'p268', 'p307']","[9, 0, 3, 6]","[92.00610777531934, 84.40078082039426, 89.14911522239515, 91.58892582949886]",2.0,False,6.5,3.872983346207417,2.8748044967651367,0.7148791283622744
0,,sub_101,2024-07-10 15:50:19,3,distance,cathedral,numerosity_judgement,1,55,2,countries_forward,"['_Belgium_', '_Oman_']","['m', 'f']","['p229', 'p245']","[3, 10]","[89.14911522239515, 93.00003341222717]",2.0,True,8.5,4.949747468305833,1.3124110698699951,0.6528203382135966
0,,sub_101,2024-07-10 15:50:22,3,distance,cathedral,numerosity_judgement,1,56,4,countries_forward,"['_Peru_', '_Mali_', '_Togo_', '_Sudan_']","['f', 'm', 'f', 'm']","['p284', 'p256', 'p248', 'p318']","[8, 7, 4, 9]","[92.0152836843556, 91.73820004985969, 89.31368318402099, 92.00610777531934]",3.0,False,9.0,2.160246899469287,1.3749055862426758,0.8947452048575644
0,,sub_101,2024-07-10 15:50:26,3,distance,cathedral,numerosity_judgement,1,57,6,countries_forward,"['_Togo_', '_Mali_', '_Britain_', '_Oman_', '_Belgium_', '_Yemen_']","['m', 'm', 'm', 'f', 'm', 'f']","['p307', 'p318', 'p256', 'p245', 'p229', 'p248']","[7, 1, 2, 5, 8, 6]","[91.73820004985969, 86.2038576498559, 87.57049330475357, 90.34149293193902, 92.0152836843556, 91.58892582949886]",4.0,False,6.833333333333333,2.786873995477131,1.3749065399169922,0.769685620247418
0,,sub_101,2024-07-10 15:50:29,3,distance,cathedral,numerosity_judgement,1,58,5,countries_forward,"['_Cuba_', '_Yemen_', '_Sudan_', '_Japan_', '_Mali_']","['m', 'm', 'm', 'f', 'f']","['p256', 'p318', 'p229', 'p284', 'p268']","[0, 7, 4, 6, 10]","[84.40078082039426, 91.73820004985969, 89.31368318402099, 91.58892582949886, 93.00003341222717]",4.0,False,7.4,3.714835124201342,1.249915599822998,0.9319827488366814
0,,sub_101,2024-07-10 15:50:32,3,distance,cathedral,numerosity_judgement,1,59,3,countries_forward,"['_Cuba_', '_Britain_', '_Yemen_']","['m', 'm', 'f']","['p307', 'p318', 'p284']","[10, 1, 0]","[93.00003341222717, 86.2038576498559, 84.40078082039426]",2.0,False,5.666666666666667,5.507570547286102,1.062427282333374,0.7922256270570878
0,,sub_101,2024-07-10 15:50:34,3,distance,cathedral,numerosity_judgement,1,60,2,countries_forward,"['_Cuba_', '_Mali_']","['m', 'f']","['p318', 'p248']","[8, 6]","[92.0152836843556, 91.58892582949886]",2.0,True,9.0,1.4142135623730951,1.2499141693115234,0.8853705595278629
0,,sub_101,2024-07-10 15:50:37,3,distance,cathedral,numerosity_judgement,1,61,6,countries_forward,"['_Congo_', '_Tonga_', '_Yemen_', '_Togo_', '_Britain_', '_Cuba_']","['f', 'f', 'm', 'f', 'm', 'f']","['p284', 'p268', 'p229', 'p245', 'p256', 'p248']","[5, 0, 8, 7, 9, 10]","[90.34149293193902, 84.40078082039426, 92.0152836843556, 91.73820004985969, 92.00610777531934, 93.00003341222717]",3.0,False,8.5,3.6193922141707713,0.9999299049377441,0.8378504142549086
0,,sub_101,2024-07-10 15:50:41,3,distance,cathedral,numerosity_judgement,1,62,3,countries_forward,"['_Cuba_', '_Togo_', '_Mali_']","['m', 'm', 'm']","['p307', 'p318', 'p229']","[7, 6, 1]","[91.73820004985969, 91.58892582949886, 86.2038576498559]",2.0,False,6.666666666666667,3.2145502536643185,2.437335968017578,0.7211326750652594
0,,sub_101,2024-07-10 15:50:45,3,distance,cathedral,numerosity_judgement,1,63,4,countries_forward,"['_Britain_', '_Cuba_', '_Sudan_', '_Togo_']","['f', 'm', 'm', 'm']","['p284', 'p307', 'p256', 'p229']","[2, 8, 5, 7]","[87.57049330475357, 92.0152836843556, 90.34149293193902, 91.73820004985969]",3.0,False,7.5,2.6457513110645907,1.9373672008514404,0.7658381568493928
0,,sub_101,2024-07-10 15:50:48,3,distance,cathedral,numerosity_judgement,1,64,5,countries_forward,"['_Syria_', '_Peru_', '_Japan_', '_Congo_', '_Sudan_']","['m', 'f', 'f', 'm', 'm']","['p318', 'p245', 'p268', 'p256', 'p229']","[0, 2, 1, 7, 8]","[84.40078082039426, 87.57049330475357, 86.2038576498559, 91.73820004985969, 92.0152836843556]",3.0,False,5.6,3.6469165057620936,1.1249232292175293,0.919157870843264
0,,sub_101,2024-07-10 15:50:51,3,distance,cathedral,numerosity_judgement,1,65,4,countries_forward,"['_Peru_', '_Congo_', '_Japan_', '_Cuba_']","['f', 'm', 'm', 'f']","['p248', 'p318', 'p256', 'p268']","[0, 10, 9, 6]","[84.40078082039426, 93.00003341222717, 92.00610777531934, 91.58892582949886]",3.0,False,8.25,4.5,1.2499144077301025,0.795097037793667
0,,sub_101,2024-07-10 15:50:54,3,distance,cathedral,numerosity_judgement,1,66,3,countries_forward,"['_Sudan_', '_Japan_', '_Togo_']","['f', 'm', 'f']","['p268', 'p307', 'p248']","[10, 0, 4]","[93.00003341222717, 84.40078082039426, 89.31368318402099]",2.0,False,6.666666666666667,5.033222956847167,1.687384843826294,0.9667801611621836
0,,sub_101,2024-07-10 15:50:57,3,distance,cathedral,numerosity_judgement,1,67,2,countries_forward,"['_Cuba_', '_Congo_']","['m', 'm']","['p229', 'p256']","[9, 10]","[92.00610777531934, 93.00003341222717]",2.0,True,11.5,0.7071067811865476,1.749880313873291,0.7849392804448985
0,,sub_101,2024-07-10 15:51:01,3,distance,cathedral,numerosity_judgement,1,68,5,countries_forward,"['_Syria_', '_Japan_', '_Britain_', '_Congo_', '_Yemen_']","['m', 'f', 'm', 'f', 'f']","['p307', 'p284', 'p256', 'p245', 'p248']","[3, 5, 10, 6, 7]","[89.14911522239515, 90.34149293193902, 93.00003341222717, 91.58892582949886, 91.73820004985969]",3.0,False,8.2,2.588435821108957,1.8748714923858643,0.8193167631369879
0,,sub_101,2024-07-10 15:51:05,3,distance,cathedral,numerosity_judgement,1,69,6,countries_forward,"['_Britain_', '_Togo_', '_Cuba_', '_Congo_', '_Yemen_', '_Oman_']","['m', 'f', 'f', 'm', 'f', 'm']","['p256', 'p268', 'p245', 'p229', 'p284', 'p307']","[5, 1, 4, 2, 9, 7]","[90.34149293193902, 86.2038576498559, 89.31368318402099, 87.57049330475357, 92.00610777531934, 91.73820004985969]",2.0,False,6.666666666666667,3.011090610836324,1.749880313873291,0.7973215299057995
0,,sub_101,2024-07-10 15:51:08,3,distance,cathedral,numerosity_judgement,1,70,3,countries_forward,"['_Britain_', '_Oman_', '_Cuba_']","['f', 'm', 'm']","['p245', 'p256', 'p318']","[3, 8, 6]","[89.14911522239515, 92.0152836843556, 91.58892582949886]",2.0,False,7.666666666666667,2.516611478423583,1.9373681545257568,0.7045170809215753
0,,sub_101,2024-07-10 15:51:12,3,distance,cathedral,numerosity_judgement,1,71,4,countries_forward,"['_Belgium_', '_Mali_', '_Syria_', '_Tonga_']","['m', 'm', 'f', 'f']","['p318', 'p229', 'p284', 'p245']","[0, 5, 10, 3]","[84.40078082039426, 90.34149293193902, 93.00003341222717, 89.14911522239515]",3.0,False,6.5,4.203173404306164,1.6873865127563477,0.924855294518216
0,,sub_101,2024-07-10 15:51:15,3,distance,cathedral,numerosity_judgement,1,72,6,countries_forward,"['_Togo_', '_Japan_', '_Oman_', '_Belgium_', '_Tonga_', '_Sudan_']","['f', 'f', 'f', 'f', 'm', 'm']","['p248', 'p284', 'p245', 'p268', 'p229', 'p256']","[7, 2, 4, 10, 6, 1]","[91.73820004985969, 87.57049330475357, 89.31368318402099, 93.00003341222717, 91.58892582949886, 86.2038576498559]",3.0,False,7.0,3.3466401061363023,1.4998974800109863,0.9204517080921576
0,,sub_101,2024-07-10 15:51:19,3,distance,cathedral,numerosity_judgement,1,73,5,countries_forward,"['_Sudan_', '_Togo_', '_Britain_', '_Belgium_', '_Syria_']","['f', 'm', 'm', 'm', 'f']","['p284', 'p229', 'p256', 'p307', 'p268']","[7, 0, 4, 9, 6]","[91.73820004985969, 84.40078082039426, 89.31368318402099, 92.00610777531934, 91.58892582949886]",3.0,False,7.2,3.420526275297414,2.0623607635498047,0.9535580524344568
0,,sub_101,2024-07-10 15:51:22,3,distance,cathedral,numerosity_judgement,1,74,2,countries_forward,"['_Oman_', '_Yemen_']","['m', 'f']","['p307', 'p245']","[6, 10]","[91.58892582949886, 93.00003341222717]",2.0,True,10.0,2.8284271247461903,1.2499146461486816,0.5938372488934287
0,,sub_101,2024-07-10 15:53:26,3,distance,cathedral,numerosity_judgement,2,0,5,countries_forward,"['_Belgium_', '_Togo_', '_Yemen_', '_Tonga_', '_Congo_']","['m', 'f', 'm', 'm', 'f']","['p256', 'p268', 'p307', 'p318', 'p248']","[2, 0, 8, 7, 4]","[87.57049330475357, 84.40078082039426, 92.0152836843556, 91.73820004985969, 89.31368318402099]",3.0,False,6.2,3.3466401061363023,3.06227445602417,0.8044716831233685
0,,sub_101,2024-07-10 15:53:29,3,distance,cathedral,numerosity_judgement,2,1,3,countries_forward,"['_Togo_', '_Mali_', '_Belgium_']","['f', 'm', 'f']","['p268', 'p318', 'p245']","[5, 0, 8]","[90.34149293193902, 84.40078082039426, 92.0152836843556]",2.0,False,6.333333333333333,4.041451884327381,1.6873862743377686,0.926308024060833
0,,sub_101,2024-07-10 15:53:33,3,distance,cathedral,numerosity_judgement,2,2,4,countries_forward,"['_Oman_', '_Mali_', '_Yemen_', '_Belgium_']","['f', 'm', 'm', 'm']","['p245', 'p256', 'p307', 'p229']","[5, 10, 4, 6]","[90.34149293193902, 93.00003341222717, 89.31368318402099, 91.58892582949886]",3.0,False,8.25,2.6299556396765835,2.3748385906219482,0.6908182953126774
0,,sub_101,2024-07-10 15:53:36,3,distance,cathedral,numerosity_judgement,2,3,2,countries_forward,"['_Tonga_', '_Togo_']","['m', 'm']","['p307', 'p229']","[10, 6]","[93.00003341222717, 91.58892582949886]",2.0,True,10.0,2.8284271247461903,1.1874206066131592,0.855725797298831
0,,sub_101,2024-07-10 15:53:40,3,distance,cathedral,numerosity_judgement,2,4,6,countries_forward,"['_Oman_', '_Tonga_', '_Japan_', '_Congo_', '_Yemen_', '_Mali_']","['m', 'm', 'f', 'f', 'm', 'f']","['p229', 'p318', 'p248', 'p284', 'p307', 'p245']","[3, 5, 6, 0, 10, 7]","[89.14911522239515, 90.34149293193902, 91.58892582949886, 84.40078082039426, 93.00003341222717, 91.73820004985969]",3.0,False,7.166666666666667,3.4302575219167823,1.9998650550842285,0.7383497900351833
0,,sub_101,2024-07-10 15:53:44,3,distance,cathedral,numerosity_judgement,2,5,3,countries_forward,"['_Britain_', '_Oman_', '_Cuba_']","['m', 'm', 'm']","['p256', 'p229', 'p307']","[10, 3, 6]","[93.00003341222717, 89.14911522239515, 91.58892582949886]",3.0,True,8.333333333333334,3.511884584284246,1.9998643398284912,0.7713539893315174
0,,sub_101,2024-07-10 15:53:47,3,distance,cathedral,numerosity_judgement,2,6,6,countries_forward,"['_Togo_', '_Oman_', '_Yemen_', '_Britain_', '_Peru_', '_Tonga_']","['m', 'm', 'm', 'm', 'f', 'f']","['p307', 'p229', 'p318', 'p256', 'p248', 'p284']","[5, 8, 6, 1, 9, 10]","[90.34149293193902, 92.0152836843556, 91.58892582949886, 86.2038576498559, 92.00610777531934, 93.00003341222717]",4.0,False,8.5,3.271085446759225,1.312410831451416,0.7812053115423901
0,,sub_101,2024-07-10 15:53:50,3,distance,cathedral,numerosity_judgement,2,7,4,countries_forward,"['_Oman_', '_Mali_', '_Yemen_', '_Britain_']","['f', 'f', 'm', 'f']","['p248', 'p268', 'p256', 'p245']","[3, 6, 9, 7]","[89.14911522239515, 91.58892582949886, 92.00610777531934, 91.73820004985969]",3.0,False,8.25,2.5,1.4998986721038818,0.6700034048348655
0,,sub_101,2024-07-10 15:53:54,3,distance,cathedral,numerosity_judgement,2,8,5,countries_forward,"['_Mali_', '_Britain_', '_Congo_', '_Tonga_', '_Japan_']","['f', 'm', 'f', 'm', 'f']","['p245', 'p256', 'p268', 'p229', 'p284']","[7, 6, 0, 2, 10]","[91.73820004985969, 91.58892582949886, 84.40078082039426, 87.57049330475357, 93.00003341222717]",3.0,False,7.0,4.0,1.3749055862426758,0.8700261037339689
0,,sub_101,2024-07-10 15:53:56,3,distance,cathedral,numerosity_judgement,2,9,2,countries_forward,"['_Oman_', '_Britain_']","['m', 'm']","['p229', 'p256']","[8, 7]","[92.0152836843556, 91.73820004985969]",2.0,True,9.5,0.7071067811865476,1.1874186992645264,0.6166042446941323
0,,sub_101,2024-07-10 15:54:00,3,distance,cathedral,numerosity_judgement,2,10,5,countries_forward,"['_Oman_', '_Japan_', '_Syria_', '_Mali_', '_Britain_']","['m', 'm', 'f', 'm', 'm']","['p229', 'p256', 'p248', 'p318', 'p307']","[0, 7, 10, 5, 1]","[84.40078082039426, 91.73820004985969, 93.00003341222717, 90.34149293193902, 86.2038576498559]",3.0,False,6.6,4.159326868617084,1.3749046325683594,0.9585745091363068
0,,sub_101,2024-07-10 15:54:02,3,distance,cathedral,numerosity_judgement,2,11,2,countries_forward,"['_Mali_', '_Congo_']","['m', 'm']","['p318', 'p256']","[5, 3]","[90.34149293193902, 89.14911522239515]",2.0,True,6.0,1.4142135623730951,1.1874215602874756,0.9564975598683464
0,,sub_101,2024-07-10 15:54:06,3,distance,cathedral,numerosity_judgement,2,12,6,countries_forward,"['_Togo_', '_Oman_', '_Peru_', '_Sudan_', '_Belgium_', '_Cuba_']","['m', 'm', 'f', 'f', 'f', 'm']","['p256', 'p307', 'p268', 'p245', 'p248', 'p229']","[2, 5, 10, 1, 0, 6]","[87.57049330475357, 90.34149293193902, 93.00003341222717, 86.2038576498559, 84.40078082039426, 91.58892582949886]",3.0,False,6.0,3.7416573867739413,1.5623936653137207,0.8156508909317898
0,,sub_101,2024-07-10 15:54:09,3,distance,cathedral,numerosity_judgement,2,13,4,countries_forward,"['_Japan_', '_Britain_', '_Mali_', '_Togo_']","['f', 'm', 'f', 'f']","['p284', 'p318', 'p268', 'p248']","[9, 6, 7, 10]","[92.00610777531934, 91.58892582949886, 91.73820004985969, 93.00003341222717]",4.0,True,10.0,1.8257418583505538,1.624889850616455,0.9468391782998524
0,,sub_101,2024-07-10 15:54:12,3,distance,cathedral,numerosity_judgement,2,14,3,countries_forward,"['_Syria_', '_Sudan_', '_Yemen_']","['f', 'f', 'm']","['p245', 'p284', 'p256']","[6, 4, 1]","[91.58892582949886, 89.31368318402099, 86.2038576498559]",2.0,False,5.666666666666667,2.516611478423583,1.624891757965088,0.9426058336170696
0,,sub_101,2024-07-10 15:54:15,3,distance,cathedral,numerosity_judgement,2,15,4,countries_forward,"['_Tonga_', '_Togo_', '_Syria_', '_Belgium_']","['f', 'f', 'f', 'm']","['p248', 'p245', 'p284', 'p318']","[0, 7, 8, 9]","[84.40078082039426, 91.73820004985969, 92.0152836843556, 92.00610777531934]",3.0,False,8.0,4.08248290463863,1.1874194145202637,0.9552491204176596
0,,sub_101,2024-07-10 15:54:19,3,distance,cathedral,numerosity_judgement,2,16,5,countries_forward,"['_Syria_', '_Sudan_', '_Britain_', '_Japan_', '_Belgium_']","['m', 'm', 'f', 'f', 'f']","['p307', 'p256', 'p284', 'p245', 'p248']","[9, 7, 3, 5, 10]","[92.00610777531934, 91.73820004985969, 89.14911522239515, 90.34149293193902, 93.00003341222717]",3.0,False,8.8,2.8635642126552705,1.4998950958251953,0.885779139711724
0,,sub_101,2024-07-10 15:54:22,3,distance,cathedral,numerosity_judgement,2,17,2,countries_forward,"['_Oman_', '_Mali_']","['m', 'f']","['p307', 'p268']","[5, 3]","[90.34149293193902, 89.14911522239515]",2.0,True,6.0,1.4142135623730951,1.6873860359191895,0.668527976393145
0,,sub_101,2024-07-10 15:54:25,3,distance,cathedral,numerosity_judgement,2,18,6,countries_forward,"['_Mali_', '_Sudan_', '_Britain_', '_Oman_', '_Togo_', '_Syria_']","['f', 'f', 'f', 'm', 'm', 'f']","['p284', 'p248', 'p245', 'p229', 'p307', 'p268']","[4, 0, 6, 7, 1, 10]","[89.31368318402099, 84.40078082039426, 91.58892582949886, 91.73820004985969, 86.2038576498559, 93.00003341222717]",3.0,False,6.666666666666667,3.777124126457412,1.1249234676361084,0.9554420610600386
0,,sub_101,2024-07-10 15:54:27,3,distance,cathedral,numerosity_judgement,2,19,3,countries_forward,"['_Oman_', '_Tonga_', '_Yemen_']","['f', 'm', 'f']","['p268', 'p229', 'p284']","[6, 7, 4]","[91.58892582949886, 91.73820004985969, 89.31368318402099]",3.0,True,7.666666666666667,1.5275252316519465,0.9999868869781494,0.7927250028373624
0,,sub_101,2024-07-10 15:54:31,3,distance,cathedral,numerosity_judgement,2,20,5,countries_forward,"['_Togo_', '_Oman_', '_Yemen_', '_Britain_', '_Tonga_']","['f', 'm', 'm', 'f', 'm']","['p245', 'p256', 'p307', 'p248', 'p318']","[2, 6, 8, 1, 0]","[87.57049330475357, 91.58892582949886, 92.0152836843556, 86.2038576498559, 84.40078082039426]",3.0,False,5.4,3.4351128074635335,1.1874194145202637,0.7287254568153445
0,,sub_101,2024-07-10 15:54:34,3,distance,cathedral,numerosity_judgement,2,21,3,countries_forward,"['_Tonga_', '_Yemen_', '_Oman_']","['f', 'm', 'm']","['p268', 'p307', 'p229']","[8, 7, 10]","[92.0152836843556, 91.73820004985969, 93.00003341222717]",2.0,False,10.333333333333334,1.5275252316519468,1.4998536109924316,0.6680286006128703
0,,sub_101,2024-07-10 15:54:37,3,distance,cathedral,numerosity_judgement,2,22,4,countries_forward,"['_Togo_', '_Syria_', '_Peru_', '_Cuba_']","['f', 'm', 'f', 'm']","['p248', 'p318', 'p245', 'p256']","[8, 2, 7, 10]","[92.0152836843556, 87.57049330475357, 91.73820004985969, 93.00003341222717]",2.0,False,8.75,3.4034296427770228,1.4999001026153564,0.7685506752922483
0,,sub_101,2024-07-10 15:54:41,3,distance,cathedral,numerosity_judgement,2,23,6,countries_forward,"['_Japan_', '_Peru_', '_Mali_', '_Oman_', '_Cuba_', '_Yemen_']","['m', 'f', 'f', 'm', 'm', 'f']","['p229', 'p284', 'p268', 'p256', 'p307', 'p248']","[7, 8, 5, 3, 6, 2]","[91.73820004985969, 92.0152836843556, 90.34149293193902, 89.14911522239515, 91.58892582949886, 87.57049330475357]",3.0,False,7.166666666666667,2.316606713852541,1.687385082244873,0.8285098172738622
0,,sub_101,2024-07-10 15:54:43,3,distance,cathedral,numerosity_judgement,2,24,2,countries_forward,"['_Yemen_', '_Syria_']","['f', 'm']","['p284', 'p229']","[5, 3]","[90.34149293193902, 89.14911522239515]",2.0,True,6.0,1.4142135623730951,1.0624279975891113,0.908387243218704
0,,sub_101,2024-07-10 15:54:46,3,distance,cathedral,numerosity_judgement,2,25,4,countries_forward,"['_Cuba_', '_Yemen_', '_Congo_', '_Oman_']","['m', 'f', 'f', 'f']","['p307', 'p268', 'p245', 'p248']","[7, 8, 4, 3]","[91.73820004985969, 92.0152836843556, 89.31368318402099, 89.14911522239515]",3.0,False,7.5,2.3804761428476167,1.1249241828918457,0.629043241402792
0,,sub_101,2024-07-10 15:54:50,3,distance,cathedral,numerosity_judgement,2,26,6,countries_forward,"['_Mali_', '_Oman_', '_Congo_', '_Cuba_', '_Tonga_', '_Yemen_']","['m', 'm', 'f', 'm', 'f', 'f']","['p307', 'p256', 'p268', 'p229', 'p245', 'p248']","[7, 10, 3, 9, 8, 2]","[91.73820004985969, 93.00003341222717, 89.14911522239515, 92.00610777531934, 92.0152836843556, 87.57049330475357]",3.0,False,8.5,3.271085446759225,1.9373693466186523,0.751197366927704
0,,sub_101,2024-07-10 15:54:53,3,distance,cathedral,numerosity_judgement,2,27,3,countries_forward,"['_Britain_', '_Yemen_', '_Cuba_']","['m', 'm', 'f']","['p229', 'p307', 'p268']","[7, 3, 6]","[91.73820004985969, 89.14911522239515, 91.58892582949886]",2.0,False,7.333333333333333,2.0816659994661326,1.0624277591705322,0.7562138236295539
0,,sub_101,2024-07-10 15:54:56,3,distance,cathedral,numerosity_judgement,2,28,5,countries_forward,"['_Yemen_', '_Oman_', '_Peru_', '_Mali_', '_Congo_']","['m', 'm', 'f', 'f', 'm']","['p256', 'p307', 'p268', 'p248', 'p229']","[7, 5, 4, 0, 9]","[91.73820004985969, 90.34149293193902, 89.31368318402099, 84.40078082039426, 92.00610777531934]",3.0,False,7.0,3.391164991562634,1.9373679161071777,0.6961865849506299
0,,sub_101,2024-07-10 15:54:59,3,distance,cathedral,numerosity_judgement,2,29,2,countries_forward,"['_Cuba_', '_Yemen_']","['m', 'm']","['p229', 'p256']","[6, 5]","[91.58892582949886, 90.34149293193902]",2.0,True,7.5,0.7071067811865476,1.1249239444732666,0.651946430598116
0,,sub_101,2024-07-10 15:55:03,3,distance,cathedral,numerosity_judgement,2,30,3,countries_forward,"['_Cuba_', '_Oman_', '_Congo_']","['m', 'f', 'm']","['p307', 'p248', 'p318']","[7, 1, 6]","[91.73820004985969, 86.2038576498559, 91.58892582949886]",2.0,False,6.666666666666667,3.2145502536643185,2.437333345413208,0.7116218363409375
0,,sub_101,2024-07-10 15:55:06,3,distance,cathedral,numerosity_judgement,2,31,2,countries_forward,"['_Peru_', '_Oman_']","['f', 'm']","['p284', 'p318']","[2, 5]","[87.57049330475357, 90.34149293193902]",2.0,True,5.5,2.1213203435596424,1.312410831451416,0.8292929292929293
0,,sub_101,2024-07-10 15:55:10,3,distance,cathedral,numerosity_judgement,2,32,4,countries_forward,"['_Tonga_', '_Cuba_', '_Peru_', '_Togo_']","['m', 'm', 'm', 'f']","['p318', 'p307', 'p229', 'p284']","[1, 7, 2, 3]","[86.2038576498559, 91.73820004985969, 87.57049330475357, 89.14911522239515]",2.0,False,5.25,2.6299556396765835,2.0624234676361084,0.7523436613324254
0,,sub_101,2024-07-10 15:55:12,3,distance,cathedral,numerosity_judgement,2,33,5,countries_forward,"['_Tonga_', '_Yemen_', '_Peru_', '_Mali_', '_Oman_']","['m', 'f', 'f', 'f', 'm']","['p229', 'p268', 'p248', 'p284', 'p307']","[10, 8, 6, 2, 4]","[93.00003341222717, 92.0152836843556, 91.58892582949886, 87.57049330475357, 89.31368318402099]",3.0,False,8.0,3.1622776601683795,1.0623705387115479,0.6974804221995233
0,,sub_101,2024-07-10 15:55:16,3,distance,cathedral,numerosity_judgement,2,34,6,countries_forward,"['_Tonga_', '_Cuba_', '_Mali_', '_Japan_', '_Sudan_', '_Belgium_']","['f', 'f', 'f', 'm', 'm', 'm']","['p248', 'p245', 'p284', 'p307', 'p318', 'p256']","[7, 0, 6, 1, 10, 3]","[91.73820004985969, 84.40078082039426, 91.58892582949886, 86.2038576498559, 93.00003341222717, 89.14911522239515]",4.0,False,6.5,3.8340579025361627,1.8123769760131836,0.9014073317444103
0,,sub_101,2024-07-10 15:55:20,3,distance,cathedral,numerosity_judgement,2,35,3,countries_forward,"['_Sudan_', '_Britain_', '_Mali_']","['m', 'f', 'f']","['p229', 'p245', 'p284']","[3, 10, 5]","[89.14911522239515, 93.00003341222717, 90.34149293193902]",2.0,False,8.0,3.605551275463989,2.062363386154175,0.8959141981613892
0,,sub_101,2024-07-10 15:55:24,3,distance,cathedral,numerosity_judgement,2,36,4,countries_forward,"['_Oman_', '_Tonga_', '_Togo_', '_Japan_']","['m', 'm', 'm', 'm']","['p256', 'p318', 'p229', 'p307']","[5, 0, 8, 1]","[90.34149293193902, 84.40078082039426, 92.0152836843556, 86.2038576498559]",3.0,False,5.5,3.696845502136472,2.312342882156372,0.743003064351379
0,,sub_101,2024-07-10 15:55:29,3,distance,cathedral,numerosity_judgement,2,37,6,countries_forward,"['_Cuba_', '_Syria_', '_Yemen_', '_Mali_', '_Tonga_', '_Oman_']","['m', 'm', 'm', 'm', 'f', 'f']","['p318', 'p256', 'p229', 'p307', 'p245', 'p248']","[8, 9, 0, 4, 6, 7]","[92.0152836843556, 92.00610777531934, 84.40078082039426, 89.31368318402099, 91.58892582949886, 91.73820004985969]",3.0,False,7.666666666666667,3.265986323710904,2.8123085498809814,0.8736692770400636
0,,sub_101,2024-07-10 15:55:32,3,distance,cathedral,numerosity_judgement,2,38,5,countries_forward,"['_Sudan_', '_Syria_', '_Tonga_', '_Belgium_', '_Togo_']","['f', 'f', 'm', 'm', 'm']","['p248', 'p245', 'p229', 'p307', 'p318']","[0, 3, 4, 1, 7]","[84.40078082039426, 89.14911522239515, 89.31368318402099, 86.2038576498559, 91.73820004985969]",3.0,False,5.0,2.7386127875258306,1.1249244213104248,0.9308591533310634
0,,sub_101,2024-07-10 15:55:35,3,distance,cathedral,numerosity_judgement,2,39,2,countries_forward,"['_Cuba_', '_Britain_']","['m', 'm']","['p307', 'p256']","[2, 0]","[87.57049330475357, 84.40078082039426]",2.0,True,3.0,1.4142135623730951,1.437401533126831,0.7164340029508569
0,,sub_101,2024-07-10 15:55:39,3,distance,cathedral,numerosity_judgement,2,40,6,countries_forward,"['_Togo_', '_Congo_', '_Peru_', '_Yemen_', '_Britain_', '_Oman_']","['m', 'f', 'f', 'm', 'm', 'f']","['p229', 'p245', 'p248', 'p307', 'p256', 'p268']","[0, 6, 1, 10, 7, 3]","[84.40078082039426, 91.58892582949886, 86.2038576498559, 93.00003341222717, 91.73820004985969, 89.14911522239515]",3.0,False,6.5,3.8340579025361627,1.8748743534088135,0.7283282260810351
0,,sub_101,2024-07-10 15:55:42,3,distance,cathedral,numerosity_judgement,2,41,4,countries_forward,"['_Togo_', '_Yemen_', '_Japan_', '_Sudan_']","['m', 'f', 'm', 'f']","['p307', 'p245', 'p256', 'p248']","[2, 5, 7, 10]","[87.57049330475357, 90.34149293193902, 91.73820004985969, 93.00003341222717]",3.0,False,8.0,3.366501646120693,1.4998970031738281,0.8216547497446374
0,,sub_101,2024-07-10 15:55:44,3,distance,cathedral,numerosity_judgement,2,42,2,countries_forward,"['_Congo_', '_Tonga_']","['m', 'f']","['p307', 'p248']","[9, 1]","[92.00610777531934, 86.2038576498559]",2.0,True,7.0,5.656854249492381,1.1249234676361084,0.8710816025422767
0,,sub_101,2024-07-10 15:55:48,3,distance,cathedral,numerosity_judgement,2,43,3,countries_forward,"['_Yemen_', '_Japan_', '_Belgium_']","['m', 'm', 'f']","['p256', 'p229', 'p284']","[7, 1, 5]","[91.73820004985969, 86.2038576498559, 90.34149293193902]",2.0,False,6.333333333333333,3.0550504633038935,1.562394618988037,0.852581999773011
0,,sub_101,2024-07-10 15:55:51,3,distance,cathedral,numerosity_judgement,2,44,5,countries_forward,"['_Peru_', '_Cuba_', '_Congo_', '_Mali_', '_Oman_']","['f', 'f', 'f', 'm', 'f']","['p284', 'p248', 'p245', 'p307', 'p268']","[2, 10, 4, 7, 0]","[87.57049330475357, 93.00003341222717, 89.31368318402099, 91.73820004985969, 84.40078082039426]",3.0,False,6.6,3.9749213828703582,1.3124144077301025,0.7929746907274997
0,,sub_101,2024-07-10 15:55:56,3,distance,cathedral,numerosity_judgement,2,45,3,countries_forward,"['_Togo_', '_Oman_', '_Tonga_']","['f', 'm', 'm']","['p245', 'p318', 'p307']","[7, 1, 4]","[91.73820004985969, 86.2038576498559, 89.31368318402099]",2.0,False,6.0,3.0,3.4372661113739014,0.8668142095108388
0,,sub_101,2024-07-10 15:55:59,3,distance,cathedral,numerosity_judgement,2,46,2,countries_forward,"['_Oman_', '_Yemen_']","['m', 'f']","['p307', 'p245']","[6, 10]","[91.58892582949886, 93.00003341222717]",2.0,True,10.0,2.8284271247461903,1.3124101161956787,0.5938372488934287
0,,sub_101,2024-07-10 15:56:02,3,distance,cathedral,numerosity_judgement,2,47,6,countries_forward,"['_Tonga_', '_Yemen_', '_Sudan_', '_Togo_', '_Japan_', '_Mali_']","['f', 'f', 'f', 'f', 'm', 'm']","['p268', 'p284', 'p245', 'p248', 'p229', 'p318']","[2, 4, 6, 0, 3, 9]","[87.57049330475357, 89.31368318402099, 91.58892582949886, 84.40078082039426, 89.14911522239515, 92.00610777531934]",3.0,False,6.0,3.1622776601683795,1.8123767375946045,0.938179548291908
0,,sub_101,2024-07-10 15:56:05,3,distance,cathedral,numerosity_judgement,2,48,5,countries_forward,"['_Britain_', '_Cuba_', '_Belgium_', '_Tonga_', '_Oman_']","['f', 'f', 'm', 'm', 'f']","['p245', 'p284', 'p256', 'p307', 'p268']","[4, 5, 10, 2, 8]","[89.31368318402099, 90.34149293193902, 93.00003341222717, 87.57049330475357, 92.0152836843556]",3.0,False,7.8,3.1937438845342623,1.2499151229858398,0.8331630915900579
0,,sub_101,2024-07-10 15:56:09,3,distance,cathedral,numerosity_judgement,2,49,4,countries_forward,"['_Yemen_', '_Peru_', '_Congo_', '_Oman_']","['m', 'f', 'f', 'm']","['p229', 'p245', 'p248', 'p256']","[3, 10, 5, 0]","[89.14911522239515, 93.00003341222717, 90.34149293193902, 84.40078082039426]",2.0,False,6.5,4.203173404306164,1.687384843826294,0.7047894677108161
0,,sub_101,2024-07-10 15:56:12,3,distance,cathedral,numerosity_judgement,2,50,3,countries_forward,"['_Mali_', '_Britain_', '_Yemen_']","['m', 'f', 'm']","['p318', 'p284', 'p307']","[8, 2, 10]","[92.0152836843556, 87.57049330475357, 93.00003341222717]",3.0,True,8.666666666666666,4.163331998932265,1.8123767375946045,0.8249120417659743
0,,sub_101,2024-07-10 15:56:15,3,distance,cathedral,numerosity_judgement,2,51,5,countries_forward,"['_Cuba_', '_Yemen_', '_Mali_', '_Belgium_', '_Japan_']","['f', 'm', 'f', 'm', 'm']","['p248', 'p307', 'p268', 'p229', 'p318']","[4, 3, 10, 0, 5]","[89.31368318402099, 89.14911522239515, 93.00003341222717, 84.40078082039426, 90.34149293193902]",3.0,False,6.4,3.646916505762094,1.1249244213104248,0.8424015435251391
0,,sub_101,2024-07-10 15:56:18,3,distance,cathedral,numerosity_judgement,2,52,6,countries_forward,"['_Togo_', '_Mali_', '_Yemen_', '_Peru_', '_Belgium_', '_Congo_']","['f', 'm', 'f', 'f', 'm', 'f']","['p248', 'p256', 'p245', 'p284', 'p307', 'p268']","[0, 9, 2, 7, 8, 3]","[84.40078082039426, 92.00610777531934, 87.57049330475357, 91.73820004985969, 92.0152836843556, 89.14911522239515]",3.0,False,6.833333333333333,3.65604522218567,1.1249215602874756,0.7900692316422654
0,,sub_101,2024-07-10 15:56:22,3,distance,cathedral,numerosity_judgement,2,53,4,countries_forward,"['_Sudan_', '_Mali_', '_Tonga_', '_Belgium_']","['f', 'm', 'f', 'm']","['p245', 'p256', 'p284', 'p307']","[6, 7, 1, 10]","[91.58892582949886, 91.73820004985969, 86.2038576498559, 93.00003341222717]",3.0,False,8.0,3.7416573867739413,1.9998607635498047,0.8754170922710248
0,,sub_101,2024-07-10 15:56:26,3,distance,cathedral,numerosity_judgement,2,54,2,countries_forward,"['_Japan_', '_Cuba_']","['f', 'f']","['p245', 'p268']","[3, 5]","[89.14911522239515, 90.34149293193902]",2.0,True,6.0,1.4142135623730951,1.9373679161071777,0.761343774826921
0,,sub_101,2024-07-10 15:56:29,3,distance,cathedral,numerosity_judgement,2,55,6,countries_forward,"['_Yemen_', '_Britain_', '_Syria_', '_Togo_', '_Japan_', '_Peru_']","['m', 'm', 'm', 'f', 'm', 'f']","['p307', 'p256', 'p229', 'p268', 'p318', 'p284']","[2, 6, 10, 5, 9, 4]","[87.57049330475357, 91.58892582949886, 93.00003341222717, 90.34149293193902, 92.00610777531934, 89.31368318402099]",4.0,False,8.0,3.03315017762062,1.7498786449432373,0.8809556236522529
0,,sub_101,2024-07-10 15:56:32,3,distance,cathedral,numerosity_judgement,2,56,3,countries_forward,"['_Oman_', '_Peru_', '_Britain_']","['m', 'f', 'm']","['p256', 'p268', 'p318']","[10, 4, 3]","[93.00003341222717, 89.31368318402099, 89.14911522239515]",3.0,True,7.666666666666667,3.7859388972001824,1.2499148845672607,0.6588241970264442
0,,sub_101,2024-07-10 15:56:37,3,distance,cathedral,numerosity_judgement,2,57,2,countries_forward,"['_Mali_', '_Oman_']","['m', 'm']","['p307', 'p256']","[5, 7]","[90.34149293193902, 91.73820004985969]",3.0,False,8.0,1.4142135623730951,3.4372663497924805,0.5621949835432981
0,,sub_101,2024-07-10 15:56:41,3,distance,cathedral,numerosity_judgement,2,58,4,countries_forward,"['_Congo_', '_Japan_', '_Peru_', '_Belgium_']","['f', 'm', 'f', 'm']","['p268', 'p318', 'p245', 'p229']","[4, 8, 6, 5]","[89.31368318402099, 92.0152836843556, 91.58892582949886, 90.34149293193902]",3.0,False,7.75,1.707825127659933,1.7498807907104492,0.9084439904664624
0,,sub_101,2024-07-10 15:56:44,3,distance,cathedral,numerosity_judgement,2,59,5,countries_forward,"['_Congo_', '_Tonga_', '_Britain_', '_Mali_', '_Oman_']","['m', 'm', 'f', 'm', 'f']","['p229', 'p318', 'p245', 'p256', 'p248']","[9, 0, 2, 6, 5]","[92.00610777531934, 84.40078082039426, 87.57049330475357, 91.58892582949886, 90.34149293193902]",2.0,False,6.4,3.5071355833500366,1.5623934268951416,0.7456701849960277
0,,sub_101,2024-07-10 15:56:47,3,distance,cathedral,numerosity_judgement,2,60,3,countries_forward,"['_Syria_', '_Japan_', '_Peru_']","['f', 'm', 'f']","['p268', 'p229', 'p248']","[2, 0, 9]","[87.57049330475357, 84.40078082039426, 92.00610777531934]",2.0,False,5.666666666666667,4.725815626252608,0.999931812286377,0.9563159686755192
0,,sub_101,2024-07-10 15:56:51,3,distance,cathedral,numerosity_judgement,2,61,5,countries_forward,"['_Britain_', '_Yemen_', '_Sudan_', '_Oman_', '_Tonga_']","['m', 'm', 'm', 'f', 'f']","['p318', 'p256', 'p307', 'p245', 'p248']","[2, 7, 8, 10, 0]","[87.57049330475357, 91.73820004985969, 92.0152836843556, 93.00003341222717, 84.40078082039426]",3.0,False,7.4,4.219004621945797,2.1248557567596436,0.7693791851095222
0,,sub_101,2024-07-10 15:56:55,3,distance,cathedral,numerosity_judgement,2,62,6,countries_forward,"['_Belgium_', '_Congo_', '_Tonga_', '_Peru_', '_Cuba_', '_Oman_']","['f', 'm', 'f', 'f', 'f', 'm']","['p284', 'p229', 'p268', 'p248', 'p245', 'p318']","[10, 2, 1, 0, 9, 8]","[93.00003341222717, 87.57049330475357, 86.2038576498559, 84.40078082039426, 92.00610777531934, 92.0152836843556]",3.0,False,7.0,4.47213595499958,1.8748664855957031,0.9276359096583816
0,,sub_101,2024-07-10 15:56:58,3,distance,cathedral,numerosity_judgement,2,63,2,countries_forward,"['_Peru_', '_Yemen_']","['f', 'm']","['p248', 'p229']","[10, 8]","[93.00003341222717, 92.0152836843556]",2.0,True,11.0,1.4142135623730951,1.4998970031738281,0.7882646691635455
0,,sub_101,2024-07-10 15:57:01,3,distance,cathedral,numerosity_judgement,2,64,4,countries_forward,"['_Tonga_', '_Mali_', '_Britain_', '_Cuba_']","['m', 'm', 'f', 'm']","['p256', 'p318', 'p268', 'p229']","[3, 1, 9, 7]","[89.14911522239515, 86.2038576498559, 92.00610777531934, 91.73820004985969]",3.0,False,7.0,3.6514837167011076,1.4998974800109863,0.8595505617977528
0,,sub_101,2024-07-10 15:57:05,3,distance,cathedral,numerosity_judgement,2,65,5,countries_forward,"['_Belgium_', '_Syria_', '_Tonga_', '_Sudan_', '_Congo_']","['f', 'm', 'm', 'f', 'm']","['p245', 'p229', 'p307', 'p248', 'p318']","[3, 7, 4, 6, 8]","[89.14911522239515, 91.73820004985969, 89.31368318402099, 91.58892582949886, 92.0152836843556]",3.0,False,7.6,2.073644135332772,1.9373016357421875,0.8993757802746567
0,,sub_101,2024-07-10 15:57:08,3,distance,cathedral,numerosity_judgement,2,66,4,countries_forward,"['_Tonga_', '_Mali_', '_Peru_', '_Togo_']","['m', 'f', 'm', 'f']","['p229', 'p245', 'p318', 'p284']","[0, 9, 1, 4]","[84.40078082039426, 92.00610777531934, 86.2038576498559, 89.31368318402099]",3.0,False,5.5,4.041451884327381,1.7498805522918701,0.9040744523890591
0,,sub_101,2024-07-10 15:57:13,3,distance,cathedral,numerosity_judgement,2,67,6,countries_forward,"['_Syria_', '_Sudan_', '_Yemen_', '_Togo_', '_Britain_', '_Cuba_']","['f', 'f', 'm', 'm', 'f', 'f']","['p245', 'p284', 'p256', 'p229', 'p248', 'p268']","[6, 3, 9, 0, 1, 10]","[91.58892582949886, 89.14911522239515, 92.00610777531934, 84.40078082039426, 86.2038576498559, 93.00003341222717]",3.0,False,6.833333333333333,4.167333280008532,2.6248223781585693,0.8505163999546022
0,,sub_101,2024-07-10 15:57:15,3,distance,cathedral,numerosity_judgement,2,68,2,countries_forward,"['_Yemen_', '_Peru_']","['m', 'f']","['p307', 'p268']","[5, 7]","[90.34149293193902, 91.73820004985969]",2.0,True,8.0,1.4142135623730951,1.1249229907989502,0.7225967540574282
0,,sub_101,2024-07-10 15:57:18,3,distance,cathedral,numerosity_judgement,2,69,3,countries_forward,"['_Peru_', '_Togo_', '_Oman_']","['m', 'f', 'm']","['p307', 'p248', 'p229']","[10, 5, 6]","[93.00003341222717, 90.34149293193902, 91.58892582949886]",2.0,False,9.0,2.6457513110645907,1.4374020099639893,0.6995346725683804
0,,sub_101,2024-07-10 15:57:21,3,distance,cathedral,numerosity_judgement,2,70,5,countries_forward,"['_Yemen_', '_Sudan_', '_Peru_', '_Togo_', '_Oman_']","['f', 'f', 'm', 'm', 'f']","['p268', 'p248', 'p229', 'p318', 'p284']","[0, 6, 7, 10, 9]","[84.40078082039426, 91.58892582949886, 91.73820004985969, 93.00003341222717, 92.00610777531934]",3.0,False,8.4,3.9115214431215892,1.1873719692230225,0.9118715242310748
0,,sub_101,2024-07-10 15:57:24,3,distance,cathedral,numerosity_judgement,2,71,2,countries_forward,"['_Sudan_', '_Britain_']","['f', 'm']","['p284', 'p229']","[6, 3]","[91.58892582949886, 89.14911522239515]",2.0,True,6.5,2.1213203435596424,0.999932050704956,0.9309726478265804
0,,sub_101,2024-07-10 15:57:27,3,distance,cathedral,numerosity_judgement,2,72,4,countries_forward,"['_Sudan_', '_Tonga_', '_Oman_', '_Yemen_']","['m', 'f', 'f', 'm']","['p256', 'p268', 'p245', 'p229']","[7, 8, 5, 9]","[91.73820004985969, 92.0152836843556, 90.34149293193902, 92.00610777531934]",3.0,False,9.25,1.707825127659933,1.1249864101409912,0.8104755419362161
0,,sub_101,2024-07-10 15:57:30,3,distance,cathedral,numerosity_judgement,2,73,6,countries_forward,"['_Yemen_', '_Tonga_', '_Mali_', '_Cuba_', '_Togo_', '_Congo_']","['m', 'f', 'f', 'm', 'm', 'f']","['p318', 'p268', 'p248', 'p307', 'p256', 'p245']","[5, 3, 10, 7, 2, 4]","[90.34149293193902, 89.14911522239515, 93.00003341222717, 91.73820004985969, 87.57049330475357, 89.31368318402099]",3.0,False,7.166666666666667,2.9268868558020253,1.374847173690796,0.6946544092611509
0,,sub_101,2024-07-10 15:57:33,3,distance,cathedral,numerosity_judgement,2,74,3,countries_forward,"['_Oman_', '_Britain_', '_Yemen_']","['m', 'm', 'f']","['p229', 'p256', 'p248']","[7, 8, 3]","[91.73820004985969, 92.0152836843556, 89.14911522239515]",3.0,True,8.0,2.6457513110645907,1.8748722076416016,0.616956077630235
0,,sub_101,2024-07-10 15:58:42,3,distance,cathedral,numerosity_judgement,3,0,6,countries_reversed,"['_Japan_reversed', '_Syria_reversed', '_Togo_reversed', '_Congo_reversed', '_Yemen_reversed', '_Sudan_reversed']","['f', 'm', 'm', 'f', 'f', 'm']","['p268', 'p229', 'p318', 'p245', 'p284', 'p256']","[1, 6, 0, 4, 2, 5]","[86.2038576498559, 91.58892582949886, 84.40078082039426, 89.31368318402099, 87.57049330475357, 90.34149293193902]",3.0,False,5.0,2.3664319132398464,2.0622968673706055,0.8320054477357848
0,,sub_101,2024-07-10 15:58:45,3,distance,cathedral,numerosity_judgement,3,1,4,countries_reversed,"['_Cuba_reversed', '_Mali_reversed', '_Britain_reversed', '_Yemen_reversed']","['m', 'm', 'f', 'f']","['p229', 'p307', 'p284', 'p248']","[4, 5, 9, 10]","[89.31368318402099, 90.34149293193902, 92.00610777531934, 93.00003341222717]",3.0,False,9.0,2.943920288775949,2.1248552799224854,0.7781296107138804
0,,sub_101,2024-07-10 15:58:48,3,distance,cathedral,numerosity_judgement,3,2,5,countries_reversed,"['_Sudan_reversed', '_Mali_reversed', '_Peru_reversed', '_Togo_reversed', '_Yemen_reversed']","['f', 'm', 'f', 'm', 'm']","['p284', 'p229', 'p248', 'p256', 'p318']","[9, 7, 3, 2, 1]","[92.00610777531934, 91.73820004985969, 89.14911522239515, 87.57049330475357, 86.2038576498559]",3.0,False,6.4,3.4351128074635335,1.499901294708252,0.9555896039042108
0,,sub_101,2024-07-10 15:58:52,3,distance,cathedral,numerosity_judgement,3,3,3,countries_reversed,"['_Japan_reversed', '_Togo_reversed', '_Tonga_reversed']","['f', 'm', 'f']","['p248', 'p318', 'p268']","[4, 9, 5]","[89.31368318402099, 92.00610777531934, 90.34149293193902]",3.0,True,8.0,2.6457513110645907,2.8123083114624023,0.8813642038361139
0,,sub_101,2024-07-10 15:58:55,3,distance,cathedral,numerosity_judgement,3,4,2,countries_reversed,"['_Togo_reversed', '_Tonga_reversed']","['f', 'f']","['p268', 'p245']","[3, 1]","[89.14911522239515, 86.2038576498559]",2.0,True,4.0,1.4142135623730951,1.2499146461486816,0.7488366814209511
0,,sub_101,2024-07-10 15:58:57,3,distance,cathedral,numerosity_judgement,3,5,6,countries_reversed,"['_Tonga_reversed', '_Oman_reversed', '_Peru_reversed', '_Belgium_reversed', '_Syria_reversed', '_Sudan_reversed']","['f', 'm', 'f', 'm', 'm', 'm']","['p268', 'p307', 'p248', 'p256', 'p229', 'p318']","[10, 5, 3, 6, 0, 4]","[93.00003341222717, 90.34149293193902, 89.14911522239515, 91.58892582949886, 84.40078082039426, 89.31368318402099]",4.0,False,6.666666666666667,3.32665998663324,1.249915361404419,0.8232323232323232
0,,sub_101,2024-07-10 15:59:01,3,distance,cathedral,numerosity_judgement,3,6,4,countries_reversed,"['_Yemen_reversed', '_Belgium_reversed', '_Oman_reversed', '_Peru_reversed']","['f', 'f', 'm', 'm']","['p284', 'p245', 'p307', 'p256']","[10, 7, 4, 9]","[93.00003341222717, 91.73820004985969, 89.31368318402099, 92.00610777531934]",3.0,False,9.5,2.6457513110645907,2.4373345375061035,0.6722846441947565
0,,sub_101,2024-07-10 15:59:04,3,distance,cathedral,numerosity_judgement,3,7,5,countries_reversed,"['_Yemen_reversed', '_Mali_reversed', '_Britain_reversed', '_Oman_reversed', '_Togo_reversed']","['m', 'm', 'f', 'm', 'f']","['p256', 'p307', 'p245', 'p318', 'p248']","[10, 8, 6, 5, 3]","[93.00003341222717, 92.0152836843556, 91.58892582949886, 90.34149293193902, 89.14911522239515]",4.0,False,8.4,2.701851217221259,1.749880313873291,0.7835659970491431
0,,sub_101,2024-07-10 15:59:06,3,distance,cathedral,numerosity_judgement,3,8,2,countries_reversed,"['_Japan_reversed', '_Syria_reversed']","['f', 'm']","['p284', 'p229']","[10, 5]","[93.00003341222717, 90.34149293193902]",3.0,False,9.5,3.5355339059327378,1.3124115467071533,0.9242197253433208
0,,sub_101,2024-07-10 15:59:10,3,distance,cathedral,numerosity_judgement,3,9,3,countries_reversed,"['_Cuba_reversed', '_Britain_reversed', '_Yemen_reversed']","['f', 'm', 'f']","['p245', 'p318', 'p268']","[7, 0, 9]","[91.73820004985969, 84.40078082039426, 92.00610777531934]",2.0,False,7.333333333333333,4.725815626252608,2.187352180480957,0.6158778799228237
0,,sub_101,2024-07-10 15:59:13,3,distance,cathedral,numerosity_judgement,3,10,6,countries_reversed,"['_Japan_reversed', '_Syria_reversed', '_Mali_reversed', '_Oman_reversed', '_Togo_reversed', '_Cuba_reversed']","['m', 'f', 'm', 'm', 'f', 'm']","['p318', 'p248', 'p256', 'p229', 'p245', 'p307']","[6, 2, 1, 8, 10, 3]","[91.58892582949886, 87.57049330475357, 86.2038576498559, 92.0152836843556, 93.00003341222717, 89.14911522239515]",4.0,False,7.0,3.5777087639996634,2.1248555183410645,0.7610146407899216
0,,sub_101,2024-07-10 15:59:16,3,distance,cathedral,numerosity_judgement,3,11,4,countries_reversed,"['_Britain_reversed', '_Peru_reversed', '_Oman_reversed', '_Syria_reversed']","['m', 'f', 'm', 'm']","['p318', 'p245', 'p229', 'p256']","[6, 9, 7, 5]","[91.58892582949886, 92.00610777531934, 91.73820004985969, 90.34149293193902]",3.0,False,8.75,1.707825127659933,1.249915361404419,0.6560549313358303
0,,sub_101,2024-07-10 15:59:19,3,distance,cathedral,numerosity_judgement,3,12,2,countries_reversed,"['_Tonga_reversed', '_Yemen_reversed']","['f', 'm']","['p245', 'p256']","[5, 8]","[90.34149293193902, 92.0152836843556]",3.0,False,8.5,2.1213203435596424,1.4373817443847656,0.6460787651798888
0,,sub_101,2024-07-10 15:59:21,3,distance,cathedral,numerosity_judgement,3,13,5,countries_reversed,"['_Yemen_reversed', '_Cuba_reversed', '_Congo_reversed', '_Britain_reversed', '_Tonga_reversed']","['m', 'f', 'm', 'f', 'f']","['p256', 'p268', 'p229', 'p245', 'p248']","[5, 6, 3, 8, 1]","[90.34149293193902, 91.58892582949886, 89.14911522239515, 92.0152836843556, 86.2038576498559]",3.0,False,6.6,2.701851217221259,1.4374024868011475,0.6996141187152423
0,,sub_101,2024-07-10 15:59:24,3,distance,cathedral,numerosity_judgement,3,14,3,countries_reversed,"['_Yemen_reversed', '_Oman_reversed', '_Tonga_reversed']","['m', 'm', 'f']","['p256', 'p307', 'p245']","[2, 5, 10]","[87.57049330475357, 90.34149293193902, 93.00003341222717]",2.0,False,7.666666666666667,4.041451884327381,1.687385082244873,0.5832936102599023
0,,sub_101,2024-07-10 15:59:27,3,distance,cathedral,numerosity_judgement,3,15,4,countries_reversed,"['_Oman_reversed', '_Yemen_reversed', '_Britain_reversed', '_Mali_reversed']","['m', 'm', 'm', 'm']","['p229', 'p318', 'p307', 'p256']","[5, 7, 9, 6]","[90.34149293193902, 91.73820004985969, 92.00610777531934, 91.58892582949886]",3.0,False,8.75,1.707825127659933,1.2499146461486816,0.6135966405629327
0,,sub_101,2024-07-10 15:59:30,3,distance,cathedral,numerosity_judgement,3,16,2,countries_reversed,"['_Sudan_reversed', '_Peru_reversed']","['f', 'm']","['p248', 'p307']","[9, 3]","[92.00610777531934, 89.14911522239515]",2.0,True,8.0,4.242640687119285,1.6248888969421387,0.7185903983656793
0,,sub_101,2024-07-10 15:59:32,3,distance,cathedral,numerosity_judgement,3,17,6,countries_reversed,"['_Cuba_reversed', '_Oman_reversed', '_Congo_reversed', '_Yemen_reversed', '_Peru_reversed', '_Mali_reversed']","['f', 'f', 'f', 'm', 'm', 'f']","['p268', 'p248', 'p284', 'p256', 'p318', 'p245']","[10, 9, 6, 7, 3, 0]","[93.00003341222717, 92.00610777531934, 91.58892582949886, 91.73820004985969, 89.14911522239515, 84.40078082039426]",3.0,False,7.833333333333333,3.763863263545405,1.0624465942382812,0.7130632164340029
0,,sub_101,2024-07-10 15:59:36,3,distance,cathedral,numerosity_judgement,3,18,5,countries_reversed,"['_Cuba_reversed', '_Yemen_reversed', '_Britain_reversed', '_Syria_reversed', '_Tonga_reversed']","['m', 'f', 'f', 'm', 'f']","['p318', 'p268', 'p245', 'p256', 'p248']","[10, 2, 3, 0, 7]","[93.00003341222717, 87.57049330475357, 89.14911522239515, 84.40078082039426, 91.73820004985969]",4.0,False,6.4,4.03732584763727,2.1873533725738525,0.8694132334581772
0,,sub_101,2024-07-10 15:59:40,3,distance,cathedral,numerosity_judgement,3,19,3,countries_reversed,"['_Tonga_reversed', '_Belgium_reversed', '_Oman_reversed']","['m', 'm', 'm']","['p229', 'p256', 'p318']","[10, 1, 5]","[93.00003341222717, 86.2038576498559, 90.34149293193902]",2.0,False,7.333333333333333,4.509249752822894,2.68730092048645,0.8326523663602315
0,,sub_101,2024-07-10 15:59:43,3,distance,cathedral,numerosity_judgement,3,20,6,countries_reversed,"['_Britain_reversed', '_Japan_reversed', '_Peru_reversed', '_Congo_reversed', '_Sudan_reversed', '_Togo_reversed']","['f', 'm', 'm', 'm', 'f', 'f']","['p245', 'p256', 'p229', 'p318', 'p268', 'p248']","[9, 6, 2, 4, 8, 0]","[92.00610777531934, 91.58892582949886, 87.57049330475357, 89.31368318402099, 92.0152836843556, 84.40078082039426]",3.0,False,6.833333333333333,3.488074922742725,2.374878406524658,0.9199296334127794
0,,sub_101,2024-07-10 15:59:46,3,distance,cathedral,numerosity_judgement,3,21,5,countries_reversed,"['_Peru_reversed', '_Tonga_reversed', '_Britain_reversed', '_Sudan_reversed', '_Togo_reversed']","['f', 'm', 'f', 'f', 'm']","['p245', 'p256', 'p284', 'p248', 'p229']","[10, 6, 7, 8, 3]","[93.00003341222717, 91.58892582949886, 91.73820004985969, 92.0152836843556, 89.14911522239515]",3.0,False,8.8,2.588435821108957,1.5623927116394043,0.8085007377142208
0,,sub_101,2024-07-10 15:59:49,3,distance,cathedral,numerosity_judgement,3,22,4,countries_reversed,"['_Belgium_reversed', '_Yemen_reversed', '_Togo_reversed', '_Cuba_reversed']","['m', 'f', 'f', 'm']","['p229', 'p248', 'p245', 'p307']","[10, 7, 5, 1]","[93.00003341222717, 91.73820004985969, 90.34149293193902, 86.2038576498559]",3.0,False,7.75,3.774917217635375,1.3749051094055176,0.8016683690840994
0,,sub_101,2024-07-10 15:59:53,3,distance,cathedral,numerosity_judgement,3,23,3,countries_reversed,"['_Britain_reversed', '_Belgium_reversed', '_Japan_reversed']","['f', 'm', 'f']","['p268', 'p256', 'p284']","[0, 1, 7]","[84.40078082039426, 86.2038576498559, 91.73820004985969]",2.0,False,4.666666666666667,3.7859388972001824,2.8123109340667725,0.9600499375780276
0,,sub_101,2024-07-10 15:59:56,3,distance,cathedral,numerosity_judgement,3,24,2,countries_reversed,"['_Togo_reversed', '_Cuba_reversed']","['m', 'f']","['p307', 'p245']","[8, 10]","[92.0152836843556, 93.00003341222717]",2.0,True,11.0,1.4142135623730951,1.8123769760131836,0.7559754851889683
0,,sub_101,2024-07-10 15:59:58,3,distance,cathedral,numerosity_judgement,3,25,3,countries_reversed,"['_Congo_reversed', '_Oman_reversed', '_Belgium_reversed']","['f', 'm', 'f']","['p284', 'p318', 'p268']","[5, 7, 8]","[90.34149293193902, 91.73820004985969, 92.0152836843556]",3.0,True,8.666666666666666,1.5275252316519468,1.3124094009399414,0.9119623198274884
0,,sub_101,2024-07-10 16:00:01,3,distance,cathedral,numerosity_judgement,3,26,5,countries_reversed,"['_Mali_reversed', '_Oman_reversed', '_Britain_reversed', '_Peru_reversed', '_Yemen_reversed']","['f', 'm', 'm', 'm', 'f']","['p268', 'p256', 'p318', 'p307', 'p245']","[1, 6, 10, 9, 5]","[86.2038576498559, 91.58892582949886, 93.00003341222717, 92.00610777531934, 90.34149293193902]",3.0,False,8.2,3.5637059362410923,1.312410831451416,0.6607536034502327
0,,sub_101,2024-07-10 16:00:04,3,distance,cathedral,numerosity_judgement,3,27,4,countries_reversed,"['_Togo_reversed', '_Oman_reversed', '_Peru_reversed', '_Syria_reversed']","['f', 'm', 'm', 'f']","['p268', 'p318', 'p229', 'p284']","[10, 2, 3, 0]","[93.00003341222717, 87.57049330475357, 89.14911522239515, 84.40078082039426]",2.0,False,5.75,4.349329450233296,1.937368631362915,0.9347066167290886
0,,sub_101,2024-07-10 16:00:07,3,distance,cathedral,numerosity_judgement,3,28,6,countries_reversed,"['_Tonga_reversed', '_Peru_reversed', '_Mali_reversed', '_Oman_reversed', '_Sudan_reversed', '_Britain_reversed']","['f', 'f', 'f', 'm', 'm', 'f']","['p268', 'p284', 'p245', 'p307', 'p318', 'p248']","[1, 7, 6, 5, 10, 4]","[86.2038576498559, 91.73820004985969, 91.58892582949886, 90.34149293193902, 93.00003341222717, 89.31368318402099]",3.0,False,7.5,3.0166206257996713,1.4374017715454102,0.7812961071388038
0,,sub_101,2024-07-10 16:00:12,3,distance,cathedral,numerosity_judgement,3,29,2,countries_reversed,"['_Cuba_reversed', '_Togo_reversed']","['m', 'f']","['p307', 'p245']","[7, 6]","[91.73820004985969, 91.58892582949886]",3.0,False,8.5,0.7071067811865476,3.562256336212158,0.6341504937010555
0,,sub_101,2024-07-10 16:00:15,3,distance,cathedral,numerosity_judgement,3,30,3,countries_reversed,"['_Peru_reversed', '_Congo_reversed', '_Tonga_reversed']","['m', 'f', 'm']","['p307', 'p245', 'p256']","[8, 3, 5]","[92.0152836843556, 89.14911522239515, 90.34149293193902]",2.0,False,7.333333333333333,2.516611478423583,2.2498466968536377,0.7024514811031665
0,,sub_101,2024-07-10 16:00:18,3,distance,cathedral,numerosity_judgement,3,31,2,countries_reversed,"['_Oman_reversed', '_Tonga_reversed']","['f', 'm']","['p245', 'p256']","[6, 4]","[91.58892582949886, 89.31368318402099]",2.0,True,7.0,1.4142135623730951,1.3124113082885742,0.6078084212915673
0,,sub_101,2024-07-10 16:00:22,3,distance,cathedral,numerosity_judgement,3,32,5,countries_reversed,"['_Britain_reversed', '_Tonga_reversed', '_Yemen_reversed', '_Syria_reversed', '_Oman_reversed']","['f', 'm', 'f', 'm', 'm']","['p284', 'p318', 'p248', 'p307', 'p229']","[0, 5, 1, 9, 7]","[84.40078082039426, 90.34149293193902, 86.2038576498559, 92.00610777531934, 91.73820004985969]",3.0,False,6.4,3.847076812334269,2.499830484390259,0.8939053455907389
0,,sub_101,2024-07-10 16:00:24,3,distance,cathedral,numerosity_judgement,3,33,4,countries_reversed,"['_Yemen_reversed', '_Britain_reversed', '_Mali_reversed', '_Oman_reversed']","['f', 'm', 'f', 'm']","['p284', 'p256', 'p268', 'p318']","[10, 3, 8, 1]","[93.00003341222717, 89.14911522239515, 92.0152836843556, 86.2038576498559]",3.0,False,7.5,4.203173404306164,1.249915599822998,0.8991033934854159
0,,sub_101,2024-07-10 16:00:26,3,distance,cathedral,numerosity_judgement,3,34,6,countries_reversed,"['_Peru_reversed', '_Cuba_reversed', '_Togo_reversed', '_Japan_reversed', '_Congo_reversed', '_Oman_reversed']","['m', 'm', 'm', 'f', 'f', 'f']","['p307', 'p318', 'p229', 'p248', 'p268', 'p245']","[0, 3, 10, 8, 7, 9]","[84.40078082039426, 89.14911522239515, 93.00003341222717, 92.0152836843556, 91.73820004985969, 92.00610777531934]",4.0,False,8.166666666666666,3.8686776379877745,0.999931812286377,0.6953467256838043
0,,sub_101,2024-07-10 16:00:29,3,distance,cathedral,numerosity_judgement,3,35,3,countries_reversed,"['_Yemen_reversed', '_Japan_reversed', '_Britain_reversed']","['f', 'f', 'm']","['p268', 'p248', 'p307']","[2, 5, 3]","[87.57049330475357, 90.34149293193902, 89.14911522239515]",3.0,True,5.333333333333333,1.5275252316519465,1.4374017715454102,0.8023152877085461
0,,sub_101,2024-07-10 16:00:32,3,distance,cathedral,numerosity_judgement,3,36,4,countries_reversed,"['_Oman_reversed', '_Mali_reversed', '_Togo_reversed', '_Congo_reversed']","['m', 'm', 'f', 'f']","['p229', 'p318', 'p245', 'p268']","[4, 7, 6, 9]","[89.31368318402099, 91.73820004985969, 91.58892582949886, 92.00610777531934]",3.0,False,8.5,2.0816659994661326,1.6873857975006104,0.8107365792759051
0,,sub_101,2024-07-10 16:00:35,3,distance,cathedral,numerosity_judgement,3,37,5,countries_reversed,"['_Sudan_reversed', '_Yemen_reversed', '_Oman_reversed', '_Belgium_reversed', '_Japan_reversed']","['f', 'm', 'm', 'm', 'm']","['p248', 'p256', 'p318', 'p307', 'p229']","[3, 1, 6, 2, 0]","[89.14911522239515, 86.2038576498559, 91.58892582949886, 87.57049330475357, 84.40078082039426]",3.0,False,4.4,2.3021728866442674,1.4374020099639893,0.9207921915787084
0,,sub_101,2024-07-10 16:00:37,3,distance,cathedral,numerosity_judgement,3,38,2,countries_reversed,"['_Japan_reversed', '_Syria_reversed']","['m', 'f']","['p229', 'p248']","[5, 2]","[90.34149293193902, 87.57049330475357]",2.0,True,5.5,2.1213203435596424,1.2499148845672607,0.961979344001816
0,,sub_101,2024-07-10 16:00:40,3,distance,cathedral,numerosity_judgement,3,39,6,countries_reversed,"['_Yemen_reversed', '_Sudan_reversed', '_Cuba_reversed', '_Britain_reversed', '_Oman_reversed', '_Congo_reversed']","['m', 'f', 'f', 'm', 'f', 'f']","['p229', 'p248', 'p245', 'p307', 'p284', 'p268']","[6, 10, 5, 7, 0, 3]","[91.58892582949886, 93.00003341222717, 90.34149293193902, 91.73820004985969, 84.40078082039426, 89.14911522239515]",3.0,False,7.166666666666667,3.4302575219167823,1.437401533126831,0.6710135058449666
0,,sub_101,2024-07-10 16:00:42,3,distance,cathedral,numerosity_judgement,3,40,4,countries_reversed,"['_Syria_reversed', '_Oman_reversed', '_Togo_reversed', '_Cuba_reversed']","['m', 'f', 'f', 'm']","['p307', 'p248', 'p268', 'p256']","[0, 10, 4, 8]","[84.40078082039426, 93.00003341222717, 89.31368318402099, 92.0152836843556]",4.0,True,7.5,4.43471156521669,1.1874198913574219,0.8634888207921916
0,,sub_101,2024-07-10 16:00:46,3,distance,cathedral,numerosity_judgement,3,41,6,countries_reversed,"['_Britain_reversed', '_Belgium_reversed', '_Syria_reversed', '_Sudan_reversed', '_Yemen_reversed', '_Oman_reversed']","['f', 'm', 'm', 'f', 'f', 'm']","['p248', 'p307', 'p318', 'p268', 'p245', 'p229']","[4, 10, 6, 3, 5, 7]","[89.31368318402099, 93.00003341222717, 91.58892582949886, 89.14911522239515, 90.34149293193902, 91.73820004985969]",3.0,False,7.833333333333333,2.48327740429189,1.9998655319213867,0.8881398252184769
0,,sub_101,2024-07-10 16:00:48,3,distance,cathedral,numerosity_judgement,3,42,5,countries_reversed,"['_Peru_reversed', '_Tonga_reversed', '_Japan_reversed', '_Togo_reversed', '_Congo_reversed']","['f', 'f', 'm', 'm', 'm']","['p245', 'p248', 'p307', 'p318', 'p229']","[4, 1, 3, 6, 10]","[89.31368318402099, 86.2038576498559, 89.14911522239515, 91.58892582949886, 93.00003341222717]",3.0,False,6.8,3.420526275297414,1.4998986721038818,0.9308705027806152
0,,sub_101,2024-07-10 16:00:51,3,distance,cathedral,numerosity_judgement,3,43,2,countries_reversed,"['_Cuba_reversed', '_Britain_reversed']","['f', 'm']","['p248', 'p256']","[8, 10]","[92.0152836843556, 93.00003341222717]",2.0,True,11.0,1.4142135623730951,1.5623936653137207,0.5812280104414936
0,,sub_101,2024-07-10 16:00:55,3,distance,cathedral,numerosity_judgement,3,44,3,countries_reversed,"['_Yemen_reversed', '_Tonga_reversed', '_Belgium_reversed']","['m', 'f', 'm']","['p307', 'p248', 'p256']","[8, 6, 9]","[92.0152836843556, 91.58892582949886, 92.00610777531934]",2.0,False,9.666666666666666,1.5275252316519468,2.8748035430908203,0.761752355010782
0,,sub_101,2024-07-10 16:00:58,3,distance,cathedral,numerosity_judgement,3,45,4,countries_reversed,"['_Cuba_reversed', '_Mali_reversed', '_Syria_reversed', '_Congo_reversed']","['f', 'm', 'm', 'f']","['p268', 'p229', 'p307', 'p245']","[9, 0, 5, 4]","[92.00610777531934, 84.40078082039426, 90.34149293193902, 89.31368318402099]",3.0,False,6.5,3.696845502136472,1.8123762607574463,0.9066053796390876
0,,sub_101,2024-07-10 16:01:01,3,distance,cathedral,numerosity_judgement,3,46,5,countries_reversed,"['_Belgium_reversed', '_Congo_reversed', '_Cuba_reversed', '_Peru_reversed', '_Togo_reversed']","['m', 'm', 'f', 'm', 'f']","['p229', 'p256', 'p245', 'p307', 'p284']","[8, 3, 5, 10, 2]","[92.0152836843556, 89.14911522239515, 90.34149293193902, 93.00003341222717, 87.57049330475357]",3.0,False,7.6,3.361547262794322,1.4374020099639893,0.6736579275905119
0,,sub_101,2024-07-10 16:01:03,3,distance,cathedral,numerosity_judgement,3,47,2,countries_reversed,"['_Oman_reversed', '_Mali_reversed']","['m', 'm']","['p229', 'p307']","[1, 10]","[86.2038576498559, 93.00003341222717]",2.0,True,7.5,6.363961030678928,1.062427043914795,0.789819543752128
0,,sub_101,2024-07-10 16:01:06,3,distance,cathedral,numerosity_judgement,3,48,3,countries_reversed,"['_Belgium_reversed', '_Cuba_reversed', '_Congo_reversed']","['f', 'm', 'm']","['p284', 'p318', 'p229']","[8, 10, 5]","[92.0152836843556, 93.00003341222717, 90.34149293193902]",2.0,False,9.666666666666666,2.516611478423583,1.4998979568481445,0.8540006809669731
0,,sub_101,2024-07-10 16:01:09,3,distance,cathedral,numerosity_judgement,3,49,6,countries_reversed,"['_Japan_reversed', '_Congo_reversed', '_Peru_reversed', '_Syria_reversed', '_Cuba_reversed', '_Tonga_reversed']","['f', 'm', 'm', 'm', 'f', 'f']","['p268', 'p318', 'p307', 'p256', 'p245', 'p284']","[4, 3, 7, 10, 6, 2]","[89.31368318402099, 89.14911522239515, 91.73820004985969, 93.00003341222717, 91.58892582949886, 87.57049330475357]",3.0,False,7.333333333333333,2.943920288775949,1.18741774559021,0.8017137668823062
0,,sub_101,2024-07-10 16:01:11,3,distance,cathedral,numerosity_judgement,3,50,2,countries_reversed,"['_Belgium_reversed', '_Oman_reversed']","['m', 'm']","['p307', 'p256']","[10, 5]","[93.00003341222717, 90.34149293193902]",3.0,False,9.5,3.5355339059327378,1.1874744892120361,0.676347747134264
0,,sub_101,2024-07-10 16:01:14,3,distance,cathedral,numerosity_judgement,3,51,6,countries_reversed,"['_Togo_reversed', '_Peru_reversed', '_Cuba_reversed', '_Tonga_reversed', '_Oman_reversed', '_Sudan_reversed']","['f', 'm', 'f', 'f', 'm', 'm']","['p268', 'p229', 'p248', 'p245', 'p307', 'p256']","[0, 4, 10, 2, 1, 8]","[84.40078082039426, 89.31368318402099, 93.00003341222717, 87.57049330475357, 86.2038576498559, 92.0152836843556]",3.0,False,6.166666666666667,4.02077936060494,1.2499146461486816,0.7374077857223925
0,,sub_101,2024-07-10 16:01:16,3,distance,cathedral,numerosity_judgement,3,52,3,countries_reversed,"['_Congo_reversed', '_Cuba_reversed', '_Tonga_reversed']","['f', 'm', 'm']","['p268', 'p307', 'p256']","[8, 7, 4]","[92.0152836843556, 91.73820004985969, 89.31368318402099]",3.0,True,8.333333333333334,2.0816659994661326,1.4999504089355469,0.677505390988537
0,,sub_101,2024-07-10 16:01:19,3,distance,cathedral,numerosity_judgement,3,53,5,countries_reversed,"['_Syria_reversed', '_Cuba_reversed', '_Sudan_reversed', '_Yemen_reversed', '_Congo_reversed']","['f', 'm', 'm', 'f', 'm']","['p248', 'p307', 'p318', 'p268', 'p256']","[2, 3, 7, 6, 10]","[87.57049330475357, 89.14911522239515, 91.73820004985969, 91.58892582949886, 93.00003341222717]",4.0,False,7.6,3.2093613071762426,1.687384843826294,0.8354329815003972
0,,sub_101,2024-07-10 16:01:22,3,distance,cathedral,numerosity_judgement,3,54,4,countries_reversed,"['_Oman_reversed', '_Mali_reversed', '_Cuba_reversed', '_Togo_reversed']","['f', 'm', 'm', 'f']","['p284', 'p256', 'p307', 'p245']","[3, 4, 8, 7]","[89.14911522239515, 89.31368318402099, 92.0152836843556, 91.73820004985969]",3.0,False,7.5,2.3804761428476167,1.3124756813049316,0.7471569628872999
0,,sub_101,2024-07-10 16:01:25,3,distance,cathedral,numerosity_judgement,3,55,3,countries_reversed,"['_Peru_reversed', '_Mali_reversed', '_Belgium_reversed']","['m', 'f', 'm']","['p256', 'p268', 'p307']","[4, 2, 5]","[89.31368318402099, 87.57049330475357, 90.34149293193902]",3.0,True,5.666666666666667,1.5275252316519465,1.5623927116394043,0.9231415276359096
0,,sub_101,2024-07-10 16:01:27,3,distance,cathedral,numerosity_judgement,3,56,4,countries_reversed,"['_Yemen_reversed', '_Sudan_reversed', '_Oman_reversed', '_Togo_reversed']","['f', 'm', 'm', 'm']","['p284', 'p256', 'p307', 'p229']","[9, 10, 7, 2]","[92.00610777531934, 93.00003341222717, 91.73820004985969, 87.57049330475357]",3.0,False,9.0,3.559026084010437,1.3749065399169922,0.7033594370673022
0,,sub_101,2024-07-10 16:01:30,3,distance,cathedral,numerosity_judgement,3,57,2,countries_reversed,"['_Togo_reversed', '_Sudan_reversed']","['f', 'm']","['p248', 'p229']","[0, 8]","[84.40078082039426, 92.0152836843556]",2.0,True,6.0,5.656854249492381,1.2499148845672607,0.9488480308705028
0,,sub_101,2024-07-10 16:01:32,3,distance,cathedral,numerosity_judgement,3,58,6,countries_reversed,"['_Oman_reversed', '_Congo_reversed', '_Belgium_reversed', '_Togo_reversed', '_Syria_reversed', '_Mali_reversed']","['m', 'm', 'm', 'f', 'f', 'f']","['p256', 'p307', 'p318', 'p248', 'p268', 'p284']","[1, 9, 4, 7, 0, 10]","[86.2038576498559, 92.00610777531934, 89.31368318402099, 91.73820004985969, 84.40078082039426, 93.00003341222717]",4.0,False,7.166666666666667,4.167333280008532,1.3749072551727295,0.9504823516059472
0,,sub_101,2024-07-10 16:01:35,3,distance,cathedral,numerosity_judgement,3,59,5,countries_reversed,"['_Syria_reversed', '_Tonga_reversed', '_Peru_reversed', '_Oman_reversed', '_Yemen_reversed']","['m', 'f', 'f', 'm', 'f']","['p256', 'p248', 'p245', 'p229', 'p268']","[5, 3, 8, 10, 1]","[90.34149293193902, 89.14911522239515, 92.0152836843556, 93.00003341222717, 86.2038576498559]",4.0,False,7.4,3.646916505762094,1.562394380569458,0.7378958120531154
0,,sub_101,2024-07-10 16:01:38,3,distance,cathedral,numerosity_judgement,3,60,6,countries_reversed,"['_Togo_reversed', '_Mali_reversed', '_Peru_reversed', '_Sudan_reversed', '_Cuba_reversed', '_Congo_reversed']","['m', 'm', 'f', 'f', 'f', 'f']","['p318', 'p256', 'p268', 'p284', 'p245', 'p248']","[1, 5, 4, 3, 10, 7]","[86.2038576498559, 90.34149293193902, 89.31368318402099, 89.14911522239515, 93.00003341222717, 91.73820004985969]",3.0,False,7.0,3.1622776601683795,1.312410831451416,0.884996027692657
0,,sub_101,2024-07-10 16:01:42,3,distance,cathedral,numerosity_judgement,3,61,4,countries_reversed,"['_Peru_reversed', '_Cuba_reversed', '_Oman_reversed', '_Japan_reversed']","['f', 'm', 'm', 'm']","['p248', 'p307', 'p318', 'p256']","[1, 9, 5, 8]","[86.2038576498559, 92.00610777531934, 90.34149293193902, 92.0152836843556]",3.0,False,7.75,3.593976442141304,2.624757766723633,0.7151288162524118
0,,sub_101,2024-07-10 16:01:44,3,distance,cathedral,numerosity_judgement,3,62,2,countries_reversed,"['_Belgium_reversed', '_Mali_reversed']","['m', 'f']","['p229', 'p248']","[8, 5]","[92.0152836843556, 90.34149293193902]",2.0,True,8.5,2.1213203435596424,1.4374651908874512,0.8531721711496992
0,,sub_101,2024-07-10 16:01:48,3,distance,cathedral,numerosity_judgement,3,63,3,countries_reversed,"['_Congo_reversed', '_Cuba_reversed', '_Yemen_reversed']","['f', 'm', 'f']","['p245', 'p307', 'p268']","[0, 6, 8]","[84.40078082039426, 91.58892582949886, 92.0152836843556]",3.0,True,6.666666666666667,4.163331998932266,1.999863624572754,0.751310861423221
0,,sub_101,2024-07-10 16:01:52,3,distance,cathedral,numerosity_judgement,3,64,5,countries_reversed,"['_Japan_reversed', '_Tonga_reversed', '_Syria_reversed', '_Congo_reversed', '_Peru_reversed']","['m', 'f', 'f', 'f', 'm']","['p307', 'p245', 'p248', 'p268', 'p229']","[6, 10, 3, 0, 4]","[91.58892582949886, 93.00003341222717, 89.14911522239515, 84.40078082039426, 89.31368318402099]",3.0,False,6.6,3.714835124201342,2.7498128414154053,0.8592668255589604
0,,sub_101,2024-07-10 16:01:55,3,distance,cathedral,numerosity_judgement,3,65,6,countries_reversed,"['_Mali_reversed', '_Peru_reversed', '_Sudan_reversed', '_Togo_reversed', '_Congo_reversed', '_Yemen_reversed']","['f', 'm', 'f', 'm', 'm', 'f']","['p248', 'p229', 'p268', 'p256', 'p318', 'p245']","[3, 8, 1, 5, 6, 10]","[89.14911522239515, 92.0152836843556, 86.2038576498559, 90.34149293193902, 91.58892582949886, 93.00003341222717]",4.0,False,7.5,3.271085446759225,1.7498815059661865,0.9384519350811484
0,,sub_101,2024-07-10 16:01:57,3,distance,cathedral,numerosity_judgement,3,66,3,countries_reversed,"['_Peru_reversed', '_Yemen_reversed', '_Tonga_reversed']","['f', 'f', 'f']","['p248', 'p268', 'p245']","[10, 2, 6]","[93.00003341222717, 87.57049330475357, 91.58892582949886]",3.0,True,8.0,4.0,1.2499144077301025,0.6479173760072636
0,,sub_101,2024-07-10 16:02:00,3,distance,cathedral,numerosity_judgement,3,67,2,countries_reversed,"['_Japan_reversed', '_Cuba_reversed']","['m', 'f']","['p307', 'p245']","[4, 2]","[89.31368318402099, 87.57049330475357]",2.0,True,5.0,1.4142135623730951,1.4998977184295654,0.8379979570990806
0,,sub_101,2024-07-10 16:02:03,3,distance,cathedral,numerosity_judgement,3,68,4,countries_reversed,"['_Japan_reversed', '_Togo_reversed', '_Oman_reversed', '_Belgium_reversed']","['m', 'm', 'f', 'f']","['p307', 'p318', 'p284', 'p245']","[1, 2, 6, 0]","[86.2038576498559, 87.57049330475357, 91.58892582949886, 84.40078082039426]",3.0,False,4.25,2.6299556396765835,1.7498807907104492,0.95344455793894
0,,sub_101,2024-07-10 16:02:06,3,distance,cathedral,numerosity_judgement,3,69,5,countries_reversed,"['_Yemen_reversed', '_Oman_reversed', '_Peru_reversed', '_Syria_reversed', '_Mali_reversed']","['f', 'f', 'm', 'm', 'm']","['p268', 'p248', 'p318', 'p256', 'p307']","[8, 5, 6, 2, 3]","[92.0152836843556, 90.34149293193902, 91.58892582949886, 87.57049330475357, 89.14911522239515]",3.0,False,6.8,2.3874672772626644,1.3749055862426758,0.7250255362614914
0,,sub_101,2024-07-10 16:02:10,3,distance,cathedral,numerosity_judgement,3,70,3,countries_reversed,"['_Oman_reversed', '_Yemen_reversed', '_Cuba_reversed']","['m', 'm', 'm']","['p318', 'p229', 'p307']","[3, 6, 2]","[89.14911522239515, 91.58892582949886, 87.57049330475357]",2.0,False,5.666666666666667,2.0816659994661326,3.062225818634033,0.715230961298377
0,,sub_101,2024-07-10 16:02:13,3,distance,cathedral,numerosity_judgement,3,71,4,countries_reversed,"['_Belgium_reversed', '_Britain_reversed', '_Cuba_reversed', '_Congo_reversed']","['f', 'm', 'f', 'f']","['p248', 'p307', 'p245', 'p284']","[4, 10, 7, 1]","[89.31368318402099, 93.00003341222717, 91.73820004985969, 86.2038576498559]",3.0,False,7.5,3.872983346207417,1.4374022483825684,0.847792532062195
0,,sub_101,2024-07-10 16:02:15,3,distance,cathedral,numerosity_judgement,3,72,2,countries_reversed,"['_Oman_reversed', '_Mali_reversed']","['m', 'm']","['p318', 'p307']","[8, 2]","[92.0152836843556, 87.57049330475357]",2.0,True,7.0,4.242640687119285,1.562392234802246,0.8721371013505845
0,,sub_101,2024-07-10 16:02:18,3,distance,cathedral,numerosity_judgement,3,73,6,countries_reversed,"['_Belgium_reversed', '_Sudan_reversed', '_Britain_reversed', '_Tonga_reversed', '_Togo_reversed', '_Peru_reversed']","['m', 'f', 'f', 'm', 'f', 'm']","['p256', 'p248', 'p284', 'p229', 'p245', 'p307']","[2, 10, 5, 4, 7, 6]","[87.57049330475357, 93.00003341222717, 90.34149293193902, 89.31368318402099, 91.73820004985969, 91.58892582949886]",3.0,False,7.666666666666667,2.7325202042558927,1.6873836517333984,0.8598229485869935
0,,sub_101,2024-07-10 16:02:21,3,distance,cathedral,numerosity_judgement,3,74,5,countries_reversed,"['_Britain_reversed', '_Tonga_reversed', '_Peru_reversed', '_Oman_reversed', '_Cuba_reversed']","['m', 'f', 'f', 'f', 'f']","['p229', 'p268', 'p245', 'p284', 'p248']","[1, 8, 3, 4, 9]","[86.2038576498559, 92.0152836843556, 89.14911522239515, 89.31368318402099, 92.00610777531934]",4.0,False,7.0,3.391164991562634,1.3124067783355713,0.7645783679491545
0,,sub_101,2024-07-10 16:04:17,3,distance,cathedral,numerosity_judgement,4,0,4,countries_reversed,"['_Yemen_reversed', '_Belgium_reversed', '_Oman_reversed', '_Peru_reversed']","['f', 'f', 'm', 'm']","['p284', 'p245', 'p307', 'p256']","[10, 7, 4, 9]","[93.00003341222717, 91.73820004985969, 89.31368318402099, 92.00610777531934]",3.0,False,9.5,2.6457513110645907,1.9998643398284912,0.6722846441947565
0,,sub_101,2024-07-10 16:04:19,3,distance,cathedral,numerosity_judgement,4,1,2,countries_reversed,"['_Britain_reversed', '_Cuba_reversed']","['f', 'f']","['p268', 'p245']","[1, 5]","[86.2038576498559, 90.34149293193902]",2.0,True,5.0,2.8284271247461903,1.1874186992645264,0.7099875156054931
0,,sub_101,2024-07-10 16:04:22,3,distance,cathedral,numerosity_judgement,4,2,3,countries_reversed,"['_Tonga_reversed', '_Mali_reversed', '_Oman_reversed']","['m', 'm', 'f']","['p256', 'p307', 'p245']","[8, 0, 6]","[92.0152836843556, 84.40078082039426, 91.58892582949886]",3.0,True,6.666666666666667,4.163331998932266,1.8123762607574463,0.7395868800363182
0,,sub_101,2024-07-10 16:04:25,3,distance,cathedral,numerosity_judgement,4,3,6,countries_reversed,"['_Tonga_reversed', '_Britain_reversed', '_Congo_reversed', '_Peru_reversed', '_Cuba_reversed', '_Japan_reversed']","['f', 'f', 'f', 'f', 'm', 'm']","['p248', 'p268', 'p245', 'p284', 'p229', 'p307']","[8, 9, 6, 0, 1, 5]","[92.0152836843556, 92.00610777531934, 91.58892582949886, 84.40078082039426, 86.2038576498559, 90.34149293193902]",4.0,False,6.833333333333333,3.65604522218567,1.874873161315918,0.9215072069004652
0,,sub_101,2024-07-10 16:04:28,3,distance,cathedral,numerosity_judgement,4,4,5,countries_reversed,"['_Britain_reversed', '_Congo_reversed', '_Peru_reversed', '_Oman_reversed', '_Togo_reversed']","['m', 'f', 'm', 'f', 'm']","['p256', 'p248', 'p307', 'p245', 'p318']","[10, 4, 3, 6, 5]","[93.00003341222717, 89.31368318402099, 89.14911522239515, 91.58892582949886, 90.34149293193902]",4.0,False,7.6,2.701851217221259,1.8123767375946045,0.7385994779253207
0,,sub_101,2024-07-10 16:04:33,3,distance,cathedral,numerosity_judgement,4,5,2,countries_reversed,"['_Congo_reversed', '_Yemen_reversed']","['m', 'm']","['p256', 'p307']","[7, 6]","[91.73820004985969, 91.58892582949886]",2.0,True,8.5,0.7071067811865476,2.9372992515563965,0.6664737260242878
0,,sub_101,2024-07-10 16:04:35,3,distance,cathedral,numerosity_judgement,4,6,5,countries_reversed,"['_Britain_reversed', '_Tonga_reversed', '_Togo_reversed', '_Oman_reversed', '_Peru_reversed']","['m', 'm', 'f', 'f', 'f']","['p256', 'p307', 'p245', 'p268', 'p248']","[10, 0, 4, 7, 5]","[93.00003341222717, 84.40078082039426, 89.31368318402099, 91.73820004985969, 90.34149293193902]",3.0,False,7.2,3.7013511046643495,1.2499148845672607,0.8015662240381342
0,,sub_101,2024-07-10 16:04:39,3,distance,cathedral,numerosity_judgement,4,7,3,countries_reversed,"['_Syria_reversed', '_Britain_reversed', '_Cuba_reversed']","['m', 'f', 'm']","['p318', 'p284', 'p307']","[2, 8, 10]","[87.57049330475357, 92.0152836843556, 93.00003341222717]",2.0,False,8.666666666666666,4.163331998932265,2.9372398853302,0.8992055385313812
0,,sub_101,2024-07-10 16:04:42,3,distance,cathedral,numerosity_judgement,4,8,4,countries_reversed,"['_Congo_reversed', '_Tonga_reversed', '_Japan_reversed', '_Oman_reversed']","['m', 'f', 'f', 'f']","['p307', 'p248', 'p268', 'p284']","[5, 3, 9, 4]","[90.34149293193902, 89.14911522239515, 92.00610777531934, 89.31368318402099]",3.0,False,7.25,2.6299556396765835,1.1874196529388428,0.8300306435137896
0,,sub_101,2024-07-10 16:04:44,3,distance,cathedral,numerosity_judgement,4,9,6,countries_reversed,"['_Japan_reversed', '_Britain_reversed', '_Mali_reversed', '_Sudan_reversed', '_Congo_reversed', '_Peru_reversed']","['m', 'f', 'm', 'f', 'm', 'f']","['p307', 'p245', 'p229', 'p284', 'p318', 'p268']","[1, 10, 7, 2, 6, 8]","[86.2038576498559, 93.00003341222717, 91.73820004985969, 87.57049330475357, 91.58892582949886, 92.0152836843556]",4.0,False,7.666666666666667,3.5023801430836525,1.1249237060546875,0.9501191692202928
0,,sub_101,2024-07-10 16:04:47,3,distance,cathedral,numerosity_judgement,4,10,5,countries_reversed,"['_Peru_reversed', '_Oman_reversed', '_Yemen_reversed', '_Tonga_reversed', '_Sudan_reversed']","['f', 'f', 'f', 'm', 'm']","['p284', 'p245', 'p248', 'p256', 'p307']","[0, 5, 8, 6, 10]","[84.40078082039426, 90.34149293193902, 92.0152836843556, 91.58892582949886, 93.00003341222717]",3.0,False,7.8,3.7682887362833544,1.8124425411224365,0.7012484394506866
0,,sub_101,2024-07-10 16:04:50,3,distance,cathedral,numerosity_judgement,4,11,6,countries_reversed,"['_Britain_reversed', '_Japan_reversed', '_Cuba_reversed', '_Tonga_reversed', '_Peru_reversed', '_Mali_reversed']","['f', 'f', 'm', 'f', 'm', 'm']","['p284', 'p268', 'p307', 'p245', 'p229', 'p256']","[10, 1, 7, 4, 9, 5]","[93.00003341222717, 86.2038576498559, 91.73820004985969, 89.31368318402099, 92.00610777531934, 90.34149293193902]",4.0,False,8.0,3.3466401061363023,1.7498812675476074,0.7472250595846102
0,,sub_101,2024-07-10 16:04:54,3,distance,cathedral,numerosity_judgement,4,12,2,countries_reversed,"['_Oman_reversed', '_Yemen_reversed']","['f', 'f']","['p248', 'p245']","[5, 9]","[90.34149293193902, 92.00610777531934]",2.0,True,9.0,2.8284271247461903,1.9373688697814941,0.5965384178867325
0,,sub_101,2024-07-10 16:04:56,3,distance,cathedral,numerosity_judgement,4,13,3,countries_reversed,"['_Tonga_reversed', '_Belgium_reversed', '_Cuba_reversed']","['f', 'f', 'f']","['p248', 'p268', 'p284']","[9, 5, 0]","[92.00610777531934, 90.34149293193902, 84.40078082039426]",3.0,True,6.666666666666667,4.509249752822894,1.3749065399169922,0.8604698672114403
0,,sub_101,2024-07-10 16:04:59,3,distance,cathedral,numerosity_judgement,4,14,4,countries_reversed,"['_Cuba_reversed', '_Britain_reversed', '_Yemen_reversed', '_Oman_reversed']","['f', 'm', 'f', 'm']","['p248', 'p229', 'p268', 'p318']","[10, 4, 1, 5]","[93.00003341222717, 89.31368318402099, 86.2038576498559, 90.34149293193902]",4.0,True,7.0,3.7416573867739413,1.5623948574066162,0.7336624673703326
0,,sub_101,2024-07-10 16:05:02,3,distance,cathedral,numerosity_judgement,4,15,6,countries_reversed,"['_Oman_reversed', '_Peru_reversed', '_Cuba_reversed', '_Mali_reversed', '_Belgium_reversed', '_Tonga_reversed']","['f', 'f', 'f', 'm', 'm', 'm']","['p248', 'p284', 'p268', 'p307', 'p256', 'p229']","[2, 6, 3, 10, 1, 7]","[87.57049330475357, 91.58892582949886, 89.14911522239515, 93.00003341222717, 86.2038576498559, 91.73820004985969]",3.0,False,6.833333333333333,3.430257521916783,2.1248550415039062,0.770956758597208
0,,sub_101,2024-07-10 16:05:05,3,distance,cathedral,numerosity_judgement,4,16,2,countries_reversed,"['_Britain_reversed', '_Syria_reversed']","['m', 'm']","['p318', 'p256']","[5, 9]","[90.34149293193902, 92.00610777531934]",2.0,True,9.0,2.8284271247461903,1.2499148845672607,0.8287368062648961
0,,sub_101,2024-07-10 16:05:08,3,distance,cathedral,numerosity_judgement,4,17,4,countries_reversed,"['_Cuba_reversed', '_Syria_reversed', '_Tonga_reversed', '_Togo_reversed']","['f', 'm', 'f', 'm']","['p245', 'p256', 'p284', 'p229']","[9, 1, 4, 10]","[92.00610777531934, 86.2038576498559, 89.31368318402099, 93.00003341222717]",3.0,False,8.0,4.242640687119285,2.1248559951782227,0.8156849392804449
0,,sub_101,2024-07-10 16:05:12,3,distance,cathedral,numerosity_judgement,4,18,3,countries_reversed,"['_Yemen_reversed', '_Cuba_reversed', '_Oman_reversed']","['m', 'f', 'm']","['p256', 'p245', 'p307']","[0, 10, 6]","[84.40078082039426, 93.00003341222717, 91.58892582949886]",2.0,False,7.333333333333333,5.033222956847167,2.06235671043396,0.7172057655203723
0,,sub_101,2024-07-10 16:05:15,3,distance,cathedral,numerosity_judgement,4,19,5,countries_reversed,"['_Oman_reversed', '_Britain_reversed', '_Sudan_reversed', '_Congo_reversed', '_Togo_reversed']","['f', 'm', 'f', 'm', 'f']","['p268', 'p318', 'p284', 'p229', 'p245']","[9, 0, 10, 4, 7]","[92.00610777531934, 84.40078082039426, 93.00003341222717, 89.31368318402099, 91.73820004985969]",3.0,False,8.0,4.06201920231798,1.6248886585235596,0.9202587674497786
0,,sub_101,2024-07-10 16:05:18,3,distance,cathedral,numerosity_judgement,4,20,3,countries_reversed,"['_Peru_reversed', '_Yemen_reversed', '_Tonga_reversed']","['f', 'f', 'f']","['p248', 'p268', 'p245']","[10, 2, 6]","[93.00003341222717, 87.57049330475357, 91.58892582949886]",2.0,False,8.0,4.0,2.374837636947632,0.6479173760072636
0,,sub_101,2024-07-10 16:05:21,3,distance,cathedral,numerosity_judgement,4,21,4,countries_reversed,"['_Yemen_reversed', '_Peru_reversed', '_Cuba_reversed', '_Syria_reversed']","['f', 'f', 'm', 'm']","['p248', 'p245', 'p318', 'p307']","[4, 0, 5, 1]","[89.31368318402099, 84.40078082039426, 90.34149293193902, 86.2038576498559]",3.0,False,4.5,2.3804761428476167,1.4374020099639893,0.7775507887867439
0,,sub_101,2024-07-10 16:05:25,3,distance,cathedral,numerosity_judgement,4,22,5,countries_reversed,"['_Congo_reversed', '_Japan_reversed', '_Oman_reversed', '_Yemen_reversed', '_Peru_reversed']","['m', 'm', 'm', 'f', 'm']","['p307', 'p256', 'p229', 'p284', 'p318']","[10, 2, 9, 8, 0]","[93.00003341222717, 87.57049330475357, 92.00610777531934, 92.0152836843556, 84.40078082039426]",3.0,False,7.8,4.494441010848846,2.437286615371704,0.7659630007944614
0,,sub_101,2024-07-10 16:05:28,3,distance,cathedral,numerosity_judgement,4,23,6,countries_reversed,"['_Togo_reversed', '_Britain_reversed', '_Tonga_reversed', '_Oman_reversed', '_Mali_reversed', '_Cuba_reversed']","['m', 'm', 'f', 'f', 'm', 'm']","['p318', 'p229', 'p284', 'p268', 'p256', 'p307']","[5, 3, 1, 6, 4, 7]","[90.34149293193902, 89.14911522239515, 86.2038576498559, 91.58892582949886, 89.31368318402099, 91.73820004985969]",4.0,False,6.333333333333333,2.160246899469287,1.8749361038208008,0.7108387243218703
0,,sub_101,2024-07-10 16:05:31,3,distance,cathedral,numerosity_judgement,4,24,2,countries_reversed,"['_Tonga_reversed', '_Cuba_reversed']","['m', 'f']","['p256', 'p245']","[8, 9]","[92.0152836843556, 92.00610777531934]",2.0,True,10.5,0.7071067811865476,1.6873857975006104,0.7663715809783226
0,,sub_101,2024-07-10 16:05:33,3,distance,cathedral,numerosity_judgement,4,25,4,countries_reversed,"['_Oman_reversed', '_Yemen_reversed', '_Britain_reversed', '_Mali_reversed']","['m', 'm', 'm', 'm']","['p229', 'p318', 'p307', 'p256']","[5, 7, 9, 6]","[90.34149293193902, 91.73820004985969, 92.00610777531934, 91.58892582949886]",2.0,False,8.75,1.707825127659933,1.5623936653137207,0.6135966405629327
0,,sub_101,2024-07-10 16:05:36,3,distance,cathedral,numerosity_judgement,4,26,2,countries_reversed,"['_Yemen_reversed', '_Togo_reversed']","['m', 'm']","['p318', 'p256']","[4, 3]","[89.31368318402099, 89.14911522239515]",2.0,True,5.5,0.7071067811865476,1.6248884201049805,0.86474860969243
0,,sub_101,2024-07-10 16:05:40,3,distance,cathedral,numerosity_judgement,4,27,3,countries_reversed,"['_Yemen_reversed', '_Britain_reversed', '_Oman_reversed']","['f', 'm', 'm']","['p284', 'p318', 'p307']","[8, 2, 4]","[92.0152836843556, 87.57049330475357, 89.31368318402099]",3.0,True,6.666666666666667,3.0550504633038935,2.874741315841675,0.6563500170241743
0,,sub_101,2024-07-10 16:05:43,3,distance,cathedral,numerosity_judgement,4,28,5,countries_reversed,"['_Togo_reversed', '_Congo_reversed', '_Yemen_reversed', '_Peru_reversed', '_Tonga_reversed']","['f', 'm', 'm', 'f', 'f']","['p248', 'p307', 'p318', 'p245', 'p284']","[10, 0, 3, 8, 1]","[93.00003341222717, 84.40078082039426, 89.14911522239515, 92.0152836843556, 86.2038576498559]",4.0,False,6.4,4.39317652729776,1.515584945678711,0.901498127340824
0,,sub_101,2024-07-10 16:05:46,3,distance,cathedral,numerosity_judgement,4,29,6,countries_reversed,"['_Mali_reversed', '_Peru_reversed', '_Cuba_reversed', '_Britain_reversed', '_Yemen_reversed', '_Syria_reversed']","['m', 'm', 'm', 'm', 'f', 'f']","['p318', 'p307', 'p229', 'p256', 'p284', 'p245']","[3, 8, 7, 9, 2, 10]","[89.14911522239515, 92.0152836843556, 91.73820004985969, 92.00610777531934, 87.57049330475357, 93.00003341222717]",4.0,False,8.5,3.271085446759225,1.6873838901519775,0.8387470207694927
0,,sub_101,2024-07-10 16:05:50,3,distance,cathedral,numerosity_judgement,4,30,5,countries_reversed,"['_Sudan_reversed', '_Belgium_reversed', '_Togo_reversed', '_Congo_reversed', '_Japan_reversed']","['f', 'f', 'f', 'm', 'm']","['p284', 'p268', 'p248', 'p318', 'p307']","[2, 6, 1, 5, 4]","[87.57049330475357, 91.58892582949886, 86.2038576498559, 90.34149293193902, 89.31368318402099]",4.0,False,5.6,2.073644135332772,2.124917984008789,0.9545227556463513
0,,sub_101,2024-07-10 16:05:53,3,distance,cathedral,numerosity_judgement,4,31,3,countries_reversed,"['_Peru_reversed', '_Oman_reversed', '_Congo_reversed']","['f', 'f', 'f']","['p284', 'p248', 'p268']","[9, 5, 8]","[92.00610777531934, 90.34149293193902, 92.0152836843556]",3.0,True,9.333333333333334,2.0816659994661326,1.9373679161071777,0.6981840880717285
0,,sub_101,2024-07-10 16:05:57,3,distance,cathedral,numerosity_judgement,4,32,4,countries_reversed,"['_Oman_reversed', '_Syria_reversed', '_Japan_reversed', '_Mali_reversed']","['m', 'm', 'f', 'f']","['p256', 'p318', 'p245', 'p248']","[0, 10, 2, 1]","[84.40078082039426, 93.00003341222717, 87.57049330475357, 86.2038576498559]",4.0,True,5.25,4.573474244670748,2.749812602996826,0.8670979457496312
0,,sub_101,2024-07-10 16:06:01,3,distance,cathedral,numerosity_judgement,4,33,2,countries_reversed,"['_Yemen_reversed', '_Congo_reversed']","['f', 'f']","['p268', 'p248']","[9, 4]","[92.00610777531934, 89.31368318402099]",2.0,True,8.5,3.5355339059327378,3.124786138534546,0.7386675746226308
0,,sub_101,2024-07-10 16:06:06,3,distance,cathedral,numerosity_judgement,4,34,6,countries_reversed,"['_Mali_reversed', '_Syria_reversed', '_Cuba_reversed', '_Britain_reversed', '_Japan_reversed', '_Belgium_reversed']","['m', 'f', 'm', 'm', 'f', 'f']","['p229', 'p248', 'p307', 'p256', 'p268', 'p284']","[8, 4, 7, 1, 9, 2]","[92.0152836843556, 89.31368318402099, 91.73820004985969, 86.2038576498559, 92.00610777531934, 87.57049330475357]",4.0,False,7.166666666666667,3.3115957885386114,3.374769926071167,0.7918283963227783
