,event_id,subject_id,timestamp,session_index,plane,setup,task,block,trial_index,stim_number,stim_type,stim_country_ids,stim_sexes,stim_talker_ids,speaker_ids,stim_level,resp_number,is_correct,speaker_distance_mean,speaker_distance_st_dev,reaction_time,spectral_coverage
0,,sub_103_collocated,2024-08-07 11:54:57,3,distance,cathedral,numerosity_judgement,1,0,3,countries_reversed,"['_Cuba_reversed', '_Tonga_reversed', '_Oman_reversed']","['m', 'f', 'f']","['p307', 'p284', 'p245']","[7, 9, 5]","[91.73820004985969, 92.00610777531934, 90.34149293193902]",3.0,True,9.0,2.0,3.1247832775115967,0.5873453637498581
0,,sub_103_collocated,2024-08-07 11:55:02,3,distance,cathedral,numerosity_judgement,1,1,6,countries_reversed,"['_Congo_reversed', '_Belgium_reversed', '_Syria_reversed', '_Mali_reversed', '_Togo_reversed', '_Cuba_reversed']","['f', 'f', 'f', 'm', 'm', 'm']","['p284', 'p268', 'p248', 'p229', 'p256', 'p307']","[1, 10, 4, 3, 5, 7]","[86.2038576498559, 93.00003341222717, 89.31368318402099, 89.14911522239515, 90.34149293193902, 91.73820004985969]",4.0,False,7.0,3.1622776601683795,2.4998257160186768,0.8046078765179889
0,,sub_103_collocated,2024-08-07 11:55:07,3,distance,cathedral,numerosity_judgement,1,2,2,countries_reversed,"['_Togo_reversed', '_Tonga_reversed']","['f', 'm']","['p245', 'p256']","[7, 5]","[91.73820004985969, 90.34149293193902]",2.0,True,8.0,1.4142135623730951,3.0935351848602295,0.7134377482692089
0,,sub_103_collocated,2024-08-07 11:55:10,3,distance,cathedral,numerosity_judgement,1,3,4,countries_reversed,"['_Yemen_reversed', '_Peru_reversed', '_Japan_reversed', '_Syria_reversed']","['m', 'f', 'f', 'm']","['p256', 'p284', 'p268', 'p229']","[2, 1, 0, 3]","[87.57049330475357, 86.2038576498559, 84.40078082039426, 89.14911522239515]",4.0,True,3.5,1.2909944487358056,1.6248877048492432,0.9497900351832936
0,,sub_103_collocated,2024-08-07 11:55:14,3,distance,cathedral,numerosity_judgement,1,4,5,countries_reversed,"['_Togo_reversed', '_Japan_reversed', '_Britain_reversed', '_Congo_reversed', '_Syria_reversed']","['f', 'm', 'm', 'm', 'f']","['p268', 'p256', 'p307', 'p318', 'p248']","[7, 0, 6, 5, 4]","[91.73820004985969, 84.40078082039426, 91.58892582949886, 90.34149293193902, 89.31368318402099]",5.0,True,6.4,2.701851217221259,1.8436200618743896,0.858983089320168
0,,sub_103_collocated,2024-08-07 11:55:18,3,distance,cathedral,numerosity_judgement,1,5,6,countries_reversed,"['_Syria_reversed', '_Yemen_reversed', '_Oman_reversed', '_Peru_reversed', '_Sudan_reversed', '_Cuba_reversed']","['m', 'f', 'm', 'f', 'f', 'm']","['p256', 'p248', 'p307', 'p268', 'p284', 'p318']","[2, 3, 5, 6, 0, 10]","[87.57049330475357, 89.14911522239515, 90.34149293193902, 91.58892582949886, 84.40078082039426, 93.00003341222717]",4.0,False,6.333333333333333,3.5023801430836525,1.6092636585235596,0.6612870275791624
0,,sub_103_collocated,2024-08-07 11:55:22,3,distance,cathedral,numerosity_judgement,1,6,4,countries_reversed,"['_Oman_reversed', '_Yemen_reversed', '_Britain_reversed', '_Mali_reversed']","['m', 'm', 'm', 'm']","['p229', 'p318', 'p307', 'p256']","[5, 7, 9, 6]","[90.34149293193902, 91.73820004985969, 92.00610777531934, 91.58892582949886]",2.0,False,8.75,1.707825127659933,2.5154495239257812,0.6135966405629327
0,,sub_103_collocated,2024-08-07 11:55:26,3,distance,cathedral,numerosity_judgement,1,7,3,countries_reversed,"['_Cuba_reversed', '_Sudan_reversed', '_Oman_reversed']","['f', 'f', 'f']","['p245', 'p248', 'p268']","[10, 9, 4]","[93.00003341222717, 92.00610777531934, 89.31368318402099]",2.0,False,9.666666666666666,3.214550253664318,2.10922908782959,0.7472704573828169
0,,sub_103_collocated,2024-08-07 11:55:30,3,distance,cathedral,numerosity_judgement,1,8,5,countries_reversed,"['_Mali_reversed', '_Congo_reversed', '_Tonga_reversed', '_Cuba_reversed', '_Japan_reversed']","['m', 'f', 'f', 'm', 'm']","['p318', 'p268', 'p248', 'p229', 'p307']","[4, 9, 1, 0, 10]","[89.31368318402099, 92.00610777531934, 86.2038576498559, 84.40078082039426, 93.00003341222717]",4.0,False,6.8,4.54972526643093,1.390528678894043,0.957223924639655
0,,sub_103_collocated,2024-08-07 11:55:33,3,distance,cathedral,numerosity_judgement,1,9,2,countries_reversed,"['_Yemen_reversed', '_Mali_reversed']","['f', 'f']","['p268', 'p248']","[5, 1]","[90.34149293193902, 86.2038576498559]",2.0,True,5.0,2.8284271247461903,1.5155181884765625,0.891283622744297
0,,sub_103_collocated,2024-08-07 11:55:37,3,distance,cathedral,numerosity_judgement,1,10,4,countries_reversed,"['_Britain_reversed', '_Togo_reversed', '_Syria_reversed', '_Cuba_reversed']","['f', 'm', 'm', 'f']","['p248', 'p318', 'p256', 'p268']","[10, 6, 2, 3]","[93.00003341222717, 91.58892582949886, 87.57049330475357, 89.14911522239515]",3.0,False,7.25,3.593976442141304,2.1560990810394287,0.7316082170014754
0,,sub_103_collocated,2024-08-07 11:55:42,3,distance,cathedral,numerosity_judgement,1,11,2,countries_reversed,"['_Congo_reversed', '_Belgium_reversed']","['m', 'm']","['p256', 'p307']","[8, 9]","[92.0152836843556, 92.00610777531934]",2.0,True,10.5,0.7071067811865476,2.609705924987793,0.7646010668482579
0,,sub_103_collocated,2024-08-07 11:55:46,3,distance,cathedral,numerosity_judgement,1,12,3,countries_reversed,"['_Togo_reversed', '_Cuba_reversed', '_Peru_reversed']","['m', 'f', 'm']","['p318', 'p248', 'p256']","[1, 9, 5]","[86.2038576498559, 92.00610777531934, 90.34149293193902]",3.0,True,7.0,4.0,2.6716883182525635,0.7666666666666667
0,,sub_103_collocated,2024-08-07 11:55:51,3,distance,cathedral,numerosity_judgement,1,13,6,countries_reversed,"['_Oman_reversed', '_Sudan_reversed', '_Syria_reversed', '_Mali_reversed', '_Tonga_reversed', '_Congo_reversed']","['m', 'f', 'm', 'f', 'f', 'm']","['p318', 'p245', 'p256', 'p268', 'p248', 'p307']","[0, 10, 3, 5, 8, 4]","[84.40078082039426, 93.00003341222717, 89.14911522239515, 90.34149293193902, 92.0152836843556, 89.31368318402099]",4.0,False,7.0,3.5777087639996634,2.359210968017578,0.9246510044262852
0,,sub_103_collocated,2024-08-07 11:55:55,3,distance,cathedral,numerosity_judgement,1,14,5,countries_reversed,"['_Congo_reversed', '_Mali_reversed', '_Yemen_reversed', '_Belgium_reversed', '_Togo_reversed']","['m', 'm', 'f', 'f', 'f']","['p318', 'p256', 'p248', 'p284', 'p245']","[3, 7, 5, 6, 2]","[89.14911522239515, 91.73820004985969, 90.34149293193902, 91.58892582949886, 87.57049330475357]",5.0,True,6.6,2.073644135332772,2.5154502391815186,0.7559754851889683
0,,sub_103_collocated,2024-08-07 11:56:00,3,distance,cathedral,numerosity_judgement,1,15,3,countries_reversed,"['_Syria_reversed', '_Sudan_reversed', '_Congo_reversed']","['m', 'f', 'm']","['p256', 'p248', 'p229']","[10, 9, 6]","[93.00003341222717, 92.00610777531934, 91.58892582949886]",3.0,True,10.333333333333334,2.0816659994661326,2.8123035430908203,0.8077743729429123
0,,sub_103_collocated,2024-08-07 11:56:03,3,distance,cathedral,numerosity_judgement,1,16,2,countries_reversed,"['_Cuba_reversed', '_Oman_reversed']","['m', 'm']","['p318', 'p307']","[3, 4]","[89.14911522239515, 89.31368318402099]",2.0,True,5.5,0.7071067811865476,1.3905284404754639,0.6099421178072864
0,,sub_103_collocated,2024-08-07 11:56:08,3,distance,cathedral,numerosity_judgement,1,17,6,countries_reversed,"['_Yemen_reversed', '_Togo_reversed', '_Oman_reversed', '_Peru_reversed', '_Sudan_reversed', '_Congo_reversed']","['f', 'f', 'm', 'f', 'm', 'f']","['p268', 'p245', 'p307', 'p284', 'p318', 'p248']","[10, 6, 1, 8, 5, 4]","[93.00003341222717, 91.58892582949886, 86.2038576498559, 92.0152836843556, 90.34149293193902, 89.31368318402099]",4.0,False,7.666666666666667,3.141125063837266,2.6560659408569336,0.8581318806037908
0,,sub_103_collocated,2024-08-07 11:56:12,3,distance,cathedral,numerosity_judgement,1,18,4,countries_reversed,"['_Peru_reversed', '_Japan_reversed', '_Cuba_reversed', '_Mali_reversed']","['m', 'f', 'm', 'f']","['p256', 'p284', 'p229', 'p245']","[2, 3, 4, 5]","[87.57049330475357, 89.14911522239515, 89.31368318402099, 90.34149293193902]",3.0,False,5.5,1.2909944487358056,1.7967529296875,0.8045397798206787
0,,sub_103_collocated,2024-08-07 11:56:16,3,distance,cathedral,numerosity_judgement,1,19,5,countries_reversed,"['_Cuba_reversed', '_Belgium_reversed', '_Sudan_reversed', '_Peru_reversed', '_Yemen_reversed']","['f', 'f', 'm', 'f', 'm']","['p268', 'p245', 'p307', 'p248', 'p318']","[1, 10, 0, 5, 8]","[86.2038576498559, 93.00003341222717, 84.40078082039426, 90.34149293193902, 92.0152836843556]",4.0,False,6.8,4.324349662087931,1.8279986381530762,0.9233798660764952
0,,sub_103_collocated,2024-08-07 11:56:20,3,distance,cathedral,numerosity_judgement,1,20,6,countries_reversed,"['_Togo_reversed', '_Congo_reversed', '_Cuba_reversed', '_Yemen_reversed', '_Mali_reversed', '_Oman_reversed']","['m', 'm', 'f', 'f', 'f', 'f']","['p256', 'p229', 'p245', 'p268', 'p248', 'p284']","[8, 1, 5, 9, 10, 6]","[92.0152836843556, 86.2038576498559, 90.34149293193902, 92.00610777531934, 93.00003341222717, 91.58892582949886]",5.0,False,8.5,3.271085446759225,1.5311439037322998,0.683270911360799
0,,sub_103_collocated,2024-08-07 11:56:23,3,distance,cathedral,numerosity_judgement,1,21,4,countries_reversed,"['_Peru_reversed', '_Cuba_reversed', '_Mali_reversed', '_Belgium_reversed']","['m', 'f', 'f', 'm']","['p256', 'p284', 'p268', 'p318']","[6, 2, 10, 9]","[91.58892582949886, 87.57049330475357, 93.00003341222717, 92.00610777531934]",4.0,True,8.75,3.593976442141304,1.7186307907104492,0.9270797866303484
0,,sub_103_collocated,2024-08-07 11:56:28,3,distance,cathedral,numerosity_judgement,1,22,5,countries_reversed,"['_Oman_reversed', '_Belgium_reversed', '_Togo_reversed', '_Cuba_reversed', '_Congo_reversed']","['m', 'f', 'f', 'm', 'f']","['p229', 'p248', 'p284', 'p307', 'p245']","[8, 6, 1, 7, 9]","[92.0152836843556, 91.58892582949886, 86.2038576498559, 91.73820004985969, 92.00610777531934]",4.0,False,8.2,3.1144823004794873,2.37483549118042,0.8054704346839179
0,,sub_103_collocated,2024-08-07 11:56:31,3,distance,cathedral,numerosity_judgement,1,23,3,countries_reversed,"['_Togo_reversed', '_Belgium_reversed', '_Sudan_reversed']","['m', 'm', 'f']","['p318', 'p307', 'p268']","[4, 7, 5]","[89.31368318402099, 91.73820004985969, 90.34149293193902]",3.0,True,7.333333333333333,1.5275252316519465,1.609262228012085,0.917739189649302
0,,sub_103_collocated,2024-08-07 11:56:34,3,distance,cathedral,numerosity_judgement,1,24,2,countries_reversed,"['_Oman_reversed', '_Congo_reversed']","['f', 'f']","['p245', 'p284']","[6, 5]","[91.58892582949886, 90.34149293193902]",2.0,True,7.5,0.7071067811865476,1.1717922687530518,0.685813188060379
0,,sub_103_collocated,2024-08-07 11:56:37,3,distance,cathedral,numerosity_judgement,1,25,6,countries_reversed,"['_Togo_reversed', '_Oman_reversed', '_Japan_reversed', '_Yemen_reversed', '_Syria_reversed', '_Britain_reversed']","['m', 'f', 'f', 'm', 'm', 'm']","['p229', 'p245', 'p248', 'p318', 'p256', 'p307']","[5, 1, 6, 2, 9, 0]","[90.34149293193902, 86.2038576498559, 91.58892582949886, 87.57049330475357, 92.00610777531934, 84.40078082039426]",4.0,False,5.833333333333333,3.430257521916783,1.3280320167541504,0.7780955623652253
0,,sub_103_collocated,2024-08-07 11:56:41,3,distance,cathedral,numerosity_judgement,1,26,4,countries_reversed,"['_Togo_reversed', '_Mali_reversed', '_Sudan_reversed', '_Japan_reversed']","['m', 'm', 'f', 'f']","['p307', 'p229', 'p248', 'p268']","[6, 0, 8, 1]","[91.58892582949886, 84.40078082039426, 92.0152836843556, 86.2038576498559]",3.0,False,5.75,3.8622100754188224,2.327963352203369,0.8651685393258427
0,,sub_103_collocated,2024-08-07 11:56:45,3,distance,cathedral,numerosity_judgement,1,27,3,countries_reversed,"['_Togo_reversed', '_Belgium_reversed', '_Sudan_reversed']","['f', 'f', 'f']","['p268', 'p284', 'p248']","[4, 10, 1]","[89.31368318402099, 93.00003341222717, 86.2038576498559]",2.0,False,7.0,4.58257569495584,1.6873822212219238,0.9571217795936896
0,,sub_103_collocated,2024-08-07 11:56:49,3,distance,cathedral,numerosity_judgement,1,28,5,countries_reversed,"['_Cuba_reversed', '_Sudan_reversed', '_Congo_reversed', '_Togo_reversed', '_Yemen_reversed']","['m', 'm', 'm', 'f', 'f']","['p318', 'p229', 'p256', 'p268', 'p284']","[5, 0, 4, 10, 8]","[90.34149293193902, 84.40078082039426, 89.31368318402099, 93.00003341222717, 92.0152836843556]",4.0,False,7.4,3.847076812334269,1.9373650550842285,0.7947338554080127
0,,sub_103_collocated,2024-08-07 11:56:52,3,distance,cathedral,numerosity_judgement,1,29,2,countries_reversed,"['_Peru_reversed', '_Tonga_reversed']","['f', 'f']","['p245', 'p248']","[2, 5]","[87.57049330475357, 90.34149293193902]",2.0,True,5.5,2.1213203435596424,1.4061522483825684,0.8136760867097945
0,,sub_103_collocated,2024-08-07 11:56:55,3,distance,cathedral,numerosity_judgement,1,30,4,countries_reversed,"['_Tonga_reversed', '_Oman_reversed', '_Japan_reversed', '_Syria_reversed']","['f', 'm', 'f', 'f']","['p245', 'p256', 'p268', 'p284']","[7, 0, 6, 10]","[91.73820004985969, 84.40078082039426, 91.58892582949886, 93.00003341222717]",3.0,False,7.75,4.193248541803041,1.578014612197876,0.8402905459085235
0,,sub_103_collocated,2024-08-07 11:57:00,3,distance,cathedral,numerosity_judgement,1,31,3,countries_reversed,"['_Oman_reversed', '_Peru_reversed', '_Cuba_reversed']","['f', 'f', 'm']","['p284', 'p248', 'p307']","[6, 10, 7]","[91.58892582949886, 93.00003341222717, 91.73820004985969]",3.0,True,9.666666666666666,2.0816659994661326,3.1872780323028564,0.6376234252638747
0,,sub_103_collocated,2024-08-07 11:57:03,3,distance,cathedral,numerosity_judgement,1,32,2,countries_reversed,"['_Yemen_reversed', '_Mali_reversed']","['m', 'm']","['p256', 'p318']","[0, 4]","[84.40078082039426, 89.31368318402099]",2.0,True,4.0,2.8284271247461903,1.2499148845672607,0.9306435137895812
0,,sub_103_collocated,2024-08-07 11:57:07,3,distance,cathedral,numerosity_judgement,1,33,6,countries_reversed,"['_Belgium_reversed', '_Congo_reversed', '_Mali_reversed', '_Sudan_reversed', '_Togo_reversed', '_Yemen_reversed']","['m', 'm', 'f', 'm', 'f', 'm']","['p256', 'p229', 'p284', 'p318', 'p245', 'p307']","[9, 2, 1, 0, 5, 10]","[92.00610777531934, 87.57049330475357, 86.2038576498559, 84.40078082039426, 90.34149293193902, 93.00003341222717]",4.0,False,6.5,4.230839160261236,1.7186305522918701,0.8892293723754398
0,,sub_103_collocated,2024-08-07 11:57:10,3,distance,cathedral,numerosity_judgement,1,34,5,countries_reversed,"['_Japan_reversed', '_Yemen_reversed', '_Britain_reversed', '_Sudan_reversed', '_Congo_reversed']","['f', 'm', 'f', 'f', 'f']","['p245', 'p318', 'p248', 'p268', 'p284']","[10, 8, 1, 3, 5]","[93.00003341222717, 92.0152836843556, 86.2038576498559, 89.14911522239515, 90.34149293193902]",5.0,True,7.4,3.646916505762094,1.078049898147583,0.9029054590852345
0,,sub_103_collocated,2024-08-07 11:57:14,3,distance,cathedral,numerosity_judgement,1,35,6,countries_reversed,"['_Congo_reversed', '_Japan_reversed', '_Syria_reversed', '_Cuba_reversed', '_Belgium_reversed', '_Yemen_reversed']","['f', 'm', 'm', 'f', 'm', 'm']","['p248', 'p256', 'p318', 'p284', 'p229', 'p307']","[10, 3, 6, 4, 5, 8]","[93.00003341222717, 89.14911522239515, 91.58892582949886, 89.31368318402099, 90.34149293193902, 92.0152836843556]",6.0,True,8.0,2.6076809620810595,1.499894618988037,0.702621722846442
0,,sub_103_collocated,2024-08-07 11:57:18,3,distance,cathedral,numerosity_judgement,1,36,2,countries_reversed,"['_Oman_reversed', '_Cuba_reversed']","['f', 'm']","['p268', 'p256']","[7, 8]","[91.73820004985969, 92.0152836843556]",2.0,True,9.5,0.7071067811865476,2.890425682067871,0.7538304392236976
0,,sub_103_collocated,2024-08-07 11:57:22,3,distance,cathedral,numerosity_judgement,1,37,5,countries_reversed,"['_Sudan_reversed', '_Mali_reversed', '_Yemen_reversed', '_Oman_reversed', '_Peru_reversed']","['m', 'm', 'f', 'm', 'm']","['p256', 'p318', 'p248', 'p307', 'p229']","[9, 1, 0, 5, 4]","[92.00610777531934, 86.2038576498559, 84.40078082039426, 90.34149293193902, 89.31368318402099]",3.0,False,5.8,3.5637059362410923,1.421776294708252,0.7417092271024855
0,,sub_103_collocated,2024-08-07 11:57:25,3,distance,cathedral,numerosity_judgement,1,38,4,countries_reversed,"['_Peru_reversed', '_Yemen_reversed', '_Togo_reversed', '_Cuba_reversed']","['m', 'f', 'm', 'f']","['p229', 'p248', 'p318', 'p245']","[2, 10, 0, 5]","[87.57049330475357, 93.00003341222717, 84.40078082039426, 90.34149293193902]",4.0,True,6.25,4.349329450233296,1.3592801094055176,0.6749290659403019
0,,sub_103_collocated,2024-08-07 11:57:29,3,distance,cathedral,numerosity_judgement,1,39,3,countries_reversed,"['_Japan_reversed', '_Oman_reversed', '_Belgium_reversed']","['f', 'f', 'm']","['p284', 'p268', 'p256']","[6, 10, 4]","[91.58892582949886, 93.00003341222717, 89.31368318402099]",3.0,True,8.666666666666666,3.055050463303893,2.1873483657836914,0.8875950516399954
0,,sub_103_collocated,2024-08-07 11:57:33,3,distance,cathedral,numerosity_judgement,1,40,4,countries_reversed,"['_Peru_reversed', '_Britain_reversed', '_Yemen_reversed', '_Congo_reversed']","['m', 'f', 'f', 'm']","['p307', 'p245', 'p268', 'p256']","[6, 0, 4, 3]","[91.58892582949886, 84.40078082039426, 89.31368318402099, 89.14911522239515]",4.0,True,5.25,2.5,1.8748700618743896,0.6504256043581886
0,,sub_103_collocated,2024-08-07 11:57:36,3,distance,cathedral,numerosity_judgement,1,41,2,countries_reversed,"['_Oman_reversed', '_Yemen_reversed']","['m', 'f']","['p256', 'p245']","[3, 5]","[89.14911522239515, 90.34149293193902]",2.0,True,6.0,1.4142135623730951,1.3436570167541504,0.5576552037226195
0,,sub_103_collocated,2024-08-07 11:57:39,3,distance,cathedral,numerosity_judgement,1,42,5,countries_reversed,"['_Peru_reversed', '_Belgium_reversed', '_Syria_reversed', '_Togo_reversed', '_Yemen_reversed']","['m', 'm', 'f', 'f', 'm']","['p256', 'p307', 'p268', 'p248', 'p229']","[0, 1, 9, 2, 8]","[84.40078082039426, 86.2038576498559, 92.00610777531934, 87.57049330475357, 92.0152836843556]",4.0,False,6.0,4.183300132670378,1.4842722415924072,0.9353989331517422
0,,sub_103_collocated,2024-08-07 11:57:43,3,distance,cathedral,numerosity_judgement,1,43,3,countries_reversed,"['_Yemen_reversed', '_Syria_reversed', '_Japan_reversed']","['m', 'm', 'f']","['p229', 'p256', 'p284']","[4, 1, 3]","[89.31368318402099, 86.2038576498559, 89.14911522239515]",3.0,True,4.666666666666667,1.5275252316519465,1.8123743534088135,0.9306662126886844
0,,sub_103_collocated,2024-08-07 11:57:48,3,distance,cathedral,numerosity_judgement,1,44,6,countries_reversed,"['_Tonga_reversed', '_Togo_reversed', '_Cuba_reversed', '_Congo_reversed', '_Sudan_reversed', '_Oman_reversed']","['m', 'm', 'f', 'f', 'm', 'f']","['p307', 'p256', 'p245', 'p268', 'p229', 'p248']","[8, 6, 7, 0, 1, 3]","[92.0152836843556, 91.58892582949886, 91.73820004985969, 84.40078082039426, 86.2038576498559, 89.14911522239515]",4.0,False,6.166666666666667,3.3115957885386114,3.140406608581543,0.7853819089774146
0,,sub_103_collocated,2024-08-07 11:57:51,3,distance,cathedral,numerosity_judgement,1,45,3,countries_reversed,"['_Peru_reversed', '_Belgium_reversed', '_Oman_reversed']","['f', 'm', 'f']","['p268', 'p229', 'p245']","[10, 2, 5]","[93.00003341222717, 87.57049330475357, 90.34149293193902]",2.0,False,7.666666666666667,4.041451884327381,1.4686477184295654,0.6891272273294745
0,,sub_103_collocated,2024-08-07 11:57:55,3,distance,cathedral,numerosity_judgement,1,46,4,countries_reversed,"['_Oman_reversed', '_Togo_reversed', '_Peru_reversed', '_Syria_reversed']","['m', 'm', 'f', 'f']","['p229', 'p307', 'p268', 'p248']","[5, 4, 1, 6]","[90.34149293193902, 89.31368318402099, 86.2038576498559, 91.58892582949886]",3.0,False,6.0,2.160246899469287,1.6561357975006104,0.8842469640222449
0,,sub_103_collocated,2024-08-07 11:57:59,3,distance,cathedral,numerosity_judgement,1,47,5,countries_reversed,"['_Congo_reversed', '_Cuba_reversed', '_Syria_reversed', '_Mali_reversed', '_Tonga_reversed']","['f', 'f', 'm', 'm', 'f']","['p268', 'p248', 'p318', 'p256', 'p245']","[2, 9, 0, 3, 1]","[87.57049330475357, 92.00610777531934, 84.40078082039426, 89.14911522239515, 86.2038576498559]",5.0,True,5.0,3.5355339059327378,2.202971935272217,0.8279650436953808
0,,sub_103_collocated,2024-08-07 11:58:03,3,distance,cathedral,numerosity_judgement,1,48,2,countries_reversed,"['_Congo_reversed', '_Syria_reversed']","['f', 'f']","['p245', 'p284']","[5, 2]","[90.34149293193902, 87.57049330475357]",2.0,True,5.5,2.1213203435596424,1.8748693466186523,0.9188400862558166
0,,sub_103_collocated,2024-08-07 11:58:07,3,distance,cathedral,numerosity_judgement,1,49,6,countries_reversed,"['_Congo_reversed', '_Mali_reversed', '_Cuba_reversed', '_Sudan_reversed', '_Britain_reversed', '_Belgium_reversed']","['f', 'm', 'm', 'm', 'f', 'f']","['p268', 'p307', 'p318', 'p256', 'p245', 'p248']","[10, 3, 9, 4, 1, 2]","[93.00003341222717, 89.14911522239515, 92.00610777531934, 89.31368318402099, 86.2038576498559, 87.57049330475357]",3.0,False,6.833333333333333,3.763863263545405,1.6873819828033447,0.8723981386902735
0,,sub_103_collocated,2024-08-07 11:58:12,3,distance,cathedral,numerosity_judgement,1,50,2,countries_reversed,"['_Yemen_reversed', '_Tonga_reversed']","['f', 'm']","['p248', 'p256']","[8, 6]","[92.0152836843556, 91.58892582949886]",4.0,False,9.0,1.4142135623730951,2.4529547691345215,0.6640789921688798
0,,sub_103_collocated,2024-08-07 11:58:16,3,distance,cathedral,numerosity_judgement,1,51,4,countries_reversed,"['_Cuba_reversed', '_Peru_reversed', '_Oman_reversed', '_Britain_reversed']","['f', 'f', 'm', 'f']","['p248', 'p284', 'p307', 'p268']","[8, 4, 9, 5]","[92.0152836843556, 89.31368318402099, 92.00610777531934, 90.34149293193902]",3.0,False,8.5,2.3804761428476167,2.202972412109375,0.7483259561911247
0,,sub_103_collocated,2024-08-07 11:58:20,3,distance,cathedral,numerosity_judgement,1,52,3,countries_reversed,"['_Cuba_reversed', '_Mali_reversed', '_Yemen_reversed']","['f', 'm', 'f']","['p245', 'p256', 'p284']","[5, 3, 8]","[90.34149293193902, 89.14911522239515, 92.0152836843556]",3.0,True,7.333333333333333,2.516611478423583,2.0154836177825928,0.6688344115310407
0,,sub_103_collocated,2024-08-07 11:58:23,3,distance,cathedral,numerosity_judgement,1,53,6,countries_reversed,"['_Tonga_reversed', '_Oman_reversed', '_Congo_reversed', '_Togo_reversed', '_Cuba_reversed', '_Sudan_reversed']","['m', 'm', 'f', 'f', 'f', 'f']","['p307', 'p256', 'p245', 'p268', 'p248', 'p284']","[9, 2, 8, 3, 4, 6]","[92.00610777531934, 87.57049330475357, 92.0152836843556, 89.14911522239515, 89.31368318402099, 91.58892582949886]",4.0,False,7.333333333333333,2.804757862395017,1.6092643737792969,0.8341958914992623
0,,sub_103_collocated,2024-08-07 11:58:29,3,distance,cathedral,numerosity_judgement,1,54,5,countries_reversed,"['_Yemen_reversed', '_Cuba_reversed', '_Congo_reversed', '_Britain_reversed', '_Tonga_reversed']","['m', 'f', 'm', 'f', 'f']","['p256', 'p268', 'p229', 'p245', 'p248']","[5, 6, 3, 8, 1]","[90.34149293193902, 91.58892582949886, 89.14911522239515, 92.0152836843556, 86.2038576498559]",5.0,True,6.6,2.701851217221259,3.5778772830963135,0.6996141187152423
0,,sub_103_collocated,2024-08-07 11:58:34,3,distance,cathedral,numerosity_judgement,1,55,6,countries_reversed,"['_Britain_reversed', '_Congo_reversed', '_Belgium_reversed', '_Syria_reversed', '_Japan_reversed', '_Togo_reversed']","['f', 'f', 'f', 'm', 'm', 'f']","['p245', 'p284', 'p248', 'p307', 'p318', 'p268']","[8, 4, 5, 2, 9, 0]","[92.0152836843556, 89.31368318402099, 90.34149293193902, 87.57049330475357, 92.00610777531934, 84.40078082039426]",4.0,False,6.666666666666667,3.444802848737017,3.812234878540039,0.9294518215866532
0,,sub_103_collocated,2024-08-07 11:58:38,3,distance,cathedral,numerosity_judgement,1,56,5,countries_reversed,"['_Cuba_reversed', '_Peru_reversed', '_Britain_reversed', '_Mali_reversed', '_Yemen_reversed']","['m', 'f', 'm', 'm', 'f']","['p307', 'p284', 'p318', 'p256', 'p248']","[5, 10, 4, 3, 7]","[90.34149293193902, 93.00003341222717, 89.31368318402099, 89.14911522239515, 91.73820004985969]",3.0,False,7.8,2.7748873851023212,1.9373664855957031,0.7292702303938259
0,,sub_103_collocated,2024-08-07 11:58:42,3,distance,cathedral,numerosity_judgement,1,57,4,countries_reversed,"['_Japan_reversed', '_Tonga_reversed', '_Peru_reversed', '_Oman_reversed']","['m', 'f', 'm', 'f']","['p256', 'p245', 'p318', 'p284']","[2, 8, 5, 3]","[87.57049330475357, 92.0152836843556, 90.34149293193902, 89.14911522239515]",5.0,False,6.5,2.6457513110645907,1.2655365467071533,0.7710475541936216
0,,sub_103_collocated,2024-08-07 11:58:45,3,distance,cathedral,numerosity_judgement,1,58,3,countries_reversed,"['_Britain_reversed', '_Peru_reversed', '_Oman_reversed']","['f', 'f', 'm']","['p245', 'p284', 'p307']","[4, 2, 10]","[89.31368318402099, 87.57049330475357, 93.00003341222717]",2.0,False,7.333333333333333,4.163331998932266,1.2342891693115234,0.8400749063670412
0,,sub_103_collocated,2024-08-07 11:58:48,3,distance,cathedral,numerosity_judgement,1,59,2,countries_reversed,"['_Japan_reversed', '_Togo_reversed']","['m', 'f']","['p229', 'p284']","[4, 3]","[89.31368318402099, 89.14911522239515]",2.0,True,5.5,0.7071067811865476,1.3592815399169922,0.9629326977641584
0,,sub_103_collocated,2024-08-07 11:58:53,3,distance,cathedral,numerosity_judgement,1,60,6,countries_reversed,"['_Britain_reversed', '_Japan_reversed', '_Cuba_reversed', '_Tonga_reversed', '_Yemen_reversed', '_Mali_reversed']","['f', 'm', 'm', 'f', 'f', 'm']","['p284', 'p256', 'p318', 'p248', 'p268', 'p307']","[7, 8, 5, 2, 1, 10]","[91.73820004985969, 92.0152836843556, 90.34149293193902, 87.57049330475357, 86.2038576498559, 93.00003341222717]",4.0,False,7.5,3.5071355833500366,1.9373657703399658,0.7500510725229826
0,,sub_103_collocated,2024-08-07 11:58:57,3,distance,cathedral,numerosity_judgement,1,61,3,countries_reversed,"['_Syria_reversed', '_Japan_reversed', '_Oman_reversed']","['m', 'm', 'f']","['p318', 'p256', 'p248']","[8, 4, 10]","[92.0152836843556, 89.31368318402099, 93.00003341222717]",3.0,True,9.333333333333334,3.055050463303893,1.7967503070831299,0.8356372715923278
0,,sub_103_collocated,2024-08-07 11:59:01,3,distance,cathedral,numerosity_judgement,1,62,4,countries_reversed,"['_Mali_reversed', '_Peru_reversed', '_Syria_reversed', '_Britain_reversed']","['f', 'm', 'm', 'm']","['p248', 'p318', 'p256', 'p229']","[7, 2, 9, 1]","[91.73820004985969, 87.57049330475357, 92.00610777531934, 86.2038576498559]",3.0,False,6.75,3.8622100754188224,2.1717236042022705,0.9235274089206672
0,,sub_103_collocated,2024-08-07 11:59:04,3,distance,cathedral,numerosity_judgement,1,63,5,countries_reversed,"['_Belgium_reversed', '_Congo_reversed', '_Cuba_reversed', '_Peru_reversed', '_Togo_reversed']","['m', 'm', 'f', 'm', 'f']","['p229', 'p256', 'p245', 'p307', 'p284']","[8, 3, 5, 10, 2]","[92.0152836843556, 89.14911522239515, 90.34149293193902, 93.00003341222717, 87.57049330475357]",4.0,False,7.6,3.361547262794322,1.515519618988037,0.6736579275905119
0,,sub_103_collocated,2024-08-07 11:59:07,3,distance,cathedral,numerosity_judgement,1,64,2,countries_reversed,"['_Yemen_reversed', '_Japan_reversed']","['m', 'm']","['p256', 'p307']","[4, 0]","[89.31368318402099, 84.40078082039426]",2.0,True,4.0,2.8284271247461903,1.4998979568481445,0.8039496084439904
0,,sub_103_collocated,2024-08-07 11:59:12,3,distance,cathedral,numerosity_judgement,1,65,4,countries_reversed,"['_Cuba_reversed', '_Peru_reversed', '_Japan_reversed', '_Oman_reversed']","['m', 'f', 'f', 'f']","['p229', 'p268', 'p248', 'p245']","[10, 0, 7, 4]","[93.00003341222717, 84.40078082039426, 91.73820004985969, 89.31368318402099]",3.0,False,7.25,4.272001872658765,2.4842021465301514,0.8019634547724436
0,,sub_103_collocated,2024-08-07 11:59:17,3,distance,cathedral,numerosity_judgement,1,66,6,countries_reversed,"['_Yemen_reversed', '_Belgium_reversed', '_Syria_reversed', '_Japan_reversed', '_Congo_reversed', '_Mali_reversed']","['f', 'm', 'm', 'f', 'm', 'f']","['p268', 'p307', 'p256', 'p248', 'p318', 'p284']","[0, 5, 2, 4, 6, 8]","[84.40078082039426, 90.34149293193902, 87.57049330475357, 89.31368318402099, 91.58892582949886, 92.0152836843556]",4.0,False,6.166666666666667,2.857738033247041,2.827928066253662,0.95913063216434
0,,sub_103_collocated,2024-08-07 11:59:21,3,distance,cathedral,numerosity_judgement,1,67,5,countries_reversed,"['_Togo_reversed', '_Tonga_reversed', '_Oman_reversed', '_Mali_reversed', '_Yemen_reversed']","['f', 'm', 'm', 'm', 'f']","['p245', 'p256', 'p307', 'p318', 'p248']","[10, 3, 6, 9, 5]","[93.00003341222717, 89.14911522239515, 91.58892582949886, 92.00610777531934, 90.34149293193902]",4.0,False,8.6,2.8809720581775866,2.0779805183410645,0.6536828963795256
0,,sub_103_collocated,2024-08-07 11:59:25,3,distance,cathedral,numerosity_judgement,1,68,2,countries_reversed,"['_Congo_reversed', '_Syria_reversed']","['f', 'm']","['p245', 'p318']","[8, 10]","[92.0152836843556, 93.00003341222717]",3.0,False,11.0,1.4142135623730951,2.0467326641082764,0.8533878106911815
0,,sub_103_collocated,2024-08-07 11:59:28,3,distance,cathedral,numerosity_judgement,1,69,3,countries_reversed,"['_Tonga_reversed', '_Syria_reversed', '_Britain_reversed']","['m', 'f', 'm']","['p229', 'p248', 'p256']","[3, 10, 8]","[89.14911522239515, 93.00003341222717, 92.0152836843556]",2.0,False,9.0,3.605551275463989,2.015484094619751,0.7297469072749971
0,,sub_103_collocated,2024-08-07 11:59:32,3,distance,cathedral,numerosity_judgement,1,70,6,countries_reversed,"['_Mali_reversed', '_Oman_reversed', '_Yemen_reversed', '_Cuba_reversed', '_Congo_reversed', '_Togo_reversed']","['m', 'f', 'f', 'm', 'f', 'm']","['p256', 'p245', 'p268', 'p307', 'p284', 'p318']","[6, 10, 8, 9, 7, 0]","[91.58892582949886, 93.00003341222717, 92.0152836843556, 92.00610777531934, 91.73820004985969, 84.40078082039426]",5.0,False,8.666666666666666,3.559026084010437,1.3436570167541504,0.7264782658041085
0,,sub_103_collocated,2024-08-07 11:59:35,3,distance,cathedral,numerosity_judgement,1,71,3,countries_reversed,"['_Oman_reversed', '_Cuba_reversed', '_Yemen_reversed']","['m', 'm', 'f']","['p256', 'p307', 'p248']","[10, 7, 4]","[93.00003341222717, 91.73820004985969, 89.31368318402099]",2.0,False,9.0,3.0,1.6248860359191895,0.6046419248666439
0,,sub_103_collocated,2024-08-07 11:59:38,3,distance,cathedral,numerosity_judgement,1,72,2,countries_reversed,"['_Britain_reversed', '_Yemen_reversed']","['m', 'm']","['p307', 'p256']","[3, 10]","[89.14911522239515, 93.00003341222717]",2.0,True,8.5,4.949747468305833,1.578014612197876,0.6303597775507888
0,,sub_103_collocated,2024-08-07 11:59:41,3,distance,cathedral,numerosity_judgement,1,73,5,countries_reversed,"['_Sudan_reversed', '_Syria_reversed', '_Congo_reversed', '_Belgium_reversed', '_Mali_reversed']","['m', 'm', 'f', 'f', 'm']","['p229', 'p318', 'p248', 'p245', 'p256']","[0, 7, 10, 4, 9]","[84.40078082039426, 91.73820004985969, 93.00003341222717, 89.31368318402099, 92.00610777531934]",3.0,False,8.0,4.06201920231798,1.234290599822998,0.8785949381454999
0,,sub_103_collocated,2024-08-07 11:59:46,3,distance,cathedral,numerosity_judgement,1,74,4,countries_reversed,"['_Yemen_reversed', '_Belgium_reversed', '_Cuba_reversed', '_Oman_reversed']","['m', 'f', 'f', 'f']","['p307', 'p284', 'p245', 'p248']","[7, 2, 5, 0]","[91.73820004985969, 87.57049330475357, 90.34149293193902, 84.40078082039426]",3.0,False,5.5,3.1091263510296048,3.343517303466797,0.6890250822835092
0,,sub_103_collocated,2024-08-07 12:02:12,3,distance,cathedral,numerosity_judgement,2,0,2,countries_reversed,"['_Cuba_reversed', '_Yemen_reversed']","['m', 'm']","['p318', 'p229']","[4, 10]","[89.31368318402099, 93.00003341222717]",2.0,True,9.0,4.242640687119285,3.4841346740722656,0.8413914425150381
0,,sub_103_collocated,2024-08-07 12:02:16,3,distance,cathedral,numerosity_judgement,2,1,4,countries_reversed,"['_Syria_reversed', '_Yemen_reversed', '_Sudan_reversed', '_Britain_reversed']","['m', 'm', 'f', 'm']","['p318', 'p229', 'p248', 'p307']","[0, 5, 1, 2]","[84.40078082039426, 90.34149293193902, 86.2038576498559, 87.57049330475357]",3.0,False,4.0,2.160246899469287,1.2499141693115234,0.8914084666893656
0,,sub_103_collocated,2024-08-07 12:02:20,3,distance,cathedral,numerosity_judgement,2,2,3,countries_reversed,"['_Sudan_reversed', '_Yemen_reversed', '_Japan_reversed']","['f', 'm', 'f']","['p248', 'p256', 'p245']","[0, 1, 8]","[84.40078082039426, 86.2038576498559, 92.0152836843556]",3.0,True,5.0,4.358898943540674,2.0154850482940674,0.91632050845534
0,,sub_103_collocated,2024-08-07 12:02:23,3,distance,cathedral,numerosity_judgement,2,3,5,countries_reversed,"['_Belgium_reversed', '_Peru_reversed', '_Cuba_reversed', '_Sudan_reversed', '_Tonga_reversed']","['m', 'm', 'f', 'm', 'f']","['p307', 'p318', 'p268', 'p229', 'p248']","[0, 10, 6, 7, 8]","[84.40078082039426, 93.00003341222717, 91.58892582949886, 91.73820004985969, 92.0152836843556]",4.0,False,8.2,3.7682887362833544,1.5467679500579834,0.8934513676086709
0,,sub_103_collocated,2024-08-07 12:02:26,3,distance,cathedral,numerosity_judgement,2,4,6,countries_reversed,"['_Britain_reversed', '_Peru_reversed', '_Japan_reversed', '_Cuba_reversed', '_Tonga_reversed', '_Oman_reversed']","['m', 'm', 'f', 'f', 'm', 'm']","['p229', 'p307', 'p248', 'p245', 'p256', 'p318']","[9, 2, 1, 5, 6, 10]","[92.00610777531934, 87.57049330475357, 86.2038576498559, 90.34149293193902, 91.58892582949886, 93.00003341222717]",5.0,False,7.5,3.6193922141707713,1.3280320167541504,0.6957212575190104
0,,sub_103_collocated,2024-08-07 12:02:30,3,distance,cathedral,numerosity_judgement,2,5,3,countries_reversed,"['_Tonga_reversed', '_Cuba_reversed', '_Yemen_reversed']","['m', 'm', 'f']","['p307', 'p256', 'p284']","[1, 10, 3]","[86.2038576498559, 93.00003341222717, 89.14911522239515]",6.0,False,6.666666666666667,4.725815626252608,2.3592114448547363,0.7182158665304733
0,,sub_103_collocated,2024-08-07 12:02:34,3,distance,cathedral,numerosity_judgement,2,6,4,countries_reversed,"['_Britain_reversed', '_Togo_reversed', '_Belgium_reversed', '_Oman_reversed']","['f', 'm', 'm', 'm']","['p284', 'p318', 'p256', 'p229']","[10, 5, 3, 6]","[93.00003341222717, 90.34149293193902, 89.14911522239515, 91.58892582949886]",4.0,True,8.0,2.943920288775949,2.0467331409454346,0.7279082964476223
0,,sub_103_collocated,2024-08-07 12:02:38,3,distance,cathedral,numerosity_judgement,2,7,6,countries_reversed,"['_Peru_reversed', '_Oman_reversed', '_Mali_reversed', '_Yemen_reversed', '_Sudan_reversed', '_Britain_reversed']","['f', 'm', 'm', 'm', 'f', 'f']","['p284', 'p256', 'p307', 'p318', 'p268', 'p248']","[9, 10, 0, 8, 3, 7]","[92.00610777531934, 93.00003341222717, 84.40078082039426, 92.0152836843556, 89.14911522239515, 91.73820004985969]",5.0,False,8.166666666666666,3.8686776379877745,1.9373655319213867,0.822642151855635
0,,sub_103_collocated,2024-08-07 12:02:42,3,distance,cathedral,numerosity_judgement,2,8,2,countries_reversed,"['_Belgium_reversed', '_Sudan_reversed']","['f', 'f']","['p268', 'p245']","[2, 9]","[87.57049330475357, 92.00610777531934]",2.0,True,7.5,4.949747468305833,1.859246015548706,0.9650209964816706
0,,sub_103_collocated,2024-08-07 12:02:45,3,distance,cathedral,numerosity_judgement,2,9,5,countries_reversed,"['_Yemen_reversed', '_Syria_reversed', '_Cuba_reversed', '_Congo_reversed', '_Oman_reversed']","['m', 'f', 'f', 'm', 'm']","['p318', 'p284', 'p268', 'p229', 'p256']","[0, 7, 3, 5, 10]","[84.40078082039426, 91.73820004985969, 89.14911522239515, 90.34149293193902, 93.00003341222717]",3.0,False,7.0,3.8078865529319543,1.5155203342437744,0.7205538531381228
0,,sub_103_collocated,2024-08-07 12:02:49,3,distance,cathedral,numerosity_judgement,2,10,6,countries_reversed,"['_Peru_reversed', '_Belgium_reversed', '_Cuba_reversed', '_Mali_reversed', '_Japan_reversed', '_Tonga_reversed']","['f', 'm', 'm', 'f', 'm', 'm']","['p268', 'p256', 'p307', 'p284', 'p229', 'p318']","[5, 4, 8, 0, 10, 7]","[90.34149293193902, 89.31368318402099, 92.0152836843556, 84.40078082039426, 93.00003341222717, 91.73820004985969]",4.0,False,7.666666666666667,3.5023801430836525,1.9373676776885986,0.7653387810691181
0,,sub_103_collocated,2024-08-07 12:02:54,3,distance,cathedral,numerosity_judgement,2,11,2,countries_reversed,"['_Oman_reversed', '_Britain_reversed']","['m', 'f']","['p307', 'p248']","[5, 6]","[90.34149293193902, 91.58892582949886]",2.0,True,7.5,0.7071067811865476,3.5622518062591553,0.6258313471796618
0,,sub_103_collocated,2024-08-07 12:02:58,3,distance,cathedral,numerosity_judgement,2,12,4,countries_reversed,"['_Japan_reversed', '_Oman_reversed', '_Mali_reversed', '_Yemen_reversed']","['m', 'm', 'm', 'f']","['p229', 'p318', 'p256', 'p245']","[9, 3, 1, 2]","[92.00610777531934, 89.14911522239515, 86.2038576498559, 87.57049330475357]",3.0,False,5.75,3.593976442141304,1.2655372619628906,0.7716717739189649
0,,sub_103_collocated,2024-08-07 12:03:01,3,distance,cathedral,numerosity_judgement,2,13,3,countries_reversed,"['_Sudan_reversed', '_Peru_reversed', '_Cuba_reversed']","['m', 'f', 'f']","['p256', 'p268', 'p284']","[7, 2, 9]","[91.73820004985969, 87.57049330475357, 92.00610777531934]",4.0,False,8.0,3.605551275463989,1.9998605251312256,0.8270911360799001
0,,sub_103_collocated,2024-08-07 12:03:04,3,distance,cathedral,numerosity_judgement,2,14,5,countries_reversed,"['_Yemen_reversed', '_Japan_reversed', '_Peru_reversed', '_Belgium_reversed', '_Britain_reversed']","['m', 'm', 'm', 'f', 'f']","['p318', 'p256', 'p229', 'p245', 'p248']","[2, 9, 0, 6, 8]","[87.57049330475357, 92.00610777531934, 84.40078082039426, 91.58892582949886, 92.0152836843556]",3.0,False,7.0,3.872983346207417,1.2342891693115234,0.8525593008739076
0,,sub_103_collocated,2024-08-07 12:03:07,3,distance,cathedral,numerosity_judgement,2,15,3,countries_reversed,"['_Oman_reversed', '_Belgium_reversed', '_Tonga_reversed']","['m', 'f', 'm']","['p256', 'p248', 'p318']","[3, 6, 0]","[89.14911522239515, 91.58892582949886, 84.40078082039426]",5.0,False,5.0,3.0,1.109297513961792,0.8404494382022472
0,,sub_103_collocated,2024-08-07 12:03:12,3,distance,cathedral,numerosity_judgement,2,16,5,countries_reversed,"['_Togo_reversed', '_Tonga_reversed', '_Oman_reversed', '_Mali_reversed', '_Yemen_reversed']","['f', 'm', 'm', 'm', 'f']","['p245', 'p256', 'p307', 'p318', 'p248']","[10, 3, 6, 9, 5]","[93.00003341222717, 89.14911522239515, 91.58892582949886, 92.00610777531934, 90.34149293193902]",3.0,False,8.6,2.8809720581775866,2.577946901321411,0.6536828963795256
0,,sub_103_collocated,2024-08-07 12:03:17,3,distance,cathedral,numerosity_judgement,2,17,6,countries_reversed,"['_Tonga_reversed', '_Japan_reversed', '_Cuba_reversed', '_Britain_reversed', '_Yemen_reversed', '_Mali_reversed']","['m', 'f', 'f', 'm', 'm', 'f']","['p318', 'p248', 'p245', 'p256', 'p307', 'p284']","[6, 2, 7, 0, 8, 4]","[91.58892582949886, 87.57049330475357, 91.73820004985969, 84.40078082039426, 92.0152836843556, 89.31368318402099]",3.0,False,6.5,3.082207001484488,2.4685771465301514,0.7547837929860401
0,,sub_103_collocated,2024-08-07 12:03:19,3,distance,cathedral,numerosity_judgement,2,18,2,countries_reversed,"['_Oman_reversed', '_Belgium_reversed']","['f', 'f']","['p245', 'p268']","[6, 5]","[91.58892582949886, 90.34149293193902]",2.0,True,7.5,0.7071067811865476,1.1249229907989502,0.6486437407785722
0,,sub_103_collocated,2024-08-07 12:03:23,3,distance,cathedral,numerosity_judgement,2,19,4,countries_reversed,"['_Tonga_reversed', '_Togo_reversed', '_Congo_reversed', '_Yemen_reversed']","['f', 'f', 'm', 'f']","['p268', 'p245', 'p307', 'p248']","[8, 10, 1, 5]","[92.0152836843556, 93.00003341222717, 86.2038576498559, 90.34149293193902]",3.0,False,8.0,3.9157800414902435,2.0467324256896973,0.6683690840994212
0,,sub_103_collocated,2024-08-07 12:03:27,3,distance,cathedral,numerosity_judgement,2,20,5,countries_reversed,"['_Togo_reversed', '_Cuba_reversed', '_Congo_reversed', '_Mali_reversed', '_Tonga_reversed']","['f', 'm', 'm', 'f', 'm']","['p245', 'p256', 'p307', 'p248', 'p318']","[4, 10, 5, 7, 6]","[89.31368318402099, 93.00003341222717, 90.34149293193902, 91.73820004985969, 91.58892582949886]",4.0,False,8.4,2.3021728866442674,1.7030072212219238,0.8309612983770287
0,,sub_103_collocated,2024-08-07 12:03:30,3,distance,cathedral,numerosity_judgement,2,21,3,countries_reversed,"['_Britain_reversed', '_Togo_reversed', '_Cuba_reversed']","['m', 'm', 'm']","['p307', 'p318', 'p229']","[0, 6, 1]","[84.40078082039426, 91.58892582949886, 86.2038576498559]",2.0,False,4.333333333333333,3.2145502536643185,1.421776533126831,0.9512087163772556
0,,sub_103_collocated,2024-08-07 12:03:34,3,distance,cathedral,numerosity_judgement,2,22,2,countries_reversed,"['_Togo_reversed', '_Mali_reversed']","['f', 'm']","['p268', 'p318']","[5, 3]","[90.34149293193902, 89.14911522239515]",3.0,False,6.0,1.4142135623730951,2.4217069149017334,0.927999092044036
0,,sub_103_collocated,2024-08-07 12:03:38,3,distance,cathedral,numerosity_judgement,2,23,6,countries_reversed,"['_Japan_reversed', '_Tonga_reversed', '_Yemen_reversed', '_Oman_reversed', '_Cuba_reversed', '_Congo_reversed']","['m', 'f', 'f', 'm', 'm', 'f']","['p229', 'p268', 'p248', 'p256', 'p318', 'p245']","[7, 4, 3, 5, 0, 10]","[91.73820004985969, 89.31368318402099, 89.14911522239515, 90.34149293193902, 84.40078082039426, 93.00003341222717]",4.0,False,6.833333333333333,3.4302575219167823,1.3124096393585205,0.9235160594711156
0,,sub_103_collocated,2024-08-07 12:03:41,3,distance,cathedral,numerosity_judgement,2,24,4,countries_reversed,"['_Japan_reversed', '_Congo_reversed', '_Oman_reversed', '_Togo_reversed']","['f', 'm', 'm', 'f']","['p268', 'p307', 'p256', 'p245']","[2, 7, 10, 6]","[87.57049330475357, 91.73820004985969, 93.00003341222717, 91.58892582949886]",3.0,False,8.25,3.304037933599835,1.8748693466186523,0.7412779480195211
0,,sub_103_collocated,2024-08-07 12:03:45,3,distance,cathedral,numerosity_judgement,2,25,2,countries_reversed,"['_Belgium_reversed', '_Oman_reversed']","['f', 'm']","['p268', 'p229']","[9, 4]","[92.00610777531934, 89.31368318402099]",2.0,True,8.5,3.5355339059327378,1.8123729228973389,0.8203382135966406
0,,sub_103_collocated,2024-08-07 12:03:50,3,distance,cathedral,numerosity_judgement,2,26,5,countries_reversed,"['_Japan_reversed', '_Oman_reversed', '_Cuba_reversed', '_Togo_reversed', '_Syria_reversed']","['f', 'm', 'f', 'm', 'm']","['p245', 'p318', 'p284', 'p256', 'p229']","[6, 0, 8, 4, 1]","[91.58892582949886, 84.40078082039426, 92.0152836843556, 89.31368318402099, 86.2038576498559]",4.0,False,5.8,3.3466401061363023,2.5154502391815186,0.9180002269889912
0,,sub_103_collocated,2024-08-07 12:03:54,3,distance,cathedral,numerosity_judgement,2,27,4,countries_reversed,"['_Peru_reversed', '_Britain_reversed', '_Yemen_reversed', '_Congo_reversed']","['m', 'f', 'f', 'm']","['p307', 'p245', 'p268', 'p256']","[6, 0, 4, 3]","[91.58892582949886, 84.40078082039426, 89.31368318402099, 89.14911522239515]",4.0,True,5.25,2.5,2.7341854572296143,0.6504256043581886
0,,sub_103_collocated,2024-08-07 12:03:58,3,distance,cathedral,numerosity_judgement,2,28,3,countries_reversed,"['_Syria_reversed', '_Yemen_reversed', '_Peru_reversed']","['f', 'm', 'f']","['p245', 'p229', 'p248']","[2, 8, 9]","[87.57049330475357, 92.0152836843556, 92.00610777531934]",2.0,False,8.333333333333334,3.7859388972001824,2.687312602996826,0.9234139144251504
0,,sub_103_collocated,2024-08-07 12:04:03,3,distance,cathedral,numerosity_judgement,2,29,6,countries_reversed,"['_Yemen_reversed', '_Japan_reversed', '_Britain_reversed', '_Belgium_reversed', '_Sudan_reversed', '_Congo_reversed']","['m', 'f', 'f', 'f', 'm', 'f']","['p318', 'p245', 'p248', 'p284', 'p229', 'p268']","[4, 2, 6, 7, 1, 9]","[89.31368318402099, 87.57049330475357, 91.58892582949886, 91.73820004985969, 86.2038576498559, 92.00610777531934]",4.0,False,6.833333333333333,3.0605010483034745,2.124852180480957,0.9525819997730112
0,,sub_103_collocated,2024-08-07 12:04:07,3,distance,cathedral,numerosity_judgement,2,30,4,countries_reversed,"['_Syria_reversed', '_Mali_reversed', '_Cuba_reversed', '_Tonga_reversed']","['m', 'm', 'f', 'm']","['p256', 'p229', 'p284', 'p318']","[6, 9, 0, 3]","[91.58892582949886, 92.00610777531934, 84.40078082039426, 89.14911522239515]",2.0,False,6.5,3.872983346207417,2.234220027923584,0.922982635342186
0,,sub_103_collocated,2024-08-07 12:04:10,3,distance,cathedral,numerosity_judgement,2,31,3,countries_reversed,"['_Britain_reversed', '_Yemen_reversed', '_Oman_reversed']","['m', 'f', 'f']","['p318', 'p268', 'p245']","[1, 6, 8]","[86.2038576498559, 91.58892582949886, 92.0152836843556]",2.0,False,7.0,3.605551275463989,1.2967851161956787,0.7357848144364998
0,,sub_103_collocated,2024-08-07 12:04:13,3,distance,cathedral,numerosity_judgement,2,32,5,countries_reversed,"['_Britain_reversed', '_Mali_reversed', '_Yemen_reversed', '_Congo_reversed', '_Peru_reversed']","['f', 'm', 'f', 'm', 'f']","['p245', 'p307', 'p248', 'p229', 'p268']","[4, 10, 6, 1, 2]","[89.31368318402099, 93.00003341222717, 91.58892582949886, 86.2038576498559, 87.57049330475357]",3.0,False,6.6,3.5777087639996634,1.1249213218688965,0.7427987742594484
0,,sub_103_collocated,2024-08-07 12:04:17,3,distance,cathedral,numerosity_judgement,2,33,6,countries_reversed,"['_Oman_reversed', '_Cuba_reversed', '_Belgium_reversed', '_Togo_reversed', '_Mali_reversed', '_Sudan_reversed']","['f', 'm', 'm', 'm', 'f', 'm']","['p284', 'p307', 'p229', 'p318', 'p268', 'p256']","[0, 9, 2, 8, 5, 10]","[84.40078082039426, 92.00610777531934, 87.57049330475357, 92.0152836843556, 90.34149293193902, 93.00003341222717]",4.0,False,7.666666666666667,4.033195589934446,2.3123390674591064,0.843638633526274
0,,sub_103_collocated,2024-08-07 12:04:21,3,distance,cathedral,numerosity_judgement,2,34,2,countries_reversed,"['_Yemen_reversed', '_Congo_reversed']","['f', 'm']","['p268', 'p307']","[6, 7]","[91.58892582949886, 91.73820004985969]",3.0,False,8.5,0.7071067811865476,1.8904962539672852,0.6102712518442855
0,,sub_103_collocated,2024-08-07 12:04:24,3,distance,cathedral,numerosity_judgement,2,35,3,countries_reversed,"['_Oman_reversed', '_Yemen_reversed', '_Peru_reversed']","['m', 'm', 'm']","['p229', 'p318', 'p256']","[6, 5, 1]","[91.58892582949886, 90.34149293193902, 86.2038576498559]",2.0,False,6.0,2.6457513110645907,1.6561346054077148,0.6271819316763138
0,,sub_103_collocated,2024-08-07 12:04:28,3,distance,cathedral,numerosity_judgement,2,36,6,countries_reversed,"['_Peru_reversed', '_Syria_reversed', '_Tonga_reversed', '_Togo_reversed', '_Britain_reversed', '_Yemen_reversed']","['f', 'm', 'f', 'm', 'm', 'f']","['p245', 'p256', 'p284', 'p318', 'p229', 'p248']","[6, 0, 1, 3, 9, 5]","[91.58892582949886, 84.40078082039426, 86.2038576498559, 89.14911522239515, 92.00610777531934, 90.34149293193902]",4.0,False,6.0,3.3466401061363023,1.1717944145202637,0.846521393712405
0,,sub_103_collocated,2024-08-07 12:04:33,3,distance,cathedral,numerosity_judgement,2,37,5,countries_reversed,"['_Congo_reversed', '_Oman_reversed', '_Syria_reversed', '_Tonga_reversed', '_Cuba_reversed']","['f', 'm', 'f', 'm', 'f']","['p268', 'p256', 'p245', 'p307', 'p248']","[5, 7, 2, 6, 10]","[90.34149293193902, 91.73820004985969, 87.57049330475357, 91.58892582949886, 93.00003341222717]",4.0,False,8.0,2.9154759474226504,3.5153818130493164,0.6753489955737146
0,,sub_103_collocated,2024-08-07 12:04:36,3,distance,cathedral,numerosity_judgement,2,38,2,countries_reversed,"['_Peru_reversed', '_Oman_reversed']","['m', 'm']","['p256', 'p307']","[6, 5]","[91.58892582949886, 90.34149293193902]",2.0,True,7.5,0.7071067811865476,1.3592798709869385,0.5561570763817955
0,,sub_103_collocated,2024-08-07 12:04:39,3,distance,cathedral,numerosity_judgement,2,39,4,countries_reversed,"['_Oman_reversed', '_Mali_reversed', '_Congo_reversed', '_Sudan_reversed']","['f', 'f', 'f', 'f']","['p248', 'p284', 'p245', 'p268']","[1, 3, 0, 8]","[86.2038576498559, 89.14911522239515, 84.40078082039426, 92.0152836843556]",3.0,False,5.0,3.559026084010437,1.4686477184295654,0.9575417092271024
0,,sub_103_collocated,2024-08-07 12:04:44,3,distance,cathedral,numerosity_judgement,2,40,6,countries_reversed,"['_Syria_reversed', '_Yemen_reversed', '_Oman_reversed', '_Peru_reversed', '_Sudan_reversed', '_Cuba_reversed']","['m', 'f', 'm', 'f', 'f', 'm']","['p256', 'p248', 'p307', 'p268', 'p284', 'p318']","[2, 3, 5, 6, 0, 10]","[87.57049330475357, 89.14911522239515, 90.34149293193902, 91.58892582949886, 84.40078082039426, 93.00003341222717]",3.0,False,6.333333333333333,3.5023801430836525,2.452954053878784,0.6612870275791624
0,,sub_103_collocated,2024-08-07 12:04:47,3,distance,cathedral,numerosity_judgement,2,41,2,countries_reversed,"['_Tonga_reversed', '_Mali_reversed']","['f', 'f']","['p268', 'p245']","[0, 10]","[84.40078082039426, 93.00003341222717]",2.0,True,7.0,7.0710678118654755,1.2655365467071533,0.8034842810123709
0,,sub_103_collocated,2024-08-07 12:04:50,3,distance,cathedral,numerosity_judgement,2,42,5,countries_reversed,"['_Oman_reversed', '_Cuba_reversed', '_Japan_reversed', '_Belgium_reversed', '_Peru_reversed']","['m', 'm', 'f', 'm', 'f']","['p256', 'p307', 'p248', 'p318', 'p284']","[2, 3, 0, 5, 10]","[87.57049330475357, 89.14911522239515, 84.40078082039426, 90.34149293193902, 93.00003341222717]",3.0,False,6.0,3.8078865529319543,1.5780153274536133,0.8688003631823856
0,,sub_103_collocated,2024-08-07 12:04:55,3,distance,cathedral,numerosity_judgement,2,43,3,countries_reversed,"['_Cuba_reversed', '_Oman_reversed', '_Syria_reversed']","['f', 'f', 'm']","['p245', 'p268', 'p318']","[5, 2, 0]","[90.34149293193902, 87.57049330475357, 84.40078082039426]",3.0,True,4.333333333333333,2.516611478423583,2.499826192855835,0.807411190557258
0,,sub_103_collocated,2024-08-07 12:04:58,3,distance,cathedral,numerosity_judgement,2,44,4,countries_reversed,"['_Sudan_reversed', '_Britain_reversed', '_Mali_reversed', '_Syria_reversed']","['f', 'f', 'm', 'm']","['p268', 'p284', 'p256', 'p307']","[1, 2, 0, 5]","[86.2038576498559, 87.57049330475357, 84.40078082039426, 90.34149293193902]",4.0,True,4.0,2.160246899469287,1.2030432224273682,0.9372261945295652
0,,sub_103_collocated,2024-08-07 12:05:02,3,distance,cathedral,numerosity_judgement,2,45,2,countries_reversed,"['_Yemen_reversed', '_Oman_reversed']","['f', 'm']","['p245', 'p318']","[5, 9]","[90.34149293193902, 92.00610777531934]",3.0,False,9.0,2.8284271247461903,2.015484094619751,0.6940528884349109
0,,sub_103_collocated,2024-08-07 12:05:04,3,distance,cathedral,numerosity_judgement,2,46,3,countries_reversed,"['_Oman_reversed', '_Yemen_reversed', '_Britain_reversed']","['m', 'm', 'f']","['p307', 'p229', 'p268']","[2, 7, 1]","[87.57049330475357, 91.73820004985969, 86.2038576498559]",2.0,False,5.333333333333333,3.2145502536643185,1.218665599822998,0.8672000907955965
0,,sub_103_collocated,2024-08-07 12:05:08,3,distance,cathedral,numerosity_judgement,2,47,4,countries_reversed,"['_Oman_reversed', '_Britain_reversed', '_Yemen_reversed', '_Mali_reversed']","['m', 'm', 'f', 'm']","['p229', 'p318', 'p248', 'p307']","[5, 1, 7, 8]","[90.34149293193902, 86.2038576498559, 91.73820004985969, 92.0152836843556]",3.0,False,7.25,3.095695936834452,1.4842710494995117,0.6953921234820111
0,,sub_103_collocated,2024-08-07 12:05:13,3,distance,cathedral,numerosity_judgement,2,48,5,countries_reversed,"['_Tonga_reversed', '_Mali_reversed', '_Congo_reversed', '_Syria_reversed', '_Belgium_reversed']","['f', 'f', 'f', 'm', 'm']","['p245', 'p284', 'p248', 'p307', 'p229']","[0, 1, 7, 5, 9]","[84.40078082039426, 86.2038576498559, 91.73820004985969, 90.34149293193902, 92.00610777531934]",4.0,False,6.4,3.847076812334269,2.562319755554199,0.9341958914992624
0,,sub_103_collocated,2024-08-07 12:05:16,3,distance,cathedral,numerosity_judgement,2,49,6,countries_reversed,"['_Sudan_reversed', '_Mali_reversed', '_Belgium_reversed', '_Oman_reversed', '_Syria_reversed', '_Togo_reversed']","['f', 'f', 'f', 'm', 'm', 'm']","['p245', 'p284', 'p248', 'p256', 'p229', 'p318']","[10, 4, 3, 2, 5, 9]","[93.00003341222717, 89.31368318402099, 89.14911522239515, 87.57049330475357, 90.34149293193902, 92.00610777531934]",5.0,False,7.5,3.271085446759225,1.2499134540557861,0.9290886392009988
0,,sub_103_collocated,2024-08-07 12:05:20,3,distance,cathedral,numerosity_judgement,2,50,4,countries_reversed,"['_Tonga_reversed', '_Japan_reversed', '_Mali_reversed', '_Congo_reversed']","['m', 'm', 'm', 'm']","['p229', 'p307', 'p318', 'p256']","[2, 8, 0, 5]","[87.57049330475357, 92.0152836843556, 84.40078082039426, 90.34149293193902]",2.0,False,5.75,3.5,2.3123390674591064,0.8254227669958007
0,,sub_103_collocated,2024-08-07 12:05:24,3,distance,cathedral,numerosity_judgement,2,51,5,countries_reversed,"['_Mali_reversed', '_Japan_reversed', '_Britain_reversed', '_Togo_reversed', '_Sudan_reversed']","['f', 'm', 'f', 'm', 'f']","['p284', 'p318', 'p245', 'p307', 'p268']","[10, 3, 0, 9, 1]","[93.00003341222717, 89.14911522239515, 84.40078082039426, 92.00610777531934, 86.2038576498559]",3.0,False,6.6,4.61519230368573,2.1248512268066406,0.9521166723413914
0,,sub_103_collocated,2024-08-07 12:05:27,3,distance,cathedral,numerosity_judgement,2,52,6,countries_reversed,"['_Sudan_reversed', '_Mali_reversed', '_Syria_reversed', '_Oman_reversed', '_Peru_reversed', '_Tonga_reversed']","['f', 'm', 'f', 'm', 'f', 'm']","['p248', 'p318', 'p245', 'p307', 'p284', 'p256']","[3, 7, 1, 9, 5, 4]","[89.14911522239515, 91.73820004985969, 86.2038576498559, 92.00610777531934, 90.34149293193902, 89.31368318402099]",4.0,False,6.833333333333333,2.857738033247041,1.0311806201934814,0.8028260129383725
0,,sub_103_collocated,2024-08-07 12:05:30,3,distance,cathedral,numerosity_judgement,2,53,3,countries_reversed,"['_Oman_reversed', '_Yemen_reversed', '_Cuba_reversed']","['f', 'm', 'f']","['p284', 'p307', 'p268']","[9, 7, 3]","[92.00610777531934, 91.73820004985969, 89.14911522239515]",2.0,False,8.333333333333334,3.055050463303893,1.5780150890350342,0.5765633866757462
0,,sub_103_collocated,2024-08-07 12:05:34,3,distance,cathedral,numerosity_judgement,2,54,2,countries_reversed,"['_Oman_reversed', '_Congo_reversed']","['f', 'm']","['p245', 'p229']","[10, 0]","[93.00003341222717, 84.40078082039426]",2.0,True,7.0,7.0710678118654755,1.4998958110809326,0.7668255589603904
0,,sub_103_collocated,2024-08-07 12:05:37,3,distance,cathedral,numerosity_judgement,2,55,3,countries_reversed,"['_Mali_reversed', '_Tonga_reversed', '_Yemen_reversed']","['f', 'f', 'm']","['p248', 'p245', 'p307']","[10, 6, 9]","[93.00003341222717, 91.58892582949886, 92.00610777531934]",3.0,True,10.333333333333334,2.0816659994661326,1.1874175071716309,0.6603790716150266
0,,sub_103_collocated,2024-08-07 12:05:41,3,distance,cathedral,numerosity_judgement,2,56,6,countries_reversed,"['_Belgium_reversed', '_Peru_reversed', '_Yemen_reversed', '_Cuba_reversed', '_Congo_reversed', '_Mali_reversed']","['m', 'f', 'f', 'm', 'm', 'f']","['p307', 'p248', 'p268', 'p318', 'p256', 'p245']","[8, 6, 2, 3, 10, 5]","[92.0152836843556, 91.58892582949886, 87.57049330475357, 89.14911522239515, 93.00003341222717, 90.34149293193902]",4.0,False,7.666666666666667,3.011090610836324,2.40608286857605,0.7253206219498355
0,,sub_103_collocated,2024-08-07 12:05:44,3,distance,cathedral,numerosity_judgement,2,57,2,countries_reversed,"['_Tonga_reversed', '_Japan_reversed']","['m', 'm']","['p256', 'p307']","[10, 2]","[93.00003341222717, 87.57049330475357]",2.0,True,8.0,5.656854249492381,1.3905277252197266,0.8812847576892521
0,,sub_103_collocated,2024-08-07 12:05:47,3,distance,cathedral,numerosity_judgement,2,58,4,countries_reversed,"['_Oman_reversed', '_Yemen_reversed', '_Britain_reversed', '_Mali_reversed']","['m', 'm', 'm', 'm']","['p229', 'p318', 'p307', 'p256']","[5, 7, 9, 6]","[90.34149293193902, 91.73820004985969, 92.00610777531934, 91.58892582949886]",4.0,True,8.75,1.707825127659933,1.3905284404754639,0.6135966405629327
0,,sub_103_collocated,2024-08-07 12:05:50,3,distance,cathedral,numerosity_judgement,2,59,5,countries_reversed,"['_Mali_reversed', '_Yemen_reversed', '_Peru_reversed', '_Belgium_reversed', '_Sudan_reversed']","['f', 'm', 'm', 'f', 'm']","['p248', 'p256', 'p318', 'p284', 'p307']","[9, 10, 2, 0, 6]","[92.00610777531934, 93.00003341222717, 87.57049330475357, 84.40078082039426, 91.58892582949886]",5.0,True,7.4,4.33589667773576,1.2499144077301025,0.768675519237317
0,,sub_103_collocated,2024-08-07 12:05:54,3,distance,cathedral,numerosity_judgement,2,60,6,countries_reversed,"['_Peru_reversed', '_Syria_reversed', '_Congo_reversed', '_Cuba_reversed', '_Belgium_reversed', '_Sudan_reversed']","['m', 'm', 'f', 'm', 'f', 'f']","['p256', 'p318', 'p268', 'p307', 'p284', 'p248']","[7, 2, 0, 10, 3, 5]","[91.73820004985969, 87.57049330475357, 84.40078082039426, 93.00003341222717, 89.14911522239515, 90.34149293193902]",5.0,False,6.5,3.6193922141707713,2.140475273132324,0.8977982067869709
0,,sub_103_collocated,2024-08-07 12:05:58,3,distance,cathedral,numerosity_judgement,2,61,2,countries_reversed,"['_Togo_reversed', '_Oman_reversed']","['f', 'f']","['p245', 'p248']","[6, 7]","[91.58892582949886, 91.73820004985969]",2.0,True,8.5,0.7071067811865476,1.749878168106079,0.736227442969016
0,,sub_103_collocated,2024-08-07 12:06:01,3,distance,cathedral,numerosity_judgement,2,62,4,countries_reversed,"['_Yemen_reversed', '_Togo_reversed', '_Sudan_reversed', '_Mali_reversed']","['f', 'f', 'm', 'f']","['p245', 'p268', 'p256', 'p248']","[2, 5, 3, 6]","[87.57049330475357, 90.34149293193902, 89.14911522239515, 91.58892582949886]",4.0,True,6.0,1.8257418583505538,1.1405441761016846,0.8718647145613437
0,,sub_103_collocated,2024-08-07 12:06:05,3,distance,cathedral,numerosity_judgement,2,63,5,countries_reversed,"['_Cuba_reversed', '_Togo_reversed', '_Belgium_reversed', '_Tonga_reversed', '_Peru_reversed']","['f', 'f', 'm', 'm', 'f']","['p268', 'p248', 'p307', 'p318', 'p245']","[6, 4, 9, 7, 10]","[91.58892582949886, 89.31368318402099, 92.00610777531934, 91.73820004985969, 93.00003341222717]",5.0,True,9.2,2.3874672772626644,2.609193801879883,0.7911360799001248
0,,sub_103_collocated,2024-08-07 12:06:09,3,distance,cathedral,numerosity_judgement,2,64,3,countries_reversed,"['_Peru_reversed', '_Belgium_reversed', '_Oman_reversed']","['f', 'f', 'f']","['p248', 'p268', 'p245']","[9, 3, 6]","[92.00610777531934, 89.14911522239515, 91.58892582949886]",3.0,True,8.0,3.0,1.890493631362915,0.6908636931108841
0,,sub_103_collocated,2024-08-07 12:06:14,3,distance,cathedral,numerosity_judgement,2,65,6,countries_reversed,"['_Togo_reversed', '_Britain_reversed', '_Tonga_reversed', '_Oman_reversed', '_Mali_reversed', '_Cuba_reversed']","['m', 'm', 'f', 'f', 'm', 'm']","['p318', 'p229', 'p284', 'p268', 'p256', 'p307']","[5, 3, 1, 6, 4, 7]","[90.34149293193902, 89.14911522239515, 86.2038576498559, 91.58892582949886, 89.31368318402099, 91.73820004985969]",5.0,False,6.333333333333333,2.160246899469287,2.7341835498809814,0.7108387243218703
0,,sub_103_collocated,2024-08-07 12:06:17,3,distance,cathedral,numerosity_judgement,2,66,3,countries_reversed,"['_Yemen_reversed', '_Cuba_reversed', '_Oman_reversed']","['f', 'f', 'm']","['p268', 'p245', 'p256']","[8, 5, 9]","[92.0152836843556, 90.34149293193902, 92.00610777531934]",4.0,False,9.333333333333334,2.0816659994661326,1.2655384540557861,0.6368630121439111
0,,sub_103_collocated,2024-08-07 12:06:20,3,distance,cathedral,numerosity_judgement,2,67,2,countries_reversed,"['_Peru_reversed', '_Japan_reversed']","['m', 'm']","['p318', 'p256']","[6, 7]","[91.58892582949886, 91.73820004985969]",2.0,True,8.5,0.7071067811865476,1.5155200958251953,0.7086709794574964
0,,sub_103_collocated,2024-08-07 12:06:24,3,distance,cathedral,numerosity_judgement,2,68,4,countries_reversed,"['_Yemen_reversed', '_Togo_reversed', '_Belgium_reversed', '_Tonga_reversed']","['f', 'f', 'f', 'm']","['p284', 'p248', 'p268', 'p318']","[10, 9, 5, 7]","[93.00003341222717, 92.00610777531934, 90.34149293193902, 91.73820004985969]",4.0,True,9.75,2.217355782608345,1.3749053478240967,0.783270911360799
0,,sub_103_collocated,2024-08-07 12:06:27,3,distance,cathedral,numerosity_judgement,2,69,5,countries_reversed,"['_Mali_reversed', '_Britain_reversed', '_Congo_reversed', '_Tonga_reversed', '_Oman_reversed']","['m', 'm', 'f', 'm', 'm']","['p307', 'p318', 'p284', 'p229', 'p256']","[10, 5, 1, 8, 7]","[93.00003341222717, 90.34149293193902, 86.2038576498559, 92.0152836843556, 91.73820004985969]",5.0,True,8.2,3.420526275297414,1.6873829364776611,0.6888888888888889
0,,sub_103_collocated,2024-08-07 12:06:30,3,distance,cathedral,numerosity_judgement,2,70,2,countries_reversed,"['_Congo_reversed', '_Sudan_reversed']","['m', 'f']","['p307', 'p248']","[3, 9]","[89.14911522239515, 92.00610777531934]",2.0,True,8.0,4.242640687119285,1.5623908042907715,0.9059244126659856
0,,sub_103_collocated,2024-08-07 12:06:34,3,distance,cathedral,numerosity_judgement,2,71,3,countries_reversed,"['_Japan_reversed', '_Syria_reversed', '_Tonga_reversed']","['f', 'f', 'm']","['p268', 'p245', 'p229']","[2, 5, 3]","[87.57049330475357, 90.34149293193902, 89.14911522239515]",4.0,False,5.333333333333333,1.5275252316519465,1.8436214923858643,0.7749063670411985
0,,sub_103_collocated,2024-08-07 12:06:39,3,distance,cathedral,numerosity_judgement,2,72,5,countries_reversed,"['_Yemen_reversed', '_Britain_reversed', '_Oman_reversed', '_Peru_reversed', '_Cuba_reversed']","['f', 'f', 'm', 'm', 'f']","['p268', 'p248', 'p318', 'p307', 'p284']","[2, 4, 0, 3, 5]","[87.57049330475357, 89.31368318402099, 84.40078082039426, 89.14911522239515, 90.34149293193902]",4.0,False,4.8,1.9235384061671346,2.796682119369507,0.815344455793894
0,,sub_103_collocated,2024-08-07 12:06:42,3,distance,cathedral,numerosity_judgement,2,73,4,countries_reversed,"['_Britain_reversed', '_Mali_reversed', '_Peru_reversed', '_Congo_reversed']","['f', 'm', 'f', 'f']","['p268', 'p256', 'p284', 'p245']","[10, 8, 6, 9]","[93.00003341222717, 92.0152836843556, 91.58892582949886, 92.00610777531934]",3.0,False,10.25,1.707825127659933,1.3749043941497803,0.8416751787538305
0,,sub_103_collocated,2024-08-07 12:06:45,3,distance,cathedral,numerosity_judgement,2,74,6,countries_reversed,"['_Sudan_reversed', '_Yemen_reversed', '_Tonga_reversed', '_Congo_reversed', '_Togo_reversed', '_Syria_reversed']","['m', 'f', 'm', 'm', 'm', 'f']","['p307', 'p248', 'p318', 'p229', 'p256', 'p268']","[2, 6, 10, 4, 5, 3]","[87.57049330475357, 91.58892582949886, 93.00003341222717, 89.31368318402099, 90.34149293193902, 89.14911522239515]",4.0,False,7.0,2.8284271247461903,1.1405465602874756,0.8849279309953467
0,,sub_103_collocated,2024-08-07 12:07:32,3,distance,cathedral,numerosity_judgement,3,0,6,countries_forward,"['_Yemen_', '_Peru_', '_Oman_', '_Togo_', '_Belgium_', '_Sudan_']","['f', 'm', 'f', 'f', 'm', 'f']","['p248', 'p318', 'p284', 'p268', 'p256', 'p245']","[7, 4, 3, 9, 5, 10]","[91.73820004985969, 89.31368318402099, 89.14911522239515, 92.00610777531934, 90.34149293193902, 93.00003341222717]",3.0,False,8.333333333333334,2.804757862395017,2.531073570251465,0.8604358188627852
0,,sub_103_collocated,2024-08-07 12:07:36,3,distance,cathedral,numerosity_judgement,3,1,4,countries_forward,"['_Cuba_', '_Yemen_', '_Congo_', '_Oman_']","['m', 'f', 'f', 'f']","['p307', 'p268', 'p245', 'p248']","[7, 8, 4, 3]","[91.73820004985969, 92.0152836843556, 89.31368318402099, 89.14911522239515]",2.0,False,7.5,2.3804761428476167,1.593639612197876,0.629043241402792
0,,sub_103_collocated,2024-08-07 12:07:40,3,distance,cathedral,numerosity_judgement,3,2,3,countries_forward,"['_Oman_', '_Yemen_', '_Tonga_']","['m', 'f', 'f']","['p229', 'p284', 'p245']","[8, 3, 10]","[92.0152836843556, 89.14911522239515, 93.00003341222717]",2.0,False,9.0,3.605551275463989,2.624817132949829,0.727806151401657
0,,sub_103_collocated,2024-08-07 12:07:44,3,distance,cathedral,numerosity_judgement,3,3,2,countries_forward,"['_Yemen_', '_Cuba_']","['f', 'm']","['p248', 'p307']","[3, 5]","[89.14911522239515, 90.34149293193902]",2.0,True,6.0,1.4142135623730951,1.1717941761016846,0.6060606060606061
0,,sub_103_collocated,2024-08-07 12:07:48,3,distance,cathedral,numerosity_judgement,3,4,5,countries_forward,"['_Yemen_', '_Oman_', '_Peru_', '_Mali_', '_Congo_']","['m', 'm', 'f', 'f', 'm']","['p256', 'p307', 'p268', 'p248', 'p229']","[7, 5, 4, 0, 9]","[91.73820004985969, 90.34149293193902, 89.31368318402099, 84.40078082039426, 92.00610777531934]",3.0,False,7.0,3.391164991562634,2.2029733657836914,0.6961865849506299
0,,sub_103_collocated,2024-08-07 12:07:53,3,distance,cathedral,numerosity_judgement,3,5,3,countries_forward,"['_Togo_', '_Yemen_', '_Congo_']","['m', 'f', 'm']","['p229', 'p245', 'p256']","[0, 3, 8]","[84.40078082039426, 89.14911522239515, 92.0152836843556]",3.0,True,5.666666666666667,4.041451884327381,2.531074285507202,0.6506639427987743
0,,sub_103_collocated,2024-08-07 12:07:57,3,distance,cathedral,numerosity_judgement,3,6,4,countries_forward,"['_Britain_', '_Peru_', '_Sudan_', '_Yemen_']","['m', 'f', 'm', 'm']","['p229', 'p284', 'p318', 'p256']","[9, 3, 2, 1]","[92.00610777531934, 89.14911522239515, 87.57049330475357, 86.2038576498559]",2.0,False,5.75,3.593976442141304,1.3436572551727295,0.9307343093859948
0,,sub_103_collocated,2024-08-07 12:08:02,3,distance,cathedral,numerosity_judgement,3,7,5,countries_forward,"['_Yemen_', '_Sudan_', '_Congo_', '_Britain_', '_Tonga_']","['f', 'm', 'm', 'f', 'm']","['p268', 'p307', 'p318', 'p248', 'p229']","[7, 3, 4, 0, 5]","[91.73820004985969, 89.14911522239515, 89.31368318402099, 84.40078082039426, 90.34149293193902]",3.0,False,5.8,2.588435821108957,2.796680450439453,0.7539325842696629
0,,sub_103_collocated,2024-08-07 12:08:05,3,distance,cathedral,numerosity_judgement,3,8,2,countries_forward,"['_Sudan_', '_Syria_']","['f', 'f']","['p248', 'p268']","[0, 10]","[84.40078082039426, 93.00003341222717]",2.0,True,7.0,7.0710678118654755,0.9061853885650635,0.9421518556350016
0,,sub_103_collocated,2024-08-07 12:08:09,3,distance,cathedral,numerosity_judgement,3,9,6,countries_forward,"['_Sudan_', '_Mali_', '_Oman_', '_Yemen_', '_Britain_', '_Syria_']","['f', 'f', 'm', 'm', 'f', 'm']","['p268', 'p284', 'p307', 'p318', 'p248', 'p256']","[8, 6, 10, 1, 3, 2]","[92.0152836843556, 91.58892582949886, 93.00003341222717, 86.2038576498559, 89.14911522239515, 87.57049330475357]",4.0,False,7.0,3.5777087639996634,1.2499125003814697,0.9425831347179662
0,,sub_103_collocated,2024-08-07 12:08:13,3,distance,cathedral,numerosity_judgement,3,10,3,countries_forward,"['_Britain_', '_Peru_', '_Oman_']","['m', 'm', 'm']","['p307', 'p318', 'p229']","[10, 4, 3]","[93.00003341222717, 89.31368318402099, 89.14911522239515]",2.0,False,7.666666666666667,3.7859388972001824,1.3749048709869385,0.6836681420951084
0,,sub_103_collocated,2024-08-07 12:08:18,3,distance,cathedral,numerosity_judgement,3,11,4,countries_forward,"['_Britain_', '_Cuba_', '_Oman_', '_Congo_']","['m', 'm', 'f', 'f']","['p229', 'p318', 'p245', 'p284']","[7, 10, 8, 2]","[91.73820004985969, 93.00003341222717, 92.0152836843556, 87.57049330475357]",3.0,False,8.75,3.4034296427770228,2.0936028957366943,0.8548064918851436
0,,sub_103_collocated,2024-08-07 12:08:21,3,distance,cathedral,numerosity_judgement,3,12,2,countries_forward,"['_Congo_', '_Togo_']","['f', 'f']","['p268', 'p284']","[7, 10]","[91.73820004985969, 93.00003341222717]",2.0,True,10.5,2.1213203435596424,0.9530599117279053,0.8055271819316763
0,,sub_103_collocated,2024-08-07 12:08:27,3,distance,cathedral,numerosity_judgement,3,13,6,countries_forward,"['_Mali_', '_Cuba_', '_Oman_', '_Tonga_', '_Belgium_', '_Sudan_']","['m', 'f', 'm', 'm', 'f', 'f']","['p318', 'p284', 'p256', 'p229', 'p245', 'p248']","[9, 3, 2, 5, 1, 8]","[92.00610777531934, 89.14911522239515, 87.57049330475357, 90.34149293193902, 86.2038576498559, 92.0152836843556]",4.0,False,6.666666666666667,3.265986323710904,3.7028675079345703,0.9148337305640676
0,,sub_103_collocated,2024-08-07 12:08:32,3,distance,cathedral,numerosity_judgement,3,14,5,countries_forward,"['_Belgium_', '_Peru_', '_Togo_', '_Sudan_', '_Yemen_']","['m', 'f', 'f', 'f', 'm']","['p318', 'p284', 'p245', 'p268', 'p229']","[1, 5, 7, 10, 3]","[86.2038576498559, 90.34149293193902, 91.73820004985969, 93.00003341222717, 89.14911522239515]",2.0,False,7.2,3.492849839314596,1.7498795986175537,0.948462149585745
0,,sub_103_collocated,2024-08-07 12:08:36,3,distance,cathedral,numerosity_judgement,3,15,6,countries_forward,"['_Tonga_', '_Peru_', '_Sudan_', '_Oman_', '_Japan_', '_Mali_']","['m', 'f', 'm', 'f', 'f', 'm']","['p229', 'p284', 'p307', 'p245', 'p268', 'p318']","[3, 1, 4, 7, 0, 9]","[89.14911522239515, 86.2038576498559, 89.31368318402099, 91.73820004985969, 84.40078082039426, 92.00610777531934]",3.0,False,6.0,3.4641016151377544,1.4374005794525146,0.8313585291113381
0,,sub_103_collocated,2024-08-07 12:08:41,3,distance,cathedral,numerosity_judgement,3,16,5,countries_forward,"['_Tonga_', '_Japan_', '_Oman_', '_Mali_', '_Cuba_']","['f', 'm', 'm', 'f', 'm']","['p245', 'p229', 'p256', 'p248', 'p307']","[9, 10, 7, 8, 4]","[92.00610777531934, 93.00003341222717, 91.73820004985969, 92.0152836843556, 89.31368318402099]",4.0,False,9.6,2.3021728866442674,2.8279285430908203,0.7297582567245489
0,,sub_103_collocated,2024-08-07 12:08:45,3,distance,cathedral,numerosity_judgement,3,17,3,countries_forward,"['_Cuba_', '_Peru_', '_Yemen_']","['m', 'm', 'f']","['p256', 'p307', 'p245']","[10, 7, 3]","[93.00003341222717, 91.73820004985969, 89.14911522239515]",3.0,True,8.666666666666666,3.511884584284246,1.5311434268951416,0.7064805356940188
0,,sub_103_collocated,2024-08-07 12:08:49,3,distance,cathedral,numerosity_judgement,3,18,4,countries_forward,"['_Congo_', '_Belgium_', '_Cuba_', '_Tonga_']","['f', 'm', 'f', 'f']","['p245', 'p256', 'p284', 'p268']","[6, 5, 9, 7]","[91.58892582949886, 90.34149293193902, 92.00610777531934, 91.73820004985969]",4.0,True,8.75,1.707825127659933,1.4217755794525146,0.8310407445238905
0,,sub_103_collocated,2024-08-07 12:08:52,3,distance,cathedral,numerosity_judgement,3,19,2,countries_forward,"['_Britain_', '_Sudan_']","['m', 'm']","['p229', 'p318']","[3, 2]","[89.14911522239515, 87.57049330475357]",2.0,True,4.5,0.7071067811865476,1.0155549049377441,0.9004993757802746
0,,sub_103_collocated,2024-08-07 12:08:56,3,distance,cathedral,numerosity_judgement,3,20,5,countries_forward,"['_Oman_', '_Sudan_', '_Tonga_', '_Yemen_', '_Syria_']","['f', 'm', 'm', 'f', 'm']","['p248', 'p307', 'p229', 'p268', 'p318']","[3, 4, 1, 10, 0]","[89.14911522239515, 89.31368318402099, 86.2038576498559, 93.00003341222717, 84.40078082039426]",4.0,False,5.6,3.9115214431215892,1.4686493873596191,0.8005561230280331
0,,sub_103_collocated,2024-08-07 12:09:00,3,distance,cathedral,numerosity_judgement,3,21,3,countries_forward,"['_Oman_', '_Britain_', '_Syria_']","['f', 'm', 'm']","['p268', 'p229', 'p318']","[3, 2, 1]","[89.14911522239515, 87.57049330475357, 86.2038576498559]",3.0,True,4.0,1.0,1.8436212539672852,0.8925320621949835
0,,sub_103_collocated,2024-08-07 12:09:05,3,distance,cathedral,numerosity_judgement,3,22,4,countries_forward,"['_Togo_', '_Japan_', '_Congo_', '_Syria_']","['m', 'm', 'f', 'f']","['p256', 'p307', 'p284', 'p245']","[0, 2, 5, 7]","[84.40078082039426, 87.57049330475357, 90.34149293193902, 91.73820004985969]",4.0,True,5.5,3.1091263510296048,2.5623207092285156,0.9280217909431392
0,,sub_103_collocated,2024-08-07 12:09:08,3,distance,cathedral,numerosity_judgement,3,23,2,countries_forward,"['_Yemen_', '_Britain_']","['f', 'm']","['p268', 'p307']","[8, 6]","[92.0152836843556, 91.58892582949886]",2.0,True,9.0,1.4142135623730951,1.0780508518218994,0.6429009193054137
0,,sub_103_collocated,2024-08-07 12:09:12,3,distance,cathedral,numerosity_judgement,3,24,6,countries_forward,"['_Peru_', '_Mali_', '_Cuba_', '_Britain_', '_Sudan_', '_Congo_']","['f', 'm', 'm', 'm', 'f', 'f']","['p248', 'p318', 'p229', 'p307', 'p284', 'p268']","[1, 5, 2, 0, 7, 9]","[86.2038576498559, 90.34149293193902, 87.57049330475357, 84.40078082039426, 91.73820004985969, 92.00610777531934]",3.0,False,6.0,3.5777087639996634,1.234288215637207,0.9599477925320622
0,,sub_103_collocated,2024-08-07 12:09:15,3,distance,cathedral,numerosity_judgement,3,25,2,countries_forward,"['_Peru_', '_Yemen_']","['m', 'm']","['p318', 'p307']","[9, 4]","[92.00610777531934, 89.31368318402099]",2.0,True,8.5,3.5355339059327378,1.0624277591705322,0.742401543525139
0,,sub_103_collocated,2024-08-07 12:09:19,3,distance,cathedral,numerosity_judgement,3,26,6,countries_forward,"['_Oman_', '_Peru_', '_Britain_', '_Tonga_', '_Yemen_', '_Congo_']","['f', 'f', 'm', 'f', 'm', 'f']","['p284', 'p268', 'p229', 'p248', 'p318', 'p245']","[7, 8, 5, 10, 6, 1]","[91.73820004985969, 92.0152836843556, 90.34149293193902, 93.00003341222717, 91.58892582949886, 86.2038576498559]",4.0,False,8.166666666666666,3.0605010483034745,1.2186667919158936,0.7195778004766769
0,,sub_103_collocated,2024-08-07 12:09:24,3,distance,cathedral,numerosity_judgement,3,27,3,countries_forward,"['_Mali_', '_Britain_', '_Sudan_']","['f', 'f', 'm']","['p268', 'p284', 'p229']","[0, 4, 2]","[84.40078082039426, 89.31368318402099, 87.57049330475357]",3.0,True,4.0,2.0,2.718560218811035,0.9657700601520828
0,,sub_103_collocated,2024-08-07 12:09:28,3,distance,cathedral,numerosity_judgement,3,28,4,countries_forward,"['_Sudan_', '_Japan_', '_Oman_', '_Mali_']","['m', 'm', 'm', 'f']","['p256', 'p318', 'p229', 'p248']","[8, 1, 0, 3]","[92.0152836843556, 86.2038576498559, 84.40078082039426, 89.14911522239515]",4.0,True,5.0,3.559026084010437,1.421776533126831,0.8879241856769947
0,,sub_103_collocated,2024-08-07 12:09:34,3,distance,cathedral,numerosity_judgement,3,29,5,countries_forward,"['_Mali_', '_Cuba_', '_Sudan_', '_Tonga_', '_Yemen_']","['m', 'm', 'm', 'm', 'f']","['p229', 'p307', 'p256', 'p318', 'p284']","[2, 4, 10, 3, 5]","[87.57049330475357, 89.31368318402099, 93.00003341222717, 89.14911522239515, 90.34149293193902]",3.0,False,6.8,3.1144823004794877,3.577876329421997,0.8409488139825219
0,,sub_103_collocated,2024-08-07 12:09:38,3,distance,cathedral,numerosity_judgement,3,30,3,countries_forward,"['_Tonga_', '_Congo_', '_Yemen_']","['f', 'm', 'm']","['p248', 'p307', 'p229']","[1, 8, 7]","[86.2038576498559, 92.0152836843556, 91.73820004985969]",2.0,False,7.333333333333333,3.7859388972001824,1.343656301498413,0.7820111224605607
0,,sub_103_collocated,2024-08-07 12:09:42,3,distance,cathedral,numerosity_judgement,3,31,4,countries_forward,"['_Congo_', '_Sudan_', '_Togo_', '_Tonga_']","['f', 'm', 'm', 'f']","['p248', 'p256', 'p318', 'p268']","[6, 8, 7, 3]","[91.58892582949886, 92.0152836843556, 91.73820004985969, 89.14911522239515]",3.0,False,8.0,2.160246899469287,1.6092615127563477,0.7904324140279196
0,,sub_103_collocated,2024-08-07 12:09:47,3,distance,cathedral,numerosity_judgement,3,32,6,countries_forward,"['_Syria_', '_Peru_', '_Belgium_', '_Cuba_', '_Oman_', '_Tonga_']","['f', 'f', 'm', 'm', 'f', 'm']","['p284', 'p268', 'p229', 'p307', 'p245', 'p256']","[1, 3, 9, 5, 10, 7]","[86.2038576498559, 89.14911522239515, 92.00610777531934, 90.34149293193902, 93.00003341222717, 91.73820004985969]",4.0,False,7.833333333333333,3.488074922742725,1.9061176776885986,0.765157189876291
0,,sub_103_collocated,2024-08-07 12:09:50,3,distance,cathedral,numerosity_judgement,3,33,2,countries_forward,"['_Mali_', '_Oman_']","['m', 'm']","['p307', 'p256']","[5, 7]","[90.34149293193902, 91.73820004985969]",2.0,True,8.0,1.4142135623730951,1.1874158382415771,0.5621949835432981
0,,sub_103_collocated,2024-08-07 12:09:55,3,distance,cathedral,numerosity_judgement,3,34,5,countries_forward,"['_Japan_', '_Congo_', '_Syria_', '_Oman_', '_Britain_']","['f', 'f', 'f', 'm', 'f']","['p284', 'p248', 'p268', 'p318', 'p245']","[6, 9, 2, 1, 8]","[91.58892582949886, 92.00610777531934, 87.57049330475357, 86.2038576498559, 92.0152836843556]",3.0,False,7.2,3.5637059362410923,1.7030065059661865,0.9527635909658382
0,,sub_103_collocated,2024-08-07 12:09:58,3,distance,cathedral,numerosity_judgement,3,35,2,countries_forward,"['_Mali_', '_Yemen_']","['f', 'm']","['p248', 'p256']","[3, 5]","[89.14911522239515, 90.34149293193902]",2.0,True,6.0,1.4142135623730951,1.2186646461486816,0.6650890931789808
0,,sub_103_collocated,2024-08-07 12:10:04,3,distance,cathedral,numerosity_judgement,3,36,6,countries_forward,"['_Sudan_', '_Mali_', '_Congo_', '_Tonga_', '_Oman_', '_Togo_']","['m', 'm', 'f', 'f', 'm', 'm']","['p307', 'p318', 'p268', 'p248', 'p229', 'p256']","[4, 2, 3, 10, 1, 9]","[89.31368318402099, 87.57049330475357, 89.14911522239515, 93.00003341222717, 86.2038576498559, 92.00610777531934]",4.0,False,6.833333333333333,3.763863263545405,3.406013250350952,0.8193735103847464
0,,sub_103_collocated,2024-08-07 12:10:08,3,distance,cathedral,numerosity_judgement,3,37,4,countries_forward,"['_Britain_', '_Mali_', '_Peru_', '_Oman_']","['f', 'f', 'm', 'm']","['p268', 'p248', 'p318', 'p229']","[0, 4, 1, 3]","[84.40078082039426, 89.31368318402099, 86.2038576498559, 89.14911522239515]",3.0,False,4.0,1.8257418583505538,1.562391757965088,0.6887413460447168
0,,sub_103_collocated,2024-08-07 12:10:13,3,distance,cathedral,numerosity_judgement,3,38,5,countries_forward,"['_Mali_', '_Cuba_', '_Oman_', '_Peru_', '_Britain_']","['f', 'm', 'f', 'f', 'm']","['p248', 'p307', 'p245', 'p284', 'p318']","[0, 10, 9, 5, 8]","[84.40078082039426, 93.00003341222717, 92.00610777531934, 90.34149293193902, 92.0152836843556]",4.0,False,8.4,4.03732584763727,2.1717259883880615,0.8174895017591647
0,,sub_103_collocated,2024-08-07 12:10:17,3,distance,cathedral,numerosity_judgement,3,39,3,countries_forward,"['_Peru_', '_Yemen_', '_Oman_']","['m', 'm', 'm']","['p307', 'p256', 'p229']","[3, 1, 10]","[89.14911522239515, 86.2038576498559, 93.00003341222717]",2.0,False,6.666666666666667,4.725815626252608,1.5936408042907715,0.6106230847803882
0,,sub_103_collocated,2024-08-07 12:10:20,3,distance,cathedral,numerosity_judgement,3,40,2,countries_forward,"['_Cuba_', '_Peru_']","['f', 'f']","['p245', 'p284']","[3, 7]","[89.14911522239515, 91.73820004985969]",2.0,True,7.0,2.8284271247461903,1.312408685684204,0.773317444103961
0,,sub_103_collocated,2024-08-07 12:10:23,3,distance,cathedral,numerosity_judgement,3,41,3,countries_forward,"['_Britain_', '_Togo_', '_Japan_']","['m', 'f', 'f']","['p318', 'p284', 'p245']","[3, 7, 2]","[89.14911522239515, 91.73820004985969, 87.57049330475357]",3.0,True,6.0,2.6457513110645907,1.4373996257781982,0.9101691067983204
0,,sub_103_collocated,2024-08-07 12:10:28,3,distance,cathedral,numerosity_judgement,3,42,4,countries_forward,"['_Cuba_', '_Yemen_', '_Tonga_', '_Mali_']","['m', 'm', 'f', 'm']","['p307', 'p229', 'p248', 'p318']","[9, 1, 10, 7]","[92.00610777531934, 86.2038576498559, 93.00003341222717, 91.73820004985969]",2.0,False,8.75,4.031128874149275,1.9998605251312256,0.7473612529792305
0,,sub_103_collocated,2024-08-07 12:10:32,3,distance,cathedral,numerosity_judgement,3,43,6,countries_forward,"['_Congo_', '_Cuba_', '_Tonga_', '_Britain_', '_Peru_', '_Mali_']","['m', 'm', 'f', 'f', 'm', 'm']","['p229', 'p307', 'p248', 'p268', 'p318', 'p256']","[5, 7, 4, 8, 0, 1]","[90.34149293193902, 91.73820004985969, 89.31368318402099, 92.0152836843556, 84.40078082039426, 86.2038576498559]",4.0,False,6.166666666666667,3.188521078284832,1.0780494213104248,0.7363863352627398
0,,sub_103_collocated,2024-08-07 12:10:36,3,distance,cathedral,numerosity_judgement,3,44,5,countries_forward,"['_Tonga_', '_Yemen_', '_Britain_', '_Peru_', '_Oman_']","['f', 'm', 'f', 'f', 'm']","['p248', 'p229', 'p245', 'p268', 'p307']","[2, 0, 7, 3, 6]","[87.57049330475357, 84.40078082039426, 91.73820004985969, 89.14911522239515, 91.58892582949886]",2.0,False,5.6,2.8809720581775866,1.2499134540557861,0.7157757348768585
0,,sub_103_collocated,2024-08-07 12:10:41,3,distance,cathedral,numerosity_judgement,3,45,4,countries_forward,"['_Sudan_', '_Britain_', '_Togo_', '_Japan_']","['m', 'm', 'f', 'f']","['p229', 'p318', 'p245', 'p284']","[7, 1, 8, 4]","[91.73820004985969, 86.2038576498559, 92.0152836843556, 89.31368318402099]",4.0,True,7.0,3.1622776601683795,2.1092286109924316,0.9537850414254908
0,,sub_103_collocated,2024-08-07 12:10:44,3,distance,cathedral,numerosity_judgement,3,46,2,countries_forward,"['_Cuba_', '_Oman_']","['m', 'm']","['p229', 'p318']","[4, 9]","[89.31368318402099, 92.00610777531934]",2.0,True,8.5,3.5355339059327378,1.0468029975891113,0.7961525366019748
0,,sub_103_collocated,2024-08-07 12:10:49,3,distance,cathedral,numerosity_judgement,3,47,3,countries_forward,"['_Britain_', '_Oman_', '_Tonga_']","['f', 'm', 'f']","['p268', 'p318', 'p248']","[10, 3, 4]","[93.00003341222717, 89.14911522239515, 89.31368318402099]",3.0,True,7.666666666666667,3.7859388972001824,2.5466971397399902,0.8393371921461809
0,,sub_103_collocated,2024-08-07 12:10:54,3,distance,cathedral,numerosity_judgement,3,48,5,countries_forward,"['_Togo_', '_Cuba_', '_Peru_', '_Syria_', '_Yemen_']","['f', 'f', 'f', 'f', 'm']","['p245', 'p268', 'p248', 'p284', 'p307']","[7, 8, 6, 10, 9]","[91.73820004985969, 92.0152836843556, 91.58892582949886, 93.00003341222717, 92.00610777531934]",3.0,False,10.0,1.5811388300841898,2.109229326248169,0.8614232209737828
0,,sub_103_collocated,2024-08-07 12:10:58,3,distance,cathedral,numerosity_judgement,3,49,6,countries_forward,"['_Oman_', '_Mali_', '_Britain_', '_Cuba_', '_Peru_', '_Japan_']","['m', 'm', 'm', 'm', 'f', 'f']","['p307', 'p318', 'p256', 'p229', 'p268', 'p248']","[6, 3, 2, 1, 0, 5]","[91.58892582949886, 89.14911522239515, 87.57049330475357, 86.2038576498559, 84.40078082039426, 90.34149293193902]",5.0,False,4.833333333333333,2.316606713852541,1.0624253749847412,0.8418340710475541
0,,sub_103_collocated,2024-08-07 12:11:02,3,distance,cathedral,numerosity_judgement,3,50,5,countries_forward,"['_Cuba_', '_Congo_', '_Togo_', '_Yemen_', '_Oman_']","['f', 'm', 'm', 'm', 'f']","['p284', 'p318', 'p307', 'p229', 'p245']","[1, 2, 6, 5, 0]","[86.2038576498559, 87.57049330475357, 91.58892582949886, 90.34149293193902, 84.40078082039426]",4.0,False,4.8,2.588435821108957,2.109226942062378,0.8968221541255249
0,,sub_103_collocated,2024-08-07 12:11:06,3,distance,cathedral,numerosity_judgement,3,51,3,countries_forward,"['_Tonga_', '_Cuba_', '_Britain_']","['f', 'm', 'f']","['p245', 'p318', 'p284']","[10, 9, 1]","[93.00003341222717, 92.00610777531934, 86.2038576498559]",3.0,True,8.666666666666666,4.932882862316248,1.6405105590820312,0.809919418908183
0,,sub_103_collocated,2024-08-07 12:11:12,3,distance,cathedral,numerosity_judgement,3,52,4,countries_forward,"['_Yemen_', '_Oman_', '_Tonga_', '_Peru_']","['f', 'm', 'f', 'm']","['p268', 'p229', 'p245', 'p307']","[7, 2, 4, 10]","[91.73820004985969, 87.57049330475357, 89.31368318402099, 93.00003341222717]",3.0,False,7.75,3.5,2.9685440063476562,0.7081148564294631
0,,sub_103_collocated,2024-08-07 12:11:15,3,distance,cathedral,numerosity_judgement,3,53,2,countries_forward,"['_Oman_', '_Yemen_']","['m', 'f']","['p307', 'p245']","[6, 10]","[91.58892582949886, 93.00003341222717]",2.0,True,10.0,2.8284271247461903,1.8748695850372314,0.5938372488934287
0,,sub_103_collocated,2024-08-07 12:11:20,3,distance,cathedral,numerosity_judgement,3,54,6,countries_forward,"['_Oman_', '_Cuba_', '_Mali_', '_Britain_', '_Togo_', '_Tonga_']","['m', 'm', 'm', 'f', 'm', 'f']","['p229', 'p318', 'p256', 'p248', 'p307', 'p245']","[10, 3, 4, 9, 8, 5]","[93.00003341222717, 89.14911522239515, 89.31368318402099, 92.00610777531934, 92.0152836843556, 90.34149293193902]",4.0,False,8.5,2.8809720581775866,1.827998399734497,0.7045851776188855
0,,sub_103_collocated,2024-08-07 12:11:24,3,distance,cathedral,numerosity_judgement,3,55,4,countries_forward,"['_Congo_', '_Oman_', '_Syria_', '_Yemen_']","['f', 'f', 'm', 'f']","['p248', 'p268', 'p318', 'p284']","[3, 1, 9, 8]","[89.14911522239515, 86.2038576498559, 92.00610777531934, 92.0152836843556]",2.0,False,7.25,3.8622100754188224,1.7498784065246582,0.8753489955737147
0,,sub_103_collocated,2024-08-07 12:11:29,3,distance,cathedral,numerosity_judgement,3,56,6,countries_forward,"['_Tonga_', '_Mali_', '_Cuba_', '_Oman_', '_Peru_', '_Belgium_']","['m', 'm', 'f', 'm', 'f', 'f']","['p229', 'p307', 'p268', 'p256', 'p284', 'p245']","[9, 1, 6, 7, 5, 3]","[92.00610777531934, 86.2038576498559, 91.58892582949886, 91.73820004985969, 90.34149293193902, 89.14911522239515]",4.0,False,7.166666666666667,2.857738033247041,1.3592803478240967,0.7759391669504029
0,,sub_103_collocated,2024-08-07 12:11:33,3,distance,cathedral,numerosity_judgement,3,57,3,countries_forward,"['_Togo_', '_Sudan_', '_Congo_']","['f', 'f', 'm']","['p248', 'p284', 'p307']","[5, 4, 2]","[90.34149293193902, 89.31368318402099, 87.57049330475357]",3.0,True,5.666666666666667,1.5275252316519465,1.7655012607574463,0.9524458063783906
0,,sub_103_collocated,2024-08-07 12:11:36,3,distance,cathedral,numerosity_judgement,3,58,2,countries_forward,"['_Congo_', '_Peru_']","['f', 'm']","['p284', 'p256']","[9, 5]","[92.00610777531934, 90.34149293193902]",2.0,True,9.0,2.8284271247461903,1.781125783920288,0.849551696742708
0,,sub_103_collocated,2024-08-07 12:11:41,3,distance,cathedral,numerosity_judgement,3,59,5,countries_forward,"['_Tonga_', '_Mali_', '_Britain_', '_Belgium_', '_Cuba_']","['m', 'f', 'm', 'm', 'f']","['p229', 'p248', 'p256', 'p307', 'p245']","[1, 8, 7, 5, 4]","[86.2038576498559, 92.0152836843556, 91.73820004985969, 90.34149293193902, 89.31368318402099]",3.0,False,7.0,2.7386127875258306,2.1248526573181152,0.7676427193281126
0,,sub_103_collocated,2024-08-07 12:11:44,3,distance,cathedral,numerosity_judgement,3,60,2,countries_forward,"['_Syria_', '_Congo_']","['f', 'f']","['p248', 'p245']","[9, 6]","[92.00610777531934, 91.58892582949886]",2.0,True,9.5,2.1213203435596424,1.0780503749847412,0.8660424469413234
0,,sub_103_collocated,2024-08-07 12:11:48,3,distance,cathedral,numerosity_judgement,3,61,6,countries_forward,"['_Peru_', '_Britain_', '_Syria_', '_Oman_', '_Mali_', '_Cuba_']","['f', 'f', 'm', 'm', 'f', 'f']","['p268', 'p245', 'p307', 'p318', 'p248', 'p284']","[8, 1, 10, 0, 4, 7]","[92.0152836843556, 86.2038576498559, 93.00003341222717, 84.40078082039426, 89.31368318402099, 91.73820004985969]",4.0,False,7.0,4.0,1.515519380569458,0.8834865509022812
0,,sub_103_collocated,2024-08-07 12:11:52,3,distance,cathedral,numerosity_judgement,3,62,3,countries_forward,"['_Oman_', '_Togo_', '_Syria_']","['m', 'f', 'm']","['p256', 'p245', 'p307']","[10, 8, 6]","[93.00003341222717, 92.0152836843556, 91.58892582949886]",2.0,False,10.0,2.0,1.406151533126831,0.7909090909090909
0,,sub_103_collocated,2024-08-07 12:11:57,3,distance,cathedral,numerosity_judgement,3,63,5,countries_forward,"['_Belgium_', '_Japan_', '_Sudan_', '_Congo_', '_Cuba_']","['m', 'f', 'f', 'm', 'f']","['p318', 'p248', 'p245', 'p307', 'p284']","[2, 10, 7, 6, 8]","[87.57049330475357, 93.00003341222717, 91.73820004985969, 91.58892582949886, 92.0152836843556]",3.0,False,8.6,2.9664793948382653,2.234220027923584,0.89117012824878
0,,sub_103_collocated,2024-08-07 12:12:01,3,distance,cathedral,numerosity_judgement,3,64,4,countries_forward,"['_Oman_', '_Peru_', '_Britain_', '_Cuba_']","['f', 'm', 'm', 'f']","['p248', 'p307', 'p318', 'p268']","[7, 5, 10, 3]","[91.73820004985969, 90.34149293193902, 93.00003341222717, 89.14911522239515]",2.0,False,8.25,2.9860788111948193,1.9842383861541748,0.6691067983202814
0,,sub_103_collocated,2024-08-07 12:12:07,3,distance,cathedral,numerosity_judgement,3,65,6,countries_forward,"['_Cuba_', '_Tonga_', '_Congo_', '_Togo_', '_Belgium_', '_Oman_']","['f', 'f', 'f', 'm', 'f', 'm']","['p248', 'p245', 'p268', 'p256', 'p284', 'p229']","[4, 10, 6, 8, 3, 2]","[89.31368318402099, 93.00003341222717, 91.58892582949886, 92.0152836843556, 89.14911522239515, 87.57049330475357]",3.0,False,7.5,3.082207001484488,3.2810206413269043,0.7929292929292929
0,,sub_103_collocated,2024-08-07 12:12:12,3,distance,cathedral,numerosity_judgement,3,66,4,countries_forward,"['_Peru_', '_Syria_', '_Cuba_', '_Togo_']","['m', 'm', 'f', 'f']","['p256', 'p318', 'p268', 'p245']","[5, 2, 10, 1]","[90.34149293193902, 87.57049330475357, 93.00003341222717, 86.2038576498559]",2.0,False,6.5,4.041451884327381,1.999861717224121,0.8122347066167291
0,,sub_103_collocated,2024-08-07 12:12:17,3,distance,cathedral,numerosity_judgement,3,67,5,countries_forward,"['_Peru_', '_Tonga_', '_Oman_', '_Cuba_', '_Japan_']","['m', 'f', 'm', 'm', 'f']","['p256', 'p268', 'p307', 'p318', 'p248']","[2, 3, 1, 9, 7]","[87.57049330475357, 89.14911522239515, 86.2038576498559, 92.00610777531934, 91.73820004985969]",3.0,False,6.4,3.4351128074635335,2.171724319458008,0.7865849506298944
0,,sub_103_collocated,2024-08-07 12:12:20,3,distance,cathedral,numerosity_judgement,3,68,2,countries_forward,"['_Yemen_', '_Cuba_']","['f', 'm']","['p245', 'p307']","[2, 10]","[87.57049330475357, 93.00003341222717]",2.0,True,8.0,5.656854249492381,1.2186660766601562,0.7083985926682556
0,,sub_103_collocated,2024-08-07 12:12:24,3,distance,cathedral,numerosity_judgement,3,69,3,countries_forward,"['_Yemen_', '_Belgium_', '_Oman_']","['f', 'f', 'f']","['p248', 'p284', 'p245']","[4, 8, 5]","[89.31368318402099, 92.0152836843556, 90.34149293193902]",3.0,True,7.666666666666667,2.0816659994661326,1.8904938697814941,0.7538644875723527
0,,sub_103_collocated,2024-08-07 12:12:29,3,distance,cathedral,numerosity_judgement,3,70,5,countries_forward,"['_Togo_', '_Congo_', '_Mali_', '_Britain_', '_Belgium_']","['m', 'm', 'f', 'm', 'm']","['p256', 'p307', 'p248', 'p318', 'p229']","[3, 4, 5, 1, 2]","[89.14911522239515, 89.31368318402099, 90.34149293193902, 86.2038576498559, 87.57049330475357]",4.0,False,5.0,1.5811388300841898,3.140407085418701,0.9271478833276586
0,,sub_103_collocated,2024-08-07 12:12:34,3,distance,cathedral,numerosity_judgement,3,71,3,countries_forward,"['_Tonga_', '_Yemen_', '_Mali_']","['m', 'f', 'f']","['p229', 'p268', 'p284']","[8, 3, 2]","[92.0152836843556, 89.14911522239515, 87.57049330475357]",2.0,False,6.333333333333333,3.2145502536643185,2.29671573638916,0.879151061173533
0,,sub_103_collocated,2024-08-07 12:12:38,3,distance,cathedral,numerosity_judgement,3,72,6,countries_forward,"['_Yemen_', '_Sudan_', '_Tonga_', '_Mali_', '_Congo_', '_Belgium_']","['f', 'm', 'm', 'm', 'f', 'f']","['p284', 'p307', 'p229', 'p318', 'p268', 'p245']","[2, 3, 0, 9, 4, 7]","[87.57049330475357, 89.14911522239515, 84.40078082039426, 92.00610777531934, 89.31368318402099, 91.73820004985969]",3.0,False,6.166666666666667,3.3115957885386114,1.4998962879180908,0.8965384178867325
0,,sub_103_collocated,2024-08-07 12:12:43,3,distance,cathedral,numerosity_judgement,3,73,4,countries_forward,"['_Oman_', '_Japan_', '_Cuba_', '_Yemen_']","['m', 'f', 'm', 'm']","['p256', 'p268', 'p229', 'p307']","[6, 0, 7, 3]","[91.58892582949886, 84.40078082039426, 91.73820004985969, 89.14911522239515]",2.0,False,6.0,3.1622776601683795,2.452953815460205,0.7288389513108614
0,,sub_103_collocated,2024-08-07 12:12:46,3,distance,cathedral,numerosity_judgement,3,74,2,countries_forward,"['_Sudan_', '_Togo_']","['m', 'f']","['p229', 'p268']","[9, 7]","[92.00610777531934, 91.73820004985969]",2.0,True,10.0,1.4142135623730951,1.171792984008789,0.954568153444558
0,,sub_103_collocated,2024-08-07 12:14:18,3,distance,cathedral,numerosity_judgement,4,0,4,countries_forward,"['_Peru_', '_Oman_', '_Britain_', '_Congo_']","['f', 'm', 'm', 'f']","['p245', 'p307', 'p318', 'p248']","[4, 5, 10, 2]","[89.31368318402099, 90.34149293193902, 93.00003341222717, 87.57049330475357]",3.0,False,7.25,3.4034296427770228,2.3123395442962646,0.7106798320281467
0,,sub_103_collocated,2024-08-07 12:14:22,3,distance,cathedral,numerosity_judgement,4,1,5,countries_forward,"['_Britain_', '_Syria_', '_Tonga_', '_Belgium_', '_Oman_']","['m', 'f', 'm', 'f', 'm']","['p229', 'p268', 'p318', 'p248', 'p307']","[2, 5, 1, 9, 10]","[87.57049330475357, 90.34149293193902, 86.2038576498559, 92.00610777531934, 93.00003341222717]",3.0,False,7.4,4.03732584763727,1.312410593032837,0.9419816138917264
0,,sub_103_collocated,2024-08-07 12:14:26,3,distance,cathedral,numerosity_judgement,4,2,6,countries_forward,"['_Togo_', '_Congo_', '_Sudan_', '_Tonga_', '_Belgium_', '_Syria_']","['f', 'm', 'm', 'f', 'f', 'm']","['p248', 'p256', 'p229', 'p268', 'p245', 'p318']","[0, 4, 9, 5, 10, 6]","[84.40078082039426, 89.31368318402099, 92.00610777531934, 90.34149293193902, 93.00003341222717, 91.58892582949886]",4.0,False,7.666666666666667,3.6147844564602556,1.3749041557312012,0.9409715128816252
0,,sub_103_collocated,2024-08-07 12:14:29,3,distance,cathedral,numerosity_judgement,4,3,3,countries_forward,"['_Japan_', '_Syria_', '_Britain_']","['m', 'f', 'f']","['p256', 'p268', 'p248']","[10, 1, 5]","[93.00003341222717, 86.2038576498559, 90.34149293193902]",2.0,False,7.333333333333333,4.509249752822894,1.5155189037322998,0.8756781296107139
0,,sub_103_collocated,2024-08-07 12:14:33,3,distance,cathedral,numerosity_judgement,4,4,2,countries_forward,"['_Syria_', '_Britain_']","['f', 'm']","['p268', 'p256']","[3, 10]","[89.14911522239515, 93.00003341222717]",2.0,True,8.5,4.949747468305833,1.484271764755249,0.872568380433549
0,,sub_103_collocated,2024-08-07 12:14:37,3,distance,cathedral,numerosity_judgement,4,5,5,countries_forward,"['_Britain_', '_Cuba_', '_Peru_', '_Oman_', '_Congo_']","['m', 'f', 'm', 'm', 'f']","['p256', 'p245', 'p229', 'p318', 'p268']","[0, 6, 1, 5, 3]","[84.40078082039426, 91.58892582949886, 86.2038576498559, 90.34149293193902, 89.14911522239515]",4.0,False,5.0,2.5495097567963922,1.2655367851257324,0.7898649415503348
0,,sub_103_collocated,2024-08-07 12:14:41,3,distance,cathedral,numerosity_judgement,4,6,3,countries_forward,"['_Japan_', '_Oman_', '_Syria_']","['m', 'f', 'f']","['p229', 'p268', 'p284']","[2, 6, 0]","[87.57049330475357, 91.58892582949886, 84.40078082039426]",2.0,False,4.666666666666667,3.0550504633038935,1.7655017375946045,0.9364657814096016
0,,sub_103_collocated,2024-08-07 12:14:46,3,distance,cathedral,numerosity_judgement,4,7,4,countries_forward,"['_Sudan_', '_Tonga_', '_Japan_', '_Yemen_']","['m', 'm', 'f', 'm']","['p256', 'p229', 'p248', 'p318']","[6, 0, 5, 10]","[91.58892582949886, 84.40078082039426, 90.34149293193902, 93.00003341222717]",3.0,False,7.25,4.112987559751022,2.3123397827148438,0.7912609238451935
0,,sub_103_collocated,2024-08-07 12:14:50,3,distance,cathedral,numerosity_judgement,4,8,6,countries_forward,"['_Cuba_', '_Mali_', '_Yemen_', '_Britain_', '_Belgium_', '_Congo_']","['f', 'm', 'f', 'm', 'm', 'f']","['p268', 'p307', 'p284', 'p318', 'p256', 'p245']","[4, 1, 6, 2, 10, 0]","[89.31368318402099, 86.2038576498559, 91.58892582949886, 87.57049330475357, 93.00003341222717, 84.40078082039426]",3.0,False,5.833333333333333,3.7103458958251676,2.077981948852539,0.8780842129156736
0,,sub_103_collocated,2024-08-07 12:14:53,3,distance,cathedral,numerosity_judgement,4,9,2,countries_forward,"['_Cuba_', '_Japan_']","['f', 'm']","['p284', 'p229']","[0, 7]","[84.40078082039426, 91.73820004985969]",2.0,True,5.5,4.949747468305833,1.0936739444732666,0.9293723754397912
0,,sub_103_collocated,2024-08-07 12:14:57,3,distance,cathedral,numerosity_judgement,4,10,3,countries_forward,"['_Oman_', '_Mali_', '_Cuba_']","['f', 'm', 'm']","['p284', 'p307', 'p318']","[3, 10, 4]","[89.14911522239515, 93.00003341222717, 89.31368318402099]",3.0,True,7.666666666666667,3.7859388972001824,1.6717579364776611,0.7365565770060152
0,,sub_103_collocated,2024-08-07 12:15:01,3,distance,cathedral,numerosity_judgement,4,11,5,countries_forward,"['_Peru_', '_Tonga_', '_Oman_', '_Britain_', '_Syria_']","['f', 'm', 'm', 'f', 'f']","['p248', 'p256', 'p229', 'p268', 'p245']","[7, 4, 6, 8, 5]","[91.73820004985969, 89.31368318402099, 91.58892582949886, 92.0152836843556, 90.34149293193902]",4.0,False,8.0,1.5811388300841898,1.5155198574066162,0.8656906140052207
0,,sub_103_collocated,2024-08-07 12:15:05,3,distance,cathedral,numerosity_judgement,4,12,4,countries_forward,"['_Oman_', '_Mali_', '_Yemen_', '_Britain_']","['f', 'f', 'm', 'f']","['p248', 'p268', 'p256', 'p245']","[3, 6, 9, 7]","[89.14911522239515, 91.58892582949886, 92.00610777531934, 91.73820004985969]",3.0,False,8.25,2.5,1.718630313873291,0.6700034048348655
0,,sub_103_collocated,2024-08-07 12:15:10,3,distance,cathedral,numerosity_judgement,4,13,6,countries_forward,"['_Belgium_', '_Yemen_', '_Cuba_', '_Sudan_', '_Togo_', '_Oman_']","['f', 'm', 'm', 'f', 'f', 'm']","['p268', 'p307', 'p256', 'p248', 'p245', 'p318']","[1, 3, 5, 9, 8, 4]","[86.2038576498559, 89.14911522239515, 90.34149293193902, 92.00610777531934, 92.0152836843556, 89.31368318402099]",4.0,False,7.0,3.03315017762062,1.8279964923858643,0.8714334354783793
0,,sub_103_collocated,2024-08-07 12:15:14,3,distance,cathedral,numerosity_judgement,4,14,2,countries_forward,"['_Peru_', '_Oman_']","['f', 'm']","['p284', 'p307']","[7, 9]","[91.73820004985969, 92.00610777531934]",2.0,True,10.0,1.4142135623730951,1.8436217308044434,0.7101577573487686
0,,sub_103_collocated,2024-08-07 12:15:18,3,distance,cathedral,numerosity_judgement,4,15,4,countries_forward,"['_Syria_', '_Oman_', '_Yemen_', '_Sudan_']","['f', 'f', 'f', 'm']","['p248', 'p268', 'p284', 'p307']","[0, 9, 2, 10]","[84.40078082039426, 92.00610777531934, 87.57049330475357, 93.00003341222717]",3.0,False,7.25,4.9916597106239795,2.0154852867126465,0.8921461809102259
0,,sub_103_collocated,2024-08-07 12:15:23,3,distance,cathedral,numerosity_judgement,4,16,3,countries_forward,"['_Togo_', '_Yemen_', '_Belgium_']","['m', 'f', 'm']","['p318', 'p268', 'p229']","[6, 0, 4]","[91.58892582949886, 84.40078082039426, 89.31368318402099]",2.0,False,5.333333333333333,3.0550504633038935,2.327962875366211,0.8972193848598343
0,,sub_103_collocated,2024-08-07 12:15:28,3,distance,cathedral,numerosity_judgement,4,17,6,countries_forward,"['_Yemen_', '_Sudan_', '_Togo_', '_Oman_', '_Peru_', '_Japan_']","['m', 'f', 'f', 'f', 'm', 'm']","['p229', 'p245', 'p284', 'p248', 'p318', 'p307']","[0, 10, 7, 5, 2, 9]","[84.40078082039426, 93.00003341222717, 91.73820004985969, 90.34149293193902, 87.57049330475357, 92.00610777531934]",3.0,False,7.5,3.9370039370059056,2.3279635906219482,0.9046532743161956
0,,sub_103_collocated,2024-08-07 12:15:32,3,distance,cathedral,numerosity_judgement,4,18,2,countries_forward,"['_Syria_', '_Oman_']","['m', 'f']","['p307', 'p245']","[8, 1]","[92.0152836843556, 86.2038576498559]",2.0,True,6.5,4.949747468305833,1.4217767715454102,0.8937351038474634
0,,sub_103_collocated,2024-08-07 12:15:35,3,distance,cathedral,numerosity_judgement,4,19,5,countries_forward,"['_Tonga_', '_Japan_', '_Cuba_', '_Belgium_', '_Congo_']","['m', 'f', 'm', 'f', 'f']","['p256', 'p268', 'p318', 'p284', 'p248']","[8, 3, 6, 0, 4]","[92.0152836843556, 89.14911522239515, 91.58892582949886, 84.40078082039426, 89.31368318402099]",4.0,False,6.2,3.03315017762062,0.9999308586120605,0.8105890364317331
0,,sub_103_collocated,2024-08-07 12:15:40,3,distance,cathedral,numerosity_judgement,4,20,6,countries_forward,"['_Congo_', '_Peru_', '_Mali_', '_Cuba_', '_Oman_', '_Tonga_']","['m', 'f', 'm', 'm', 'f', 'f']","['p229', 'p245', 'p256', 'p318', 'p268', 'p248']","[8, 6, 3, 4, 1, 5]","[92.0152836843556, 91.58892582949886, 89.14911522239515, 89.31368318402099, 86.2038576498559, 90.34149293193902]",4.0,False,6.5,2.4289915602982237,2.062357187271118,0.8038474633980252
0,,sub_103_collocated,2024-08-07 12:15:45,3,distance,cathedral,numerosity_judgement,4,21,5,countries_forward,"['_Tonga_', '_Yemen_', '_Oman_', '_Togo_', '_Sudan_']","['m', 'm', 'm', 'f', 'f']","['p256', 'p307', 'p229', 'p284', 'p268']","[2, 8, 6, 9, 4]","[87.57049330475357, 92.0152836843556, 91.58892582949886, 92.00610777531934, 89.31368318402099]",3.0,False,7.8,2.863564212655271,2.062357187271118,0.882555896039042
0,,sub_103_collocated,2024-08-07 12:15:51,3,distance,cathedral,numerosity_judgement,4,22,3,countries_forward,"['_Cuba_', '_Britain_', '_Peru_']","['f', 'm', 'f']","['p268', 'p229', 'p248']","[9, 0, 10]","[92.00610777531934, 84.40078082039426, 93.00003341222717]",2.0,False,8.333333333333334,5.507570547286102,3.874730110168457,0.8189649302008852
0,,sub_103_collocated,2024-08-07 12:15:55,3,distance,cathedral,numerosity_judgement,4,23,2,countries_forward,"['_Britain_', '_Cuba_']","['m', 'm']","['p318', 'p229']","[3, 9]","[89.14911522239515, 92.00610777531934]",2.0,True,8.0,4.242640687119285,2.4529547691345215,0.8315174214050619
