,event_id,timestamp,subject_id,session_index,plane,setup,task,block,trial_index,stim_type,headpose_offset_azi,headpose_offset_ele,stim_filename,stim_level,mgb_level,fluctuation,speaker_id,speaker_proc,speaker_chan,stim_azi,stim_ele,stim_dist,resp_azi,resp_ele,resp_dist,reaction_time
0,,2024-07-18 13:17:31,sub_114,3,distance,cathedral,localisation_accuracy,1,0,babble,,,babble-reversed_n13_p256-three-p318-one-p307-two-p284-nine-p268-four-p245-eight.wav,92.10214227388809,30,0.12294229907787846,8,RX81,9,0.0,0.0,10.0,0,0,9.906158357771261,5.233202219009399
0,,2024-07-18 13:17:35,sub_114,3,distance,cathedral,localisation_accuracy,1,1,babble,,,babble-reversed_n13_p229-two-p256-three-p318-eight-p284-five-p268-four-p245-one.wav,87.30296756074694,30,-0.38485089006898887,2,RX81,3,0.0,0.0,4.0,0,0,7.838709677419356,3.6256930828094482
0,,2024-07-18 13:17:40,sub_114,3,distance,cathedral,localisation_accuracy,1,2,babble,,,babble-reversed_n13_p229-eight-p256-nine-p318-four-p245-three-p268-five-p284-two.wav,92.33550593554685,30,0.46666932141199036,9,RX81,10,0.0,0.0,11.0,0,0,10.609970674486805,3.3850014209747314
0,,2024-07-18 13:17:44,sub_114,3,distance,cathedral,localisation_accuracy,1,3,babble,,,babble-reversed_n13_p318-three-p307-one-p256-five-p248-nine-p245-two-p284-eight.wav,84.21251443948415,30,-0.27856282488692086,0,RX81,1,0.0,0.0,2.0,0,0,3.8797653958944283,3.405967950820923
0,,2024-07-18 13:17:49,sub_114,3,distance,cathedral,localisation_accuracy,1,4,babble,,,babble-reversed_n13_p318-five-p229-three-p256-four-p268-eight-p248-one-p245-nine.wav,89.20409543743469,30,-0.14597479572776872,4,RX81,5,0.0,0.0,6.0,0,0,7.428152492668623,3.66572904586792
0,,2024-07-18 13:17:54,sub_114,3,distance,cathedral,localisation_accuracy,1,5,babble,,,babble-reversed_n13_p229-five-p256-three-p318-nine-p248-two-p284-four-p268-one.wav,93.03871568705709,30,0.05443077216294745,10,RX81,11,0.0,0.0,12.0,0,0,11.167155425219942,3.499713897705078
0,,2024-07-18 13:18:00,sub_114,3,distance,cathedral,localisation_accuracy,1,6,babble,,,babble-reversed_n13_p307-nine-p229-one-p256-eight-p248-four-p284-two-p268-three.wav,91.63218704299821,30,-0.14609963058167919,7,RX81,8,0.0,0.0,9.0,0,0,11.841642228739003,5.2027504444122314
0,,2024-07-18 13:18:05,sub_114,3,distance,cathedral,localisation_accuracy,1,7,babble,,,babble-reversed_n13_p229-one-p318-eight-p256-three-p268-two-p245-five-p248-nine.wav,91.73091369465739,30,0.2030669598327045,6,RX81,7,0.0,0.0,8.0,0,0,8.90909090909091,3.283705949783325
0,,2024-07-18 13:18:09,sub_114,3,distance,cathedral,localisation_accuracy,1,8,babble,,,babble-reversed_n13_p229-two-p256-three-p318-eight-p284-five-p268-four-p245-one.wav,90.25802289794227,30,-0.1191016054359324,5,RX81,6,0.0,0.0,7.0,0,0,10.844574780058652,2.9216067790985107
0,,2024-07-18 13:18:13,sub_114,3,distance,cathedral,localisation_accuracy,1,9,babble,,,babble-reversed_n13_p318-five-p229-four-p256-eight-p284-one-p245-three-p248-two.wav,86.14983373551809,30,-0.07894296288205038,1,RX81,2,0.0,0.0,3.0,0,0,5.2434017595307925,2.953587293624878
0,,2024-07-18 13:18:17,sub_114,3,distance,cathedral,localisation_accuracy,1,10,babble,,,babble-reversed_n13_p256-four-p307-eight-p318-two-p248-three-p284-nine-p268-one.wav,89.42261664608297,30,0.3921095627498822,3,RX81,4,0.0,0.0,5.0,0,0,7.765395894428153,2.922396421432495
0,,2024-07-18 13:18:20,sub_114,3,distance,cathedral,localisation_accuracy,1,11,babble,,,babble-reversed_n13_p256-eight-p229-three-p307-nine-p245-five-p248-four-p268-two.wav,92.25237568773026,30,0.34821550085331365,9,RX81,10,0.0,0.0,11.0,0,0,10.140762463343108,2.104792356491089
0,,2024-07-18 13:18:24,sub_114,3,distance,cathedral,localisation_accuracy,1,12,babble,,,babble-reversed_n13_p229-one-p318-nine-p256-four-p284-eight-p268-five-p245-two.wav,90.55402809551606,30,0.3054095706630424,5,RX81,6,0.0,0.0,7.0,0,0,11.914956011730206,2.4216597080230713
0,,2024-07-18 13:18:27,sub_114,3,distance,cathedral,localisation_accuracy,1,13,babble,,,babble-reversed_n13_p307-four-p318-three-p256-eight-p284-two-p245-nine-p248-five.wav,91.41164570243505,30,-0.4477584292451876,7,RX81,8,0.0,0.0,9.0,0,0,12.530791788856305,2.5798003673553467
0,,2024-07-18 13:18:31,sub_114,3,distance,cathedral,localisation_accuracy,1,14,babble,,,babble-reversed_n13_p307-four-p318-three-p256-eight-p284-two-p245-nine-p248-five.wav,92.2444238623929,30,0.3254215700442652,8,RX81,9,0.0,0.0,10.0,0,0,12.574780058651028,2.2352163791656494
0,,2024-07-18 13:18:33,sub_114,3,distance,cathedral,localisation_accuracy,1,15,babble,,,babble-reversed_n13_p229-five-p256-one-p318-three-p248-nine-p268-four-p284-eight.wav,89.51726481070966,30,0.27307524847973363,4,RX81,5,0.0,0.0,6.0,0,0,12.604105571847509,1.7654922008514404
0,,2024-07-18 13:18:38,sub_114,3,distance,cathedral,localisation_accuracy,1,16,babble,,,babble-reversed_n13_p256-four-p229-eight-p307-five-p248-three-p245-one-p284-two.wav,92.66077555130701,30,-0.473174193273572,10,RX81,11,0.0,0.0,12.0,0,0,11.519061583577713,3.0318453311920166
0,,2024-07-18 13:18:42,sub_114,3,distance,cathedral,localisation_accuracy,1,17,babble,,,babble-reversed_n13_p229-five-p318-three-p307-two-p245-four-p284-nine-p248-eight.wav,84.08033060101931,30,-0.4725977633456786,0,RX81,1,0.0,0.0,2.0,0,0,4.070381231671554,3.0467677116394043
0,,2024-07-18 13:18:46,sub_114,3,distance,cathedral,localisation_accuracy,1,18,babble,,,babble-reversed_n13_p307-five-p229-three-p318-nine-p245-four-p268-eight-p284-two.wav,91.25761413130775,30,-0.46853864235249,6,RX81,7,0.0,0.0,8.0,0,0,8.659824046920821,2.766326665878296
0,,2024-07-18 13:18:49,sub_114,3,distance,cathedral,localisation_accuracy,1,19,babble,,,babble-reversed_n13_p318-four-p256-five-p229-three-p284-one-p245-eight-p248-nine.wav,89.10018660660205,30,-0.06961191311130022,3,RX81,4,0.0,0.0,5.0,0,0,10.75659824046921,2.6553988456726074
0,,2024-07-18 13:18:53,sub_114,3,distance,cathedral,localisation_accuracy,1,20,babble,,,babble-reversed_n13_p256-nine-p307-four-p229-one-p284-three-p248-two-p245-five.wav,86.10044650202497,30,-0.1509287630636582,1,RX81,2,0.0,0.0,3.0,0,0,3.674486803519062,2.7497615814208984
0,,2024-07-18 13:18:57,sub_114,3,distance,cathedral,localisation_accuracy,1,21,babble,,,babble-reversed_n13_p229-three-p256-one-p307-two-p284-eight-p268-five-p248-nine.wav,87.66004651068553,30,0.1299414042532696,2,RX81,3,0.0,0.0,4.0,0,0,8.469208211143696,2.4187991619110107
0,,2024-07-18 13:19:00,sub_114,3,distance,cathedral,localisation_accuracy,1,22,babble,,,babble-reversed_n13_p229-three-p256-one-p307-two-p284-eight-p268-five-p248-nine.wav,93.12018172008173,30,0.16938683385679953,10,RX81,11,0.0,0.0,12.0,0,0,11.621700879765397,2.3602588176727295
0,,2024-07-18 13:19:04,sub_114,3,distance,cathedral,localisation_accuracy,1,23,babble,,,babble-reversed_n13_p307-two-p256-four-p318-three-p284-eight-p248-five-p245-nine.wav,91.82645819132674,30,-0.25149615163577954,9,RX81,10,0.0,0.0,11.0,0,0,12.574780058651028,2.3747870922088623
0,,2024-07-18 13:19:09,sub_114,3,distance,cathedral,localisation_accuracy,1,24,babble,,,babble-reversed_n13_p307-nine-p229-one-p256-eight-p248-four-p284-two-p268-three.wav,84.39720843951991,30,-0.005309991809700598,0,RX81,1,0.0,0.0,2.0,0,0,2.2815249266862176,3.6271674633026123
0,,2024-07-18 13:19:13,sub_114,3,distance,cathedral,localisation_accuracy,1,25,babble,,,babble-reversed_n13_p318-one-p307-two-p256-eight-p284-three-p248-five-p245-four.wav,90.51200903463857,30,0.24478327714917847,5,RX81,6,0.0,0.0,7.0,0,0,8.425219941348974,2.7497646808624268
0,,2024-07-18 13:19:16,sub_114,3,distance,cathedral,localisation_accuracy,1,26,babble,,,babble-reversed_n13_p256-four-p307-eight-p318-two-p248-three-p284-nine-p268-one.wav,92.10718341541413,30,0.13009313405541822,8,RX81,9,0.0,0.0,10.0,0,0,10.126099706744869,1.9223690032958984
0,,2024-07-18 13:19:19,sub_114,3,distance,cathedral,localisation_accuracy,1,27,babble,,,babble-reversed_n13_p318-one-p307-two-p256-eight-p284-three-p248-five-p245-four.wav,89.53554574839526,30,0.29771776646734116,4,RX81,5,0.0,0.0,6.0,0,0,11.328445747800588,2.1247916221618652
0,,2024-07-18 13:19:22,sub_114,3,distance,cathedral,localisation_accuracy,1,28,babble,,,babble-reversed_n13_p229-two-p307-five-p318-four-p284-one-p248-nine-p268-eight.wav,91.86862683170551,30,0.4013333266293988,6,RX81,7,0.0,0.0,8.0,0,0,12.325513196480939,2.1894893646240234
0,,2024-07-18 13:19:26,sub_114,3,distance,cathedral,localisation_accuracy,1,29,babble,,,babble-reversed_n13_p229-three-p256-nine-p318-five-p248-one-p245-eight-p284-two.wav,86.42982775960604,30,0.3324649212264176,1,RX81,2,0.0,0.0,3.0,0,0,3.351906158357772,3.218534469604492
0,,2024-07-18 13:19:31,sub_114,3,distance,cathedral,localisation_accuracy,1,30,babble,,,babble-reversed_n13_p229-three-p256-nine-p318-five-p248-one-p245-eight-p284-two.wav,91.76323123282684,30,0.03460041615838971,7,RX81,8,0.0,0.0,9.0,0,0,8.791788856304986,3.0634281635284424
0,,2024-07-18 13:19:34,sub_114,3,distance,cathedral,localisation_accuracy,1,31,babble,,,babble-reversed_n13_p229-one-p318-nine-p256-four-p284-eight-p268-five-p245-two.wav,89.31176751937124,30,0.23257510103646295,3,RX81,4,0.0,0.0,5.0,0,0,5.859237536656892,2.452907085418701
0,,2024-07-18 13:19:38,sub_114,3,distance,cathedral,localisation_accuracy,1,32,babble,,,babble-reversed_n13_p307-four-p318-three-p256-eight-p284-two-p245-nine-p248-five.wav,87.28189537221911,30,-0.4149538401430989,2,RX81,3,0.0,0.0,4.0,0,0,4.392961876832845,2.406100034713745
0,,2024-07-18 13:19:41,sub_114,3,distance,cathedral,localisation_accuracy,1,33,babble,,,babble-reversed_n13_p256-five-p229-one-p318-three-p248-nine-p284-eight-p268-two.wav,91.72429700346021,30,-0.3935727556976134,9,RX81,10,0.0,0.0,11.0,0,0,10.19941348973607,2.4200057983398438
0,,2024-07-18 13:19:44,sub_114,3,distance,cathedral,localisation_accuracy,1,34,babble,,,babble-reversed_n13_p318-five-p229-four-p256-eight-p284-one-p245-three-p248-two.wav,87.48385497216118,30,-0.12517857322887826,2,RX81,3,0.0,0.0,4.0,0,0,11.12316715542522,2.013275146484375
0,,2024-07-18 13:19:48,sub_114,3,distance,cathedral,localisation_accuracy,1,35,babble,,,babble-reversed_n13_p256-eight-p318-five-p307-four-p245-three-p268-one-p284-nine.wav,88.97534321324892,30,-0.24649860330165252,3,RX81,4,0.0,0.0,5.0,0,0,11.680351906158359,2.8122358322143555
0,,2024-07-18 13:19:52,sub_114,3,distance,cathedral,localisation_accuracy,1,36,babble,,,babble-reversed_n13_p318-five-p256-nine-p307-two-p245-eight-p248-one-p284-four.wav,93.1905214086201,30,0.2689962599970095,10,RX81,11,0.0,0.0,12.0,0,0,12.67741935483871,2.184854745864868
0,,2024-07-18 13:19:56,sub_114,3,distance,cathedral,localisation_accuracy,1,37,babble,,,babble-reversed_n13_p256-five-p307-nine-p318-three-p284-eight-p268-one-p248-two.wav,85.88021987401922,30,-0.46982434206467694,1,RX81,2,0.0,0.0,3.0,0,0,3.5278592375366573,3.4695796966552734
0,,2024-07-18 13:19:59,sub_114,3,distance,cathedral,localisation_accuracy,1,38,babble,,,babble-reversed_n13_p307-five-p229-three-p318-nine-p245-four-p268-eight-p284-two.wav,84.60250331721514,30,0.301370811201188,0,RX81,1,0.0,0.0,2.0,0,0,2.516129032258065,2.060183525085449
0,,2024-07-18 13:20:04,sub_114,3,distance,cathedral,localisation_accuracy,1,39,babble,,,babble-reversed_n13_p256-eight-p318-five-p307-four-p245-three-p268-one-p284-nine.wav,91.86629875591963,30,0.39797079181069495,6,RX81,7,0.0,0.0,8.0,0,0,10.609970674486805,3.390321969985962
0,,2024-07-18 13:20:07,sub_114,3,distance,cathedral,localisation_accuracy,1,40,babble,,,babble-reversed_n13_p229-one-p318-eight-p256-three-p268-two-p245-five-p248-nine.wav,91.44648466246879,30,-0.40030884625396923,7,RX81,8,0.0,0.0,9.0,0,0,11.75366568914956,1.9022622108459473
0,,2024-07-18 13:20:10,sub_114,3,distance,cathedral,localisation_accuracy,1,41,babble,,,babble-reversed_n13_p307-two-p256-four-p318-three-p284-eight-p248-five-p245-nine.wav,92.25436373070933,30,0.3396176371164379,8,RX81,9,0.0,0.0,10.0,0,0,12.648093841642229,2.2686421871185303
0,,2024-07-18 13:20:14,sub_114,3,distance,cathedral,localisation_accuracy,1,42,babble,,,babble-reversed_n13_p229-five-p318-two-p307-eight-p268-three-p248-four-p245-one.wav,89.63405108641788,30,0.43084762483790595,4,RX81,5,0.0,0.0,6.0,0,0,10.346041055718477,2.7809910774230957
0,,2024-07-18 13:20:18,sub_114,3,distance,cathedral,localisation_accuracy,1,43,babble,,,babble-reversed_n13_p229-one-p318-nine-p256-four-p284-eight-p268-five-p245-two.wav,90.01566255766214,30,-0.4622474964481649,5,RX81,6,0.0,0.0,7.0,0,0,8.674486803519063,2.2497963905334473
0,,2024-07-18 13:20:21,sub_114,3,distance,cathedral,localisation_accuracy,1,44,babble,,,babble-reversed_n13_p256-four-p229-eight-p307-five-p248-three-p245-one-p284-two.wav,92.22898542243462,30,0.31496938070860914,9,RX81,10,0.0,0.0,11.0,0,0,10.595307917888563,2.154714345932007
0,,2024-07-18 13:20:24,sub_114,3,distance,cathedral,localisation_accuracy,1,45,babble,,,babble-reversed_n13_p256-five-p229-one-p318-three-p248-nine-p284-eight-p268-two.wav,91.78410051115222,30,0.27948659360311623,6,RX81,7,0.0,0.0,8.0,0,0,11.768328445747802,1.7498133182525635
0,,2024-07-18 13:20:27,sub_114,3,distance,cathedral,localisation_accuracy,1,46,babble,,,babble-reversed_n13_p256-four-p229-two-p318-five-p268-one-p248-eight-p245-three.wav,92.05068950351125,30,0.43482399664167215,7,RX81,8,0.0,0.0,9.0,0,0,12.413489736070382,1.7816288471221924
0,,2024-07-18 13:20:29,sub_114,3,distance,cathedral,localisation_accuracy,1,47,babble,,,babble-reversed_n13_p229-three-p307-one-p318-two-p245-eight-p268-five-p284-four.wav,88.87481512409141,30,-0.3881736023311976,3,RX81,4,0.0,0.0,5.0,0,0,12.750733137829913,1.53011155128479
0,,2024-07-18 13:20:33,sub_114,3,distance,cathedral,localisation_accuracy,1,48,babble,,,babble-reversed_n13_p229-nine-p256-four-p318-three-p268-eight-p248-two-p284-five.wav,93.19402776694594,30,0.273970280204341,10,RX81,11,0.0,0.0,12.0,0,0,12.3108504398827,2.531026840209961
0,,2024-07-18 13:20:36,sub_114,3,distance,cathedral,localisation_accuracy,1,49,babble,,,babble-reversed_n13_p318-five-p229-four-p256-eight-p284-one-p245-three-p248-two.wav,91.98434199118688,30,-0.0436745002329213,8,RX81,9,0.0,0.0,10.0,0,0,12.3841642228739,1.9203448295593262
0,,2024-07-18 13:20:40,sub_114,3,distance,cathedral,localisation_accuracy,1,50,babble,,,babble-reversed_n13_p318-five-p256-nine-p307-two-p245-eight-p248-one-p284-four.wav,89.38963491719727,30,0.10158898179354914,4,RX81,5,0.0,0.0,6.0,0,0,9.979472140762464,3.035358190536499
0,,2024-07-18 13:20:44,sub_114,3,distance,cathedral,localisation_accuracy,1,51,babble,,,babble-reversed_n13_p256-three-p318-two-p229-nine-p248-four-p284-one-p268-eight.wav,86.23294747205838,30,0.04259401703982746,1,RX81,2,0.0,0.0,3.0,0,0,8.689149560117302,2.187300443649292
0,,2024-07-18 13:20:46,sub_114,3,distance,cathedral,localisation_accuracy,1,52,babble,,,babble-reversed_n13_p307-nine-p229-one-p256-eight-p248-four-p284-two-p268-three.wav,90.22616651681746,30,-0.164432025827558,5,RX81,6,0.0,0.0,7.0,0,0,9.348973607038124,1.6433954238891602
0,,2024-07-18 13:20:51,sub_114,3,distance,cathedral,localisation_accuracy,1,53,babble,,,babble-reversed_n13_p256-three-p318-two-p229-nine-p248-four-p284-one-p268-eight.wav,87.87680222037592,30,0.4467877619605981,2,RX81,3,0.0,0.0,4.0,0,0,6.387096774193548,3.4851927757263184
0,,2024-07-18 13:20:54,sub_114,3,distance,cathedral,localisation_accuracy,1,54,babble,,,babble-reversed_n13_p229-five-p256-one-p318-three-p248-nine-p268-four-p284-eight.wav,84.26734524462503,30,-0.1977020657229428,0,RX81,1,0.0,0.0,2.0,0,0,4.319648093841643,1.7811448574066162
0,,2024-07-18 13:22:18,sub_114,3,distance,cathedral,localisation_accuracy,2,0,babble,,,babble-reversed_n13_p307-two-p229-one-p256-five-p248-nine-p284-three-p268-eight.wav,88.81536782893377,30,-0.47163550439432755,3,RX81,4,0.0,0.0,5.0,0,0,4.319648093841643,3.8422629833221436
0,,2024-07-18 13:22:23,sub_114,3,distance,cathedral,localisation_accuracy,2,1,babble,,,babble-reversed_n13_p318-three-p307-one-p256-five-p248-nine-p245-two-p284-eight.wav,93.29867076807061,30,0.4227906519965966,10,RX81,11,0.0,0.0,12.0,0,0,10.404692082111438,3.7350785732269287
0,,2024-07-18 13:22:28,sub_114,3,distance,cathedral,localisation_accuracy,2,2,babble,,,babble-reversed_n13_p256-four-p307-eight-p318-two-p248-three-p284-nine-p268-one.wav,87.54641196207477,30,-0.03484623923086361,2,RX81,3,0.0,0.0,4.0,0,0,7.428152492668623,4.07755184173584
0,,2024-07-18 13:22:33,sub_114,3,distance,cathedral,localisation_accuracy,2,3,babble,,,babble-reversed_n13_p307-five-p229-three-p318-nine-p245-four-p268-eight-p284-two.wav,92.14301299069533,30,0.19308376330802868,9,RX81,10,0.0,0.0,11.0,0,0,9.436950146627566,3.2665090560913086
0,,2024-07-18 13:22:37,sub_114,3,distance,cathedral,localisation_accuracy,2,4,babble,,,babble-reversed_n13_p229-nine-p318-one-p307-two-p248-eight-p245-five-p284-four.wav,92.06950699886197,30,0.4612085143523883,7,RX81,8,0.0,0.0,9.0,0,0,10.082111436950147,2.9684746265411377
0,,2024-07-18 13:22:41,sub_114,3,distance,cathedral,localisation_accuracy,2,5,babble,,,babble-reversed_n13_p229-two-p256-three-p318-eight-p284-five-p268-four-p245-one.wav,86.29804908568671,30,0.13813660567322272,1,RX81,2,0.0,0.0,3.0,0,0,5.082111436950147,3.4226245880126953
0,,2024-07-18 13:22:45,sub_114,3,distance,cathedral,localisation_accuracy,2,6,babble,,,babble-reversed_n13_p318-one-p307-two-p256-eight-p284-three-p248-five-p245-four.wav,90.52377502348965,30,0.2617473435339054,5,RX81,6,0.0,0.0,7.0,0,0,8.58651026392962,3.1468772888183594
0,,2024-07-18 13:22:50,sub_114,3,distance,cathedral,localisation_accuracy,2,7,babble,,,babble-reversed_n13_p229-two-p256-three-p318-eight-p284-five-p268-four-p245-one.wav,89.421177797972,30,0.14388008862196366,4,RX81,5,0.0,0.0,6.0,0,0,9.627565982404693,3.7378060817718506
0,,2024-07-18 13:22:55,sub_114,3,distance,cathedral,localisation_accuracy,2,8,babble,,,babble-reversed_n13_p229-three-p256-nine-p318-five-p248-one-p245-eight-p284-two.wav,91.86372333034538,30,0.3942514328850161,6,RX81,7,0.0,0.0,8.0,0,0,5.7272727272727275,3.5265731811523438
0,,2024-07-18 13:22:59,sub_114,3,distance,cathedral,localisation_accuracy,2,9,babble,,,babble-reversed_n13_p307-two-p256-four-p318-three-p284-eight-p248-five-p245-nine.wav,92.04241985335199,30,0.03835537209520379,8,RX81,9,0.0,0.0,10.0,0,0,8.63049853372434,2.4060142040252686
0,,2024-07-18 13:23:02,sub_114,3,distance,cathedral,localisation_accuracy,2,10,babble,,,babble-reversed_n13_p229-two-p256-three-p318-eight-p284-five-p268-four-p245-one.wav,84.41584686476082,30,0.022404532924145237,0,RX81,1,0.0,0.0,2.0,0,0,3.6011730205278596,2.810818910598755
0,,2024-07-18 13:23:08,sub_114,3,distance,cathedral,localisation_accuracy,2,11,babble,,,babble-reversed_n13_p229-one-p318-nine-p256-four-p284-eight-p268-five-p245-two.wav,91.69342819446206,30,-0.06178842005456675,7,RX81,8,0.0,0.0,9.0,0,0,10.448680351906159,4.547692537307739
0,,2024-07-18 13:23:13,sub_114,3,distance,cathedral,localisation_accuracy,2,12,babble,,,babble-reversed_n13_p307-five-p229-three-p318-nine-p245-four-p268-eight-p284-two.wav,86.52113933363563,30,0.46785259248559863,1,RX81,2,0.0,0.0,3.0,0,0,2.8533724340175954,4.218091011047363
0,,2024-07-18 13:23:17,sub_114,3,distance,cathedral,localisation_accuracy,2,13,babble,,,babble-reversed_n13_p229-nine-p307-five-p256-two-p248-three-p245-one-p268-eight.wav,91.71458768205424,30,-0.42175191695176384,8,RX81,9,0.0,0.0,10.0,0,0,8.60117302052786,2.86026930809021
0,,2024-07-18 13:23:22,sub_114,3,distance,cathedral,localisation_accuracy,2,14,babble,,,babble-reversed_n13_p318-five-p256-nine-p307-eight-p248-two-p245-four-p284-three.wav,92.27724849983716,30,0.38360886347621814,9,RX81,10,0.0,0.0,11.0,0,0,10.697947214076247,3.0788938999176025
0,,2024-07-18 13:23:26,sub_114,3,distance,cathedral,localisation_accuracy,2,15,babble,,,babble-reversed_n13_p307-five-p229-three-p318-nine-p245-four-p268-eight-p284-two.wav,87.28295372838068,30,-0.413442641710846,2,RX81,3,0.0,0.0,4.0,0,0,5.448680351906159,3.7341902256011963
0,,2024-07-18 13:23:31,sub_114,3,distance,cathedral,localisation_accuracy,2,16,babble,,,babble-reversed_n13_p256-four-p229-eight-p307-five-p248-three-p245-one-p284-two.wav,89.25404404611554,30,0.14983113300712325,3,RX81,4,0.0,0.0,5.0,0,0,10.888563049853373,3.5628979206085205
0,,2024-07-18 13:23:35,sub_114,3,distance,cathedral,localisation_accuracy,2,17,babble,,,babble-reversed_n13_p229-three-p256-one-p307-two-p284-eight-p268-five-p248-nine.wav,91.82523757690885,30,0.3387255452330613,6,RX81,7,0.0,0.0,8.0,0,0,12.002932551319649,2.2654364109039307
0,,2024-07-18 13:23:37,sub_114,3,distance,cathedral,localisation_accuracy,2,18,babble,,,babble-reversed_n13_p256-five-p307-nine-p318-three-p284-eight-p268-one-p248-two.wav,90.53188101543208,30,0.27344000413126246,5,RX81,6,0.0,0.0,7.0,0,0,12.486803519061585,1.8083174228668213
0,,2024-07-18 13:23:40,sub_114,3,distance,cathedral,localisation_accuracy,2,19,babble,,,babble-reversed_n13_p229-five-p318-three-p307-two-p245-four-p284-nine-p248-eight.wav,89.02965814330861,30,-0.37686778271477717,4,RX81,5,0.0,0.0,6.0,0,0,12.486803519061585,1.4180634021759033
0,,2024-07-18 13:23:43,sub_114,3,distance,cathedral,localisation_accuracy,2,20,babble,,,babble-reversed_n13_p318-four-p256-five-p229-three-p284-one-p245-eight-p248-nine.wav,93.31499677596337,30,0.44607492818085037,10,RX81,11,0.0,0.0,12.0,0,0,11.607038123167156,1.8591771125793457
0,,2024-07-18 13:23:47,sub_114,3,distance,cathedral,localisation_accuracy,2,21,babble,,,babble-reversed_n13_p229-five-p318-three-p307-two-p245-four-p284-nine-p248-eight.wav,84.64284480351455,30,0.36200276899215644,0,RX81,1,0.0,0.0,2.0,0,0,5.448680351906159,3.0306835174560547
0,,2024-07-18 13:23:52,sub_114,3,distance,cathedral,localisation_accuracy,2,22,babble,,,babble-reversed_n13_p307-two-p229-one-p256-five-p248-nine-p284-three-p268-eight.wav,93.2538874394787,30,0.35901170599146937,10,RX81,11,0.0,0.0,12.0,0,0,10.815249266862171,3.3910675048828125
0,,2024-07-18 13:23:55,sub_114,3,distance,cathedral,localisation_accuracy,2,23,babble,,,babble-reversed_n13_p229-nine-p307-five-p256-two-p248-three-p245-one-p268-eight.wav,90.42808112969088,30,0.12405252832034064,5,RX81,6,0.0,0.0,7.0,0,0,11.841642228739003,2.2945384979248047
0,,2024-07-18 13:23:59,sub_114,3,distance,cathedral,localisation_accuracy,2,24,babble,,,babble-reversed_n13_p318-three-p229-one-p256-eight-p245-five-p248-four-p284-nine.wav,87.86873805901925,30,0.43494037732644186,2,RX81,3,0.0,0.0,4.0,0,0,9.407624633431086,3.1091115474700928
0,,2024-07-18 13:24:03,sub_114,3,distance,cathedral,localisation_accuracy,2,25,babble,,,babble-reversed_n13_p256-four-p229-eight-p307-five-p248-three-p245-one-p284-two.wav,91.65907194149754,30,-0.498966624673728,8,RX81,9,0.0,0.0,10.0,0,0,12.076246334310852,2.5298211574554443
0,,2024-07-18 13:24:07,sub_114,3,distance,cathedral,localisation_accuracy,2,26,babble,,,babble-reversed_n13_p256-eight-p229-three-p307-nine-p245-five-p248-four-p268-two.wav,91.80396266368227,30,0.09098848922469027,7,RX81,8,0.0,0.0,9.0,0,0,12.35483870967742,2.5631563663482666
0,,2024-07-18 13:24:11,sub_114,3,distance,cathedral,localisation_accuracy,2,27,babble,,,babble-reversed_n13_p318-nine-p256-five-p307-eight-p268-three-p248-one-p245-four.wav,85.96408781029061,30,-0.34878440730204074,1,RX81,2,0.0,0.0,3.0,0,0,7.325513196480939,2.917051315307617
0,,2024-07-18 13:24:14,sub_114,3,distance,cathedral,localisation_accuracy,2,28,babble,,,babble-reversed_n13_p229-three-p256-nine-p318-five-p248-one-p245-eight-p284-two.wav,89.20295149991995,30,0.07678125177728712,3,RX81,4,0.0,0.0,5.0,0,0,9.451612903225808,2.2185277938842773
0,,2024-07-18 13:24:18,sub_114,3,distance,cathedral,localisation_accuracy,2,29,babble,,,babble-reversed_n13_p256-four-p229-eight-p307-five-p248-three-p245-one-p284-two.wav,84.36769356669674,30,-0.049144994239565865,0,RX81,1,0.0,0.0,2.0,0,0,4.466275659824047,2.68434476852417
0,,2024-07-18 13:24:22,sub_114,3,distance,cathedral,localisation_accuracy,2,30,babble,,,babble-reversed_n13_p318-five-p256-nine-p307-two-p245-eight-p248-one-p284-four.wav,91.77747286002088,30,-0.31970543186397704,9,RX81,10,0.0,0.0,11.0,0,0,7.428152492668623,3.2820959091186523
0,,2024-07-18 13:24:26,sub_114,3,distance,cathedral,localisation_accuracy,2,31,babble,,,babble-reversed_n13_p229-one-p318-eight-p256-three-p268-nine-p248-five-p284-four.wav,91.90986966748105,30,0.46096373554692704,6,RX81,7,0.0,0.0,8.0,0,0,10.19941348973607,2.79663348197937
0,,2024-07-18 13:24:30,sub_114,3,distance,cathedral,localisation_accuracy,2,32,babble,,,babble-reversed_n13_p318-five-p256-nine-p307-two-p245-eight-p248-one-p284-four.wav,89.55455976374557,30,0.323369747828988,4,RX81,5,0.0,0.0,6.0,0,0,7.516129032258066,2.859849452972412
0,,2024-07-18 13:24:34,sub_114,3,distance,cathedral,localisation_accuracy,2,33,babble,,,babble-reversed_n13_p256-eight-p318-five-p307-four-p245-three-p268-one-p284-nine.wav,91.49340893068839,30,-0.13583680328973913,6,RX81,7,0.0,0.0,8.0,0,0,10.15542521994135,2.9059789180755615
0,,2024-07-18 13:24:38,sub_114,3,distance,cathedral,localisation_accuracy,2,34,babble,,,babble-reversed_n13_p229-two-p307-five-p318-four-p284-one-p248-nine-p268-eight.wav,92.16774052123856,30,0.22809041048368595,9,RX81,10,0.0,0.0,11.0,0,0,11.475073313782993,2.2479851245880127
0,,2024-07-18 13:24:40,sub_114,3,distance,cathedral,localisation_accuracy,2,35,babble,,,babble-reversed_n13_p318-three-p229-one-p256-eight-p245-five-p248-four-p284-nine.wav,91.39903119148534,30,-0.4649202388390312,7,RX81,8,0.0,0.0,9.0,0,0,11.856304985337244,1.8684771060943604
0,,2024-07-18 13:24:44,sub_114,3,distance,cathedral,localisation_accuracy,2,36,babble,,,babble-reversed_n13_p256-four-p307-eight-p318-two-p248-three-p284-nine-p268-one.wav,89.05712392650851,30,-0.13074456624649633,3,RX81,4,0.0,0.0,5.0,0,0,8.718475073313783,2.812257766723633
0,,2024-07-18 13:24:48,sub_114,3,distance,cathedral,localisation_accuracy,2,37,babble,,,babble-reversed_n13_p307-one-p318-five-p229-four-p268-eight-p284-two-p245-three.wav,89.67669101355017,30,0.48865670549799656,4,RX81,5,0.0,0.0,6.0,0,0,9.86217008797654,2.109591484069824
0,,2024-07-18 13:24:51,sub_114,3,distance,cathedral,localisation_accuracy,2,38,babble,,,babble-reversed_n13_p307-one-p318-five-p229-four-p268-eight-p284-two-p245-three.wav,86.48306096213426,30,0.4113204888901848,1,RX81,2,0.0,0.0,3.0,0,0,5.771260997067449,2.3446836471557617
0,,2024-07-18 13:24:55,sub_114,3,distance,cathedral,localisation_accuracy,2,39,babble,,,babble-reversed_n13_p318-five-p229-four-p256-eight-p284-one-p245-three-p248-two.wav,91.69997266962199,30,-0.4420989527611816,8,RX81,9,0.0,0.0,10.0,0,0,9.378299120234605,2.5310263633728027
0,,2024-07-18 13:24:58,sub_114,3,distance,cathedral,localisation_accuracy,2,40,babble,,,babble-reversed_n13_p318-five-p229-four-p256-eight-p284-one-p245-three-p248-two.wav,90.24178309890348,30,-0.1422188218388647,5,RX81,6,0.0,0.0,7.0,0,0,10.903225806451614,2.499779224395752
0,,2024-07-18 13:25:01,sub_114,3,distance,cathedral,localisation_accuracy,2,41,babble,,,babble-reversed_n13_p318-five-p256-nine-p307-two-p245-eight-p248-one-p284-four.wav,92.90768124335827,30,-0.12955270264163266,10,RX81,11,0.0,0.0,12.0,0,0,11.563049853372435,1.7796297073364258
0,,2024-07-18 13:25:06,sub_114,3,distance,cathedral,localisation_accuracy,2,42,babble,,,babble-reversed_n13_p256-eight-p318-five-p307-four-p245-three-p268-one-p284-nine.wav,87.23797068420293,30,-0.47760469439762543,2,RX81,3,0.0,0.0,4.0,0,0,7.413489736070382,3.2945072650909424
0,,2024-07-18 13:25:09,sub_114,3,distance,cathedral,localisation_accuracy,2,43,babble,,,babble-reversed_n13_p307-five-p229-three-p318-nine-p245-four-p268-eight-p284-two.wav,84.33454467998814,30,-0.09830080022799836,0,RX81,1,0.0,0.0,2.0,0,0,4.011730205278592,2.18730092048645
0,,2024-07-18 13:25:13,sub_114,3,distance,cathedral,localisation_accuracy,2,44,babble,,,babble-reversed_n13_p318-nine-p307-eight-p229-two-p284-one-p248-three-p245-five.wav,86.50044560770311,30,0.4371171445127192,1,RX81,2,0.0,0.0,3.0,0,0,4.510263929618769,2.698561906814575
0,,2024-07-18 13:25:17,sub_114,3,distance,cathedral,localisation_accuracy,2,45,babble,,,babble-reversed_n13_p318-five-p256-nine-p307-two-p245-eight-p248-one-p284-four.wav,90.50271099438852,30,0.23138419757623807,5,RX81,6,0.0,0.0,7.0,0,0,7.35483870967742,2.844477653503418
0,,2024-07-18 13:25:24,sub_114,3,distance,cathedral,localisation_accuracy,2,46,babble,,,babble-reversed_n13_p318-nine-p307-eight-p229-two-p284-one-p248-three-p245-five.wav,92.21365407703414,30,0.29319769492446,9,RX81,10,0.0,0.0,11.0,0,0,9.20234604105572,5.922410011291504
0,,2024-07-18 13:25:27,sub_114,3,distance,cathedral,localisation_accuracy,2,47,babble,,,babble-reversed_n13_p229-five-p318-three-p307-two-p245-four-p284-nine-p248-eight.wav,87.40961362871893,30,-0.23202982968392372,2,RX81,3,0.0,0.0,4.0,0,0,6.2404692082111435,2.325481414794922
0,,2024-07-18 13:25:31,sub_114,3,distance,cathedral,localisation_accuracy,2,48,babble,,,babble-reversed_n13_p307-four-p318-three-p256-eight-p284-two-p245-nine-p248-five.wav,89.46332976514238,30,0.4509151757481984,3,RX81,4,0.0,0.0,5.0,0,0,8.894428152492669,2.5945184230804443
0,,2024-07-18 13:25:35,sub_114,3,distance,cathedral,localisation_accuracy,2,49,babble,,,babble-reversed_n13_p318-three-p229-one-p256-eight-p245-five-p248-four-p284-nine.wav,92.17940265687147,30,0.2327223306633701,8,RX81,9,0.0,0.0,10.0,0,0,10.052785923753666,2.6091461181640625
0,,2024-07-18 13:25:39,sub_114,3,distance,cathedral,localisation_accuracy,2,50,babble,,,babble-reversed_n13_p307-five-p229-three-p318-nine-p245-four-p268-eight-p284-two.wav,89.18998102437266,30,-0.16472399313086428,4,RX81,5,0.0,0.0,6.0,0,0,6.8269794721407635,2.7966315746307373
0,,2024-07-18 13:25:43,sub_114,3,distance,cathedral,localisation_accuracy,2,51,babble,,,babble-reversed_n13_p229-five-p318-two-p307-eight-p268-three-p248-four-p245-one.wav,91.80535622507887,30,0.09291958966994474,7,RX81,8,0.0,0.0,9.0,0,0,10.653958944281525,2.732887029647827
0,,2024-07-18 13:25:46,sub_114,3,distance,cathedral,localisation_accuracy,2,52,babble,,,babble-reversed_n13_p318-five-p229-four-p256-eight-p284-one-p245-three-p248-two.wav,93.01590792418023,30,0.02232547629142345,10,RX81,11,0.0,0.0,12.0,0,0,11.563049853372435,2.250798225402832
0,,2024-07-18 13:25:50,sub_114,3,distance,cathedral,localisation_accuracy,2,53,babble,,,babble-reversed_n13_p307-nine-p318-two-p256-one-p245-three-p268-four-p248-eight.wav,84.37365468378223,30,-0.04029680712756223,0,RX81,1,0.0,0.0,2.0,0,0,3.93841642228739,3.1888046264648438
0,,2024-07-18 13:25:54,sub_114,3,distance,cathedral,localisation_accuracy,2,54,babble,,,babble-reversed_n13_p318-five-p256-nine-p307-eight-p248-two-p245-four-p284-three.wav,91.26287476923721,30,-0.46115656333412625,6,RX81,7,0.0,0.0,8.0,0,0,9.378299120234605,3.062239170074463
0,,2024-07-18 13:27:10,sub_114,3,distance,cathedral,localisation_accuracy,3,0,pinknoise,,,pinknoise_1.wav,91.8630956307892,30,0.3933449953914242,6,RX81,7,0.0,0.0,8.0,0,0,9.2316715542522,3.1716067790985107
0,,2024-07-18 13:27:13,sub_114,3,distance,cathedral,localisation_accuracy,3,1,pinknoise,,,pinknoise_5.wav,92.05650120227546,30,0.0709281597224678,9,RX81,10,0.0,0.0,11.0,0,0,10.75659824046921,2.21852707862854
0,,2024-07-18 13:27:17,sub_114,3,distance,cathedral,localisation_accuracy,3,2,pinknoise,,,pinknoise_0.wav,87.7953241560968,30,0.3272968481151872,2,RX81,3,0.0,0.0,4.0,0,0,7.428152492668623,2.3892478942871094
0,,2024-07-18 13:27:20,sub_114,3,distance,cathedral,localisation_accuracy,3,3,pinknoise,,,pinknoise_4.wav,90.4730709385258,30,0.18871056258583152,5,RX81,6,0.0,0.0,7.0,0,0,8.513196480938417,1.8748292922973633
0,,2024-07-18 13:27:23,sub_114,3,distance,cathedral,localisation_accuracy,3,4,pinknoise,,,pinknoise_4.wav,92.08340535697721,30,0.09637894594240715,8,RX81,9,0.0,0.0,10.0,0,0,10.052785923753666,1.8279504776000977
0,,2024-07-18 13:27:26,sub_114,3,distance,cathedral,localisation_accuracy,3,5,pinknoise,,,pinknoise_7.wav,91.51791197106688,30,-0.3027887159161159,7,RX81,8,0.0,0.0,9.0,0,0,11.41642228739003,1.6098904609680176
0,,2024-07-18 13:27:30,sub_114,3,distance,cathedral,localisation_accuracy,3,6,pinknoise,,,pinknoise_5.wav,89.4278393981965,30,0.39964689826972777,3,RX81,4,0.0,0.0,5.0,0,0,8.058651026392962,3.1239027976989746
0,,2024-07-18 13:27:33,sub_114,3,distance,cathedral,localisation_accuracy,3,7,pinknoise,,,pinknoise_2.wav,89.11536744301947,30,-0.2636431416804411,4,RX81,5,0.0,0.0,6.0,0,0,9.363636363636365,2.0310609340667725
0,,2024-07-18 13:27:37,sub_114,3,distance,cathedral,localisation_accuracy,3,8,pinknoise,,,pinknoise_1.wav,86.46777789173993,30,0.3886603694091104,1,RX81,2,0.0,0.0,3.0,0,0,5.859237536656892,2.389976978302002
0,,2024-07-18 13:27:40,sub_114,3,distance,cathedral,localisation_accuracy,3,9,pinknoise,,,pinknoise_0.wav,84.65770328703925,30,0.3843651512373105,0,RX81,1,0.0,0.0,2.0,0,0,4.935483870967742,2.2236359119415283
0,,2024-07-18 13:27:45,sub_114,3,distance,cathedral,localisation_accuracy,3,10,pinknoise,,,pinknoise_9.wav,92.9670266446602,30,-0.046366676670105855,10,RX81,11,0.0,0.0,12.0,0,0,9.700879765395895,3.202834129333496
0,,2024-07-18 13:27:48,sub_114,3,distance,cathedral,localisation_accuracy,3,11,pinknoise,,,pinknoise_7.wav,91.88662423230983,30,0.20574974949288993,7,RX81,8,0.0,0.0,9.0,0,0,11.005865102639296,2.296995162963867
0,,2024-07-18 13:27:53,sub_114,3,distance,cathedral,localisation_accuracy,3,12,pinknoise,,,pinknoise_0.wav,87.70911517763194,30,0.2013784022794628,2,RX81,3,0.0,0.0,4.0,0,0,6.44574780058651,3.3445167541503906
0,,2024-07-18 13:27:56,sub_114,3,distance,cathedral,localisation_accuracy,3,13,pinknoise,,,pinknoise_9.wav,84.17070992056256,30,-0.3400658645533926,0,RX81,1,0.0,0.0,2.0,0,0,3.8504398826979473,2.305428981781006
0,,2024-07-18 13:28:01,sub_114,3,distance,cathedral,localisation_accuracy,3,14,pinknoise,,,pinknoise_0.wav,89.61439384623324,30,0.4042342475017511,4,RX81,5,0.0,0.0,6.0,0,0,8.703812316715544,3.398420810699463
0,,2024-07-18 13:28:04,sub_114,3,distance,cathedral,localisation_accuracy,3,15,pinknoise,,,pinknoise_1.wav,91.9690433062896,30,-0.06524524620687722,8,RX81,9,0.0,0.0,10.0,0,0,11.035190615835777,2.51538348197937
0,,2024-07-18 13:28:08,sub_114,3,distance,cathedral,localisation_accuracy,3,16,pinknoise,,,pinknoise_8.wav,90.19372717298938,30,-0.2105213135813685,5,RX81,6,0.0,0.0,7.0,0,0,11.607038123167156,2.0164260864257812
0,,2024-07-18 13:28:11,sub_114,3,distance,cathedral,localisation_accuracy,3,17,pinknoise,,,pinknoise_8.wav,91.35599736797192,30,-0.33017482727756675,6,RX81,7,0.0,0.0,8.0,0,0,9.55425219941349,2.168562650680542
0,,2024-07-18 13:28:14,sub_114,3,distance,cathedral,localisation_accuracy,3,18,pinknoise,,,pinknoise_4.wav,92.7290077407241,30,-0.37861187184348954,10,RX81,11,0.0,0.0,12.0,0,0,11.900293255131965,2.1091625690460205
0,,2024-07-18 13:28:18,sub_114,3,distance,cathedral,localisation_accuracy,3,19,pinknoise,,,pinknoise_5.wav,88.96323685245689,30,-0.26359602501435053,3,RX81,4,0.0,0.0,5.0,0,0,9.099706744868035,2.416998863220215
0,,2024-07-18 13:28:22,sub_114,3,distance,cathedral,localisation_accuracy,3,20,pinknoise,,,pinknoise_0.wav,91.91769683138139,30,-0.12403338668103159,9,RX81,10,0.0,0.0,11.0,0,0,10.697947214076247,2.5164337158203125
0,,2024-07-18 13:28:26,sub_114,3,distance,cathedral,localisation_accuracy,3,21,pinknoise,,,pinknoise_7.wav,86.46186194920331,30,0.37989336946254193,1,RX81,2,0.0,0.0,3.0,0,0,4.9501466275659824,3.005981683731079
0,,2024-07-18 13:28:30,sub_114,3,distance,cathedral,localisation_accuracy,3,22,pinknoise,,,pinknoise_4.wav,92.27811615102951,30,0.3848442532656653,9,RX81,10,0.0,0.0,11.0,0,0,10.991202346041057,3.218477725982666
0,,2024-07-18 13:28:34,sub_114,3,distance,cathedral,localisation_accuracy,3,23,pinknoise,,,pinknoise_5.wav,91.7249965840264,30,0.194577095448909,6,RX81,7,0.0,0.0,8.0,0,0,9.070381231671554,2.580434799194336
0,,2024-07-18 13:28:38,sub_114,3,distance,cathedral,localisation_accuracy,3,24,pinknoise,,,pinknoise_6.wav,84.1975532169825,30,-0.3005884982922813,0,RX81,1,0.0,0.0,2.0,0,0,2.780058651026393,2.5787129402160645
0,,2024-07-18 13:28:42,sub_114,3,distance,cathedral,localisation_accuracy,3,25,pinknoise,,,pinknoise_0.wav,91.73780689230631,30,-0.0005431406579728959,7,RX81,8,0.0,0.0,9.0,0,0,7.5014662756598245,3.1088316440582275
0,,2024-07-18 13:28:46,sub_114,3,distance,cathedral,localisation_accuracy,3,26,pinknoise,,,pinknoise_4.wav,92.8220536117822,30,-0.24917225194919523,10,RX81,11,0.0,0.0,12.0,0,0,11.621700879765397,2.9834110736846924
0,,2024-07-18 13:28:50,sub_114,3,distance,cathedral,localisation_accuracy,3,27,pinknoise,,,pinknoise_9.wav,90.60840541996818,30,0.3840471492546531,5,RX81,6,0.0,0.0,7.0,0,0,6.416422287390029,2.9528720378875732
0,,2024-07-18 13:28:53,sub_114,3,distance,cathedral,localisation_accuracy,3,28,pinknoise,,,pinknoise_4.wav,87.25222877791373,30,-0.45728258438274594,2,RX81,3,0.0,0.0,4.0,0,0,4.994134897360704,1.8440804481506348
0,,2024-07-18 13:28:56,sub_114,3,distance,cathedral,localisation_accuracy,3,29,pinknoise,,,pinknoise_0.wav,88.9210443034053,30,-0.32310644577449643,3,RX81,4,0.0,0.0,5.0,0,0,6.489736070381232,1.8939762115478516
0,,2024-07-18 13:28:59,sub_114,3,distance,cathedral,localisation_accuracy,3,30,pinknoise,,,pinknoise_4.wav,92.32229049299971,30,0.43680832111671897,8,RX81,9,0.0,0.0,10.0,0,0,9.451612903225808,2.031067371368408
0,,2024-07-18 13:29:03,sub_114,3,distance,cathedral,localisation_accuracy,3,31,pinknoise,,,pinknoise_3.wav,86.27748133774179,30,0.10791876123321864,1,RX81,2,0.0,0.0,3.0,0,0,4.187683284457479,2.2029459476470947
0,,2024-07-18 13:29:07,sub_114,3,distance,cathedral,localisation_accuracy,3,32,pinknoise,,,pinknoise_0.wav,89.61588067910483,30,0.4062464142527251,4,RX81,5,0.0,0.0,6.0,0,0,8.659824046920821,2.610344886779785
0,,2024-07-18 13:29:10,sub_114,3,distance,cathedral,localisation_accuracy,3,33,pinknoise,,,pinknoise_9.wav,86.12442195947006,30,-0.11600429291604641,1,RX81,2,0.0,0.0,3.0,0,0,4.9208211143695015,2.4841341972351074
0,,2024-07-18 13:29:14,sub_114,3,distance,cathedral,localisation_accuracy,3,34,pinknoise,,,pinknoise_8.wav,88.9360032257644,30,-0.30202129440127023,3,RX81,4,0.0,0.0,5.0,0,0,8.410557184750735,2.484189748764038
0,,2024-07-18 13:29:17,sub_114,3,distance,cathedral,localisation_accuracy,3,35,pinknoise,,,pinknoise_5.wav,91.77418342839243,30,-0.3386375484195513,8,RX81,9,0.0,0.0,10.0,0,0,10.521994134897362,2.2953503131866455
0,,2024-07-18 13:29:21,sub_114,3,distance,cathedral,localisation_accuracy,3,36,pinknoise,,,pinknoise_0.wav,84.2421821850298,30,-0.23483811962568302,0,RX81,1,0.0,0.0,2.0,0,0,3.7624633431085046,2.611720085144043
0,,2024-07-18 13:29:25,sub_114,3,distance,cathedral,localisation_accuracy,3,37,pinknoise,,,pinknoise_7.wav,89.62128986164328,30,0.4135679148743321,4,RX81,5,0.0,0.0,6.0,0,0,7.545454545454547,2.8434839248657227
0,,2024-07-18 13:29:29,sub_114,3,distance,cathedral,localisation_accuracy,3,38,pinknoise,,,pinknoise_2.wav,93.22820338807497,30,0.3224936729367148,10,RX81,11,0.0,0.0,12.0,0,0,11.856304985337244,2.65889835357666
0,,2024-07-18 13:29:33,sub_114,3,distance,cathedral,localisation_accuracy,3,39,pinknoise,,,pinknoise_2.wav,91.7820040305761,30,0.2764706807736237,6,RX81,7,0.0,0.0,8.0,0,0,10.126099706744869,3.1720798015594482
0,,2024-07-18 13:29:37,sub_114,3,distance,cathedral,localisation_accuracy,3,40,pinknoise,,,pinknoise_3.wav,90.38394564244223,30,0.060756866487175265,5,RX81,6,0.0,0.0,7.0,0,0,8.469208211143696,2.7975659370422363
0,,2024-07-18 13:29:41,sub_114,3,distance,cathedral,localisation_accuracy,3,41,pinknoise,,,pinknoise_0.wav,91.47644620172849,30,-0.35944123009061213,7,RX81,8,0.0,0.0,9.0,0,0,11.40175953079179,2.5453460216522217
0,,2024-07-18 13:29:44,sub_114,3,distance,cathedral,localisation_accuracy,3,42,pinknoise,,,pinknoise_0.wav,92.02410963327502,30,0.025318177129940778,9,RX81,10,0.0,0.0,11.0,0,0,11.75366568914956,2.1560323238372803
0,,2024-07-18 13:29:48,sub_114,3,distance,cathedral,localisation_accuracy,3,43,pinknoise,,,pinknoise_4.wav,87.7059085525834,30,0.19670484414140443,2,RX81,3,0.0,0.0,4.0,0,0,4.041055718475073,2.731755018234253
0,,2024-07-18 13:29:53,sub_114,3,distance,cathedral,localisation_accuracy,3,44,pinknoise,,,pinknoise_5.wav,89.46083568396077,30,0.19713570828563087,4,RX81,5,0.0,0.0,6.0,0,0,8.557184750733139,3.2350661754608154
0,,2024-07-18 13:29:57,sub_114,3,distance,cathedral,localisation_accuracy,3,45,pinknoise,,,pinknoise_1.wav,86.05512005457794,30,-0.21684322334350692,1,RX81,2,0.0,0.0,3.0,0,0,4.803519061583578,3.2184228897094727
0,,2024-07-18 13:30:01,sub_114,3,distance,cathedral,localisation_accuracy,3,46,pinknoise,,,pinknoise_4.wav,91.82287972699243,30,-0.2564842621002983,9,RX81,10,0.0,0.0,11.0,0,0,9.260997067448681,2.635791301727295
0,,2024-07-18 13:30:04,sub_114,3,distance,cathedral,localisation_accuracy,3,47,pinknoise,,,pinknoise_6.wav,92.06216561556518,30,0.06629566074435567,8,RX81,9,0.0,0.0,10.0,0,0,11.064516129032258,2.015437602996826
0,,2024-07-18 13:30:08,sub_114,3,distance,cathedral,localisation_accuracy,3,48,pinknoise,,,pinknoise_9.wav,90.36694859450178,30,0.036416516875719784,5,RX81,6,0.0,0.0,7.0,0,0,6.0205278592375375,2.826488494873047
0,,2024-07-18 13:30:12,sub_114,3,distance,cathedral,localisation_accuracy,3,49,pinknoise,,,pinknoise_9.wav,91.70468485141514,30,0.16545199407690792,6,RX81,7,0.0,0.0,8.0,0,0,9.788856304985337,2.7195286750793457
0,,2024-07-18 13:30:15,sub_114,3,distance,cathedral,localisation_accuracy,3,50,pinknoise,,,pinknoise_0.wav,87.53859905610442,30,-0.04614298982208476,2,RX81,3,0.0,0.0,4.0,0,0,4.085043988269795,2.4372620582580566
0,,2024-07-18 13:30:20,sub_114,3,distance,cathedral,localisation_accuracy,3,51,pinknoise,,,pinknoise_9.wav,92.96412253146434,30,-0.05044283501554392,10,RX81,11,0.0,0.0,12.0,0,0,11.973607038123168,3.124734878540039
0,,2024-07-18 13:30:23,sub_114,3,distance,cathedral,localisation_accuracy,3,52,pinknoise,,,pinknoise_5.wav,91.41306087252573,30,-0.445832494413715,7,RX81,8,0.0,0.0,9.0,0,0,8.674486803519063,2.5734078884124756
0,,2024-07-18 13:30:27,sub_114,3,distance,cathedral,localisation_accuracy,3,53,pinknoise,,,pinknoise_2.wav,88.94995238730257,30,-0.2823459401938775,3,RX81,4,0.0,0.0,5.0,0,0,6.299120234604105,2.469576120376587
0,,2024-07-18 13:30:31,sub_114,3,distance,cathedral,localisation_accuracy,3,54,pinknoise,,,pinknoise_9.wav,84.07091523024398,30,-0.4863703223531517,0,RX81,1,0.0,0.0,2.0,0,0,4.202346041055719,2.879378080368042
0,,2024-07-18 13:35:54,sub_114,3,distance,cathedral,localisation_accuracy,4,0,pinknoise,,,pinknoise_2.wav,91.77927049346836,30,-0.3315321352836704,8,RX81,9,0.0,0.0,10.0,0,0,10.844574780058652,2.842639446258545
0,,2024-07-18 13:35:57,sub_114,3,distance,cathedral,localisation_accuracy,4,1,pinknoise,,,pinknoise_8.wav,89.21078424609715,30,-0.13708545215972323,4,RX81,5,0.0,0.0,6.0,0,0,9.085043988269796,2.1734046936035156
0,,2024-07-18 13:36:00,sub_114,3,distance,cathedral,localisation_accuracy,4,2,pinknoise,,,pinknoise_7.wav,91.89601001175889,30,-0.154379831992838,9,RX81,10,0.0,0.0,11.0,0,0,11.563049853372435,2.0471861362457275
0,,2024-07-18 13:36:03,sub_114,3,distance,cathedral,localisation_accuracy,4,3,pinknoise,,,pinknoise_9.wav,92.96974373398527,30,-0.04255251916486791,10,RX81,11,0.0,0.0,12.0,0,0,12.35483870967742,1.7374763488769531
0,,2024-07-18 13:36:06,sub_114,3,distance,cathedral,localisation_accuracy,4,4,pinknoise,,,pinknoise_5.wav,89.21299973499552,30,0.09113378252602378,3,RX81,4,0.0,0.0,5.0,0,0,10.140762463343108,1.7258660793304443
0,,2024-07-18 13:36:11,sub_114,3,distance,cathedral,localisation_accuracy,4,5,pinknoise,,,pinknoise_8.wav,84.39562703465509,30,-0.007660294033453141,0,RX81,1,0.0,0.0,2.0,0,0,3.806451612903226,3.3130128383636475
0,,2024-07-18 13:36:14,sub_114,3,distance,cathedral,localisation_accuracy,4,6,pinknoise,,,pinknoise_2.wav,87.73786225828329,30,0.2433087172747912,2,RX81,3,0.0,0.0,4.0,0,0,3.8211143695014664,2.234363317489624
0,,2024-07-18 13:36:17,sub_114,3,distance,cathedral,localisation_accuracy,4,7,pinknoise,,,pinknoise_1.wav,91.3267492008462,30,-0.3713763234434374,6,RX81,7,0.0,0.0,8.0,0,0,8.439882697947215,2.0793650150299072
0,,2024-07-18 13:36:21,sub_114,3,distance,cathedral,localisation_accuracy,4,8,pinknoise,,,pinknoise_6.wav,86.50466939970036,30,0.4433880308415584,1,RX81,2,0.0,0.0,3.0,0,0,4.202346041055719,2.584958553314209
0,,2024-07-18 13:36:25,sub_114,3,distance,cathedral,localisation_accuracy,4,9,pinknoise,,,pinknoise_2.wav,92.04657738502227,30,0.4290613278029093,7,RX81,8,0.0,0.0,9.0,0,0,8.645161290322582,2.4691123962402344
0,,2024-07-18 13:36:28,sub_114,3,distance,cathedral,localisation_accuracy,4,10,pinknoise,,,pinknoise_9.wav,90.48642728205301,30,0.20793261060302315,5,RX81,6,0.0,0.0,7.0,0,0,5.991202346041057,2.4681038856506348
0,,2024-07-18 13:36:32,sub_114,3,distance,cathedral,localisation_accuracy,4,11,pinknoise,,,pinknoise_6.wav,87.85342520051344,30,0.41245632614353,2,RX81,3,0.0,0.0,4.0,0,0,3.967741935483871,2.4160053730010986
0,,2024-07-18 13:36:36,sub_114,3,distance,cathedral,localisation_accuracy,4,12,pinknoise,,,pinknoise_4.wav,91.72051096010954,30,-0.4135015348473813,8,RX81,9,0.0,0.0,10.0,0,0,10.697947214076247,2.5160176753997803
0,,2024-07-18 13:36:39,sub_114,3,distance,cathedral,localisation_accuracy,4,13,pinknoise,,,pinknoise_5.wav,89.54848565188833,30,0.31517274820654106,4,RX81,5,0.0,0.0,6.0,0,0,7.090909090909092,2.170194387435913
0,,2024-07-18 13:36:43,sub_114,3,distance,cathedral,localisation_accuracy,4,14,pinknoise,,,pinknoise_7.wav,91.93868149924603,30,0.2782467446389376,7,RX81,8,0.0,0.0,9.0,0,0,10.668621700879767,2.2514560222625732
0,,2024-07-18 13:36:46,sub_114,3,distance,cathedral,localisation_accuracy,4,15,pinknoise,,,pinknoise_9.wav,90.58134700574988,30,0.3448912447770155,5,RX81,6,0.0,0.0,7.0,0,0,7.5014662756598245,2.2034645080566406
0,,2024-07-18 13:36:50,sub_114,3,distance,cathedral,localisation_accuracy,4,16,pinknoise,,,pinknoise_8.wav,92.04227847895177,30,0.05089287445206481,9,RX81,10,0.0,0.0,11.0,0,0,10.375366568914957,2.576035261154175
0,,2024-07-18 13:36:54,sub_114,3,distance,cathedral,localisation_accuracy,4,17,pinknoise,,,pinknoise_6.wav,93.18622921910567,30,0.26290859448837534,10,RX81,11,0.0,0.0,12.0,0,0,11.533724340175954,3.360853433609009
0,,2024-07-18 13:36:58,sub_114,3,distance,cathedral,localisation_accuracy,4,18,pinknoise,,,pinknoise_7.wav,86.07156729932781,30,-0.19294221406000045,1,RX81,2,0.0,0.0,3.0,0,0,4.085043988269795,3.0785329341888428
0,,2024-07-18 13:37:03,sub_114,3,distance,cathedral,localisation_accuracy,4,19,pinknoise,,,pinknoise_3.wav,91.8474496163224,30,0.3707599025352586,6,RX81,7,0.0,0.0,8.0,0,0,10.448680351906159,3.3296968936920166
0,,2024-07-18 13:37:07,sub_114,3,distance,cathedral,localisation_accuracy,4,20,pinknoise,,,pinknoise_6.wav,84.42727563767693,30,0.03941128313143083,0,RX81,1,0.0,0.0,2.0,0,0,2.9120234604105573,2.722730875015259
0,,2024-07-18 13:37:10,sub_114,3,distance,cathedral,localisation_accuracy,4,21,pinknoise,,,pinknoise_9.wav,89.2645040564946,30,0.16480826258836834,3,RX81,4,0.0,0.0,5.0,0,0,9.304985337243403,2.2503459453582764
0,,2024-07-18 13:37:14,sub_114,3,distance,cathedral,localisation_accuracy,4,22,pinknoise,,,pinknoise_7.wav,87.51701802182474,30,-0.0773250759391968,2,RX81,3,0.0,0.0,4.0,0,0,5.434017595307918,2.952564239501953
0,,2024-07-18 13:37:18,sub_114,3,distance,cathedral,localisation_accuracy,4,23,pinknoise,,,pinknoise_8.wav,93.04574720711493,30,0.06433559768319508,10,RX81,11,0.0,0.0,12.0,0,0,11.181818181818183,2.7515296936035156
0,,2024-07-18 13:37:22,sub_114,3,distance,cathedral,localisation_accuracy,4,24,pinknoise,,,pinknoise_2.wav,91.7424079513982,30,0.21956573084617548,6,RX81,7,0.0,0.0,8.0,0,0,8.381231671554254,2.505784034729004
0,,2024-07-18 13:37:25,sub_114,3,distance,cathedral,localisation_accuracy,4,25,pinknoise,,,pinknoise_9.wav,90.1653671390619,30,-0.2507564502095577,5,RX81,6,0.0,0.0,7.0,0,0,10.096774193548388,1.9690465927124023
0,,2024-07-18 13:37:28,sub_114,3,distance,cathedral,localisation_accuracy,4,26,pinknoise,,,pinknoise_3.wav,89.04021405808737,30,-0.154716001475124,3,RX81,4,0.0,0.0,5.0,0,0,5.903225806451613,2.00107479095459
0,,2024-07-18 13:37:31,sub_114,3,distance,cathedral,localisation_accuracy,4,27,pinknoise,,,pinknoise_6.wav,84.49033896575857,30,0.13342696774838325,0,RX81,1,0.0,0.0,2.0,0,0,3.7917888563049855,1.8821723461151123
0,,2024-07-18 13:37:35,sub_114,3,distance,cathedral,localisation_accuracy,4,28,pinknoise,,,pinknoise_9.wav,92.13484773863506,30,0.16936507226031894,8,RX81,9,0.0,0.0,10.0,0,0,10.43401759530792,2.6566672325134277
0,,2024-07-18 13:37:39,sub_114,3,distance,cathedral,localisation_accuracy,4,29,pinknoise,,,pinknoise_9.wav,89.36437465530994,30,0.06776408163440084,4,RX81,5,0.0,0.0,6.0,0,0,7.061583577712611,2.4986891746520996
0,,2024-07-18 13:37:42,sub_114,3,distance,cathedral,localisation_accuracy,4,30,pinknoise,,,pinknoise_6.wav,91.48692337681905,30,-0.34513702504348887,7,RX81,8,0.0,0.0,9.0,0,0,10.859237536656892,2.310962677001953
0,,2024-07-18 13:37:46,sub_114,3,distance,cathedral,localisation_accuracy,4,31,pinknoise,,,pinknoise_8.wav,85.89605154006102,30,-0.4470136486257523,1,RX81,2,0.0,0.0,3.0,0,0,4.158357771260998,2.484743118286133
0,,2024-07-18 13:37:50,sub_114,3,distance,cathedral,localisation_accuracy,4,32,pinknoise,,,pinknoise_1.wav,92.13969414176147,30,0.1883883714837884,9,RX81,10,0.0,0.0,11.0,0,0,9.979472140762464,2.7955658435821533
0,,2024-07-18 13:37:53,sub_114,3,distance,cathedral,localisation_accuracy,4,33,pinknoise,,,pinknoise_2.wav,89.29821788281768,30,-0.020643510184555125,4,RX81,5,0.0,0.0,6.0,0,0,7.1788856304985345,2.4388585090637207
0,,2024-07-18 13:37:57,sub_114,3,distance,cathedral,localisation_accuracy,4,34,pinknoise,,,pinknoise_2.wav,86.22152003463347,30,0.02585448107194499,1,RX81,2,0.0,0.0,3.0,0,0,5.4046920821114375,2.4627676010131836
0,,2024-07-18 13:38:01,sub_114,3,distance,cathedral,localisation_accuracy,4,35,pinknoise,,,pinknoise_1.wav,93.00651550499934,30,0.00911423051880611,10,RX81,11,0.0,0.0,12.0,0,0,10.976539589442815,2.5629022121429443
0,,2024-07-18 13:38:05,sub_114,3,distance,cathedral,localisation_accuracy,4,36,pinknoise,,,pinknoise_2.wav,87.59435799871662,30,0.03457272078678941,2,RX81,3,0.0,0.0,4.0,0,0,6.519061583577713,2.502744674682617
0,,2024-07-18 13:38:08,sub_114,3,distance,cathedral,localisation_accuracy,4,37,pinknoise,,,pinknoise_4.wav,89.05576997130908,30,-0.13266464248357546,3,RX81,4,0.0,0.0,5.0,0,0,7.6334310850439895,2.4234440326690674
0,,2024-07-18 13:38:12,sub_114,3,distance,cathedral,localisation_accuracy,4,38,pinknoise,,,pinknoise_3.wav,92.33827205419107,30,0.45972019733533176,8,RX81,9,0.0,0.0,10.0,0,0,10.668621700879767,2.4392166137695312
0,,2024-07-18 13:38:16,sub_114,3,distance,cathedral,localisation_accuracy,4,39,pinknoise,,,pinknoise_0.wav,89.99963598834285,30,-0.4847993091999705,5,RX81,6,0.0,0.0,7.0,0,0,9.026392961876834,2.8910622596740723
0,,2024-07-18 13:38:19,sub_114,3,distance,cathedral,localisation_accuracy,4,40,pinknoise,,,pinknoise_3.wav,92.07893535347468,30,0.47443686469064095,7,RX81,8,0.0,0.0,9.0,0,0,11.445747800586512,2.35526442527771
0,,2024-07-18 13:38:23,sub_114,3,distance,cathedral,localisation_accuracy,4,41,pinknoise,,,pinknoise_5.wav,91.83863288977372,30,0.35804031190093066,6,RX81,7,0.0,0.0,8.0,0,0,8.263929618768328,2.5950472354888916
0,,2024-07-18 13:38:27,sub_114,3,distance,cathedral,localisation_accuracy,4,42,pinknoise,,,pinknoise_0.wav,91.9973585001089,30,-0.01229744699113533,9,RX81,10,0.0,0.0,11.0,0,0,10.609970674486805,2.455132484436035
0,,2024-07-18 13:38:31,sub_114,3,distance,cathedral,localisation_accuracy,4,43,pinknoise,,,pinknoise_3.wav,84.1840113493997,30,-0.3205105464021496,0,RX81,1,0.0,0.0,2.0,0,0,4.788856304985337,2.6410210132598877
0,,2024-07-18 13:38:34,sub_114,3,distance,cathedral,localisation_accuracy,4,44,pinknoise,,,pinknoise_9.wav,91.24598866894578,30,-0.48484572610954446,6,RX81,7,0.0,0.0,8.0,0,0,8.835777126099707,2.624129295349121
0,,2024-07-18 13:38:38,sub_114,3,distance,cathedral,localisation_accuracy,4,45,pinknoise,,,pinknoise_8.wav,91.8145770525512,30,0.10570029422708449,7,RX81,8,0.0,0.0,9.0,0,0,10.903225806451614,2.2982981204986572
0,,2024-07-18 13:38:41,sub_114,3,distance,cathedral,localisation_accuracy,4,46,pinknoise,,,pinknoise_2.wav,88.81798115182802,30,-0.46797143955245446,3,RX81,4,0.0,0.0,5.0,0,0,6.43108504398827,2.3441107273101807
0,,2024-07-18 13:38:45,sub_114,3,distance,cathedral,localisation_accuracy,4,47,pinknoise,,,pinknoise_3.wav,92.24028553189008,30,0.3310264185125785,9,RX81,10,0.0,0.0,11.0,0,0,9.994134897360704,2.906691789627075
0,,2024-07-18 13:38:50,sub_114,3,distance,cathedral,localisation_accuracy,4,48,pinknoise,,,pinknoise_2.wav,85.90412953860181,30,-0.43536786129995453,1,RX81,2,0.0,0.0,3.0,0,0,5.595307917888563,3.6226351261138916
0,,2024-07-18 13:38:55,sub_114,3,distance,cathedral,localisation_accuracy,4,49,pinknoise,,,pinknoise_4.wav,92.65906686896123,30,-0.47553836084464274,10,RX81,11,0.0,0.0,12.0,0,0,10.390029325513197,3.3296351432800293
0,,2024-07-18 13:38:58,sub_114,3,distance,cathedral,localisation_accuracy,4,50,pinknoise,,,pinknoise_5.wav,92.31545375750039,30,0.42701213740025157,8,RX81,9,0.0,0.0,10.0,0,0,11.695014662756599,2.20436692237854
0,,2024-07-18 13:39:02,sub_114,3,distance,cathedral,localisation_accuracy,4,51,pinknoise,,,pinknoise_6.wav,89.44540592874506,30,0.17640428882159742,4,RX81,5,0.0,0.0,6.0,0,0,9.2316715542522,2.4861481189727783
0,,2024-07-18 13:39:05,sub_114,3,distance,cathedral,localisation_accuracy,4,52,pinknoise,,,pinknoise_3.wav,90.56102939373093,30,0.31552304731949754,5,RX81,6,0.0,0.0,7.0,0,0,9.86217008797654,2.484741449356079
0,,2024-07-18 13:39:09,sub_114,3,distance,cathedral,localisation_accuracy,4,53,pinknoise,,,pinknoise_3.wav,87.46166585752172,30,-0.15715420103774214,2,RX81,3,0.0,0.0,4.0,0,0,6.548387096774194,2.3112597465515137
0,,2024-07-18 13:39:12,sub_114,3,distance,cathedral,localisation_accuracy,4,54,pinknoise,,,pinknoise_0.wav,84.27217559840257,30,-0.19056805191259996,0,RX81,1,0.0,0.0,2.0,0,0,4.627565982404692,2.312791109085083
