,event_id,timestamp,subject_id,session_index,plane,setup,task,block,trial_index,stim_type,headpose_offset_azi,headpose_offset_ele,stim_filename,stim_level,speaker_id,speaker_proc,speaker_chan,stim_azi,stim_ele,stim_dist,resp_azi,resp_ele,resp_dist,reaction_time
0,,2024-06-24 14:14:48,101,3,distance,cathedral,localisation_accuracy,1,0,pinknoise,,,data\stim_files\pinknoise_resamp_24414\pinknoise_5.wav,89.14911522239515,3,RX81,4,0.0,0.0,5.0,0,0,4.409090909090909,14.046380758285522
0,,2024-06-24 14:14:56,101,3,distance,cathedral,localisation_accuracy,1,1,pinknoise,,,data\stim_files\pinknoise_resamp_24414\pinknoise_8.wav,87.57049330475355,2,RX81,3,0.0,0.0,4.0,0,0,5.2595307917888565,6.167590856552124
0,,2024-06-24 14:15:00,101,3,distance,cathedral,localisation_accuracy,1,2,pinknoise,,,data\stim_files\pinknoise_resamp_24414\pinknoise_4.wav,91.58892582949888,6,RX81,7,0.0,0.0,8.0,0,0,9.717008797653959,1.843557357788086
0,,2024-06-24 14:15:04,101,3,distance,cathedral,localisation_accuracy,1,3,pinknoise,,,data\stim_files\pinknoise_resamp_24414\pinknoise_9.wav,86.2038576498559,1,RX81,2,0.0,0.0,3.0,0,0,3.558651026392962,1.5154519081115723
0,,2024-06-24 14:15:07,101,3,distance,cathedral,localisation_accuracy,1,4,pinknoise,,,data\stim_files\pinknoise_resamp_24414\pinknoise_9.wav,84.40078082039426,0,RX81,1,0.0,0.0,2.0,0,0,2.341642228739003,1.2650041580200195
0,,2024-06-24 14:15:11,101,3,distance,cathedral,localisation_accuracy,1,5,pinknoise,,,data\stim_files\pinknoise_resamp_24414\pinknoise_4.wav,90.341492931939,5,RX81,6,0.0,0.0,7.0,0,0,7.752199413489736,1.7506523132324219
0,,2024-06-24 14:15:15,101,3,distance,cathedral,localisation_accuracy,1,6,pinknoise,,,data\stim_files\pinknoise_resamp_24414\pinknoise_5.wav,93.00003341222718,10,RX81,11,0.0,0.0,12.0,0,0,11.124633431085044,2.0779130458831787
0,,2024-06-24 14:15:19,101,3,distance,cathedral,localisation_accuracy,1,7,pinknoise,,,data\stim_files\pinknoise_resamp_24414\pinknoise_9.wav,89.31368318402099,4,RX81,5,0.0,0.0,6.0,0,0,7.063049853372435,1.4373574256896973
0,,2024-06-24 14:15:21,101,3,distance,cathedral,localisation_accuracy,1,8,pinknoise,,,data\stim_files\pinknoise_resamp_24414\pinknoise_4.wav,91.73820004985969,7,RX81,8,0.0,0.0,9.0,0,0,4.7756598240469215,0.8983814716339111
0,,2024-06-24 14:15:24,101,3,distance,cathedral,localisation_accuracy,1,9,pinknoise,,,data\stim_files\pinknoise_resamp_24414\pinknoise_3.wav,92.00610777531934,9,RX81,10,0.0,0.0,11.0,0,0,8.734604105571847,0.9217655658721924
0,,2024-06-24 14:15:27,101,3,distance,cathedral,localisation_accuracy,1,10,pinknoise,,,data\stim_files\pinknoise_resamp_24414\pinknoise_2.wav,92.0152836843556,8,RX81,9,0.0,0.0,10.0,0,0,10.567448680351907,0.9334447383880615
0,,2024-06-24 14:15:30,101,3,distance,cathedral,localisation_accuracy,1,11,pinknoise,,,data\stim_files\pinknoise_resamp_24414\pinknoise_2.wav,84.40078082039426,0,RX81,1,0.0,0.0,2.0,0,0,4.658357771260998,0.8748722076416016
0,,2024-06-24 14:15:33,101,3,distance,cathedral,localisation_accuracy,1,12,pinknoise,,,data\stim_files\pinknoise_resamp_24414\pinknoise_1.wav,90.34149293193903,5,RX81,6,0.0,0.0,7.0,0,0,7.693548387096774,0.9686160087585449
0,,2024-06-24 14:15:36,101,3,distance,cathedral,localisation_accuracy,1,13,pinknoise,,,data\stim_files\pinknoise_resamp_24414\pinknoise_9.wav,92.0152836843556,8,RX81,9,0.0,0.0,10.0,0,0,10.875366568914957,0.936638355255127
0,,2024-06-24 14:15:39,101,3,distance,cathedral,localisation_accuracy,1,14,pinknoise,,,data\stim_files\pinknoise_resamp_24414\pinknoise_5.wav,89.14911522239514,3,RX81,4,0.0,0.0,5.0,0,0,7.722873900293255,0.921743631362915
0,,2024-06-24 14:15:42,101,3,distance,cathedral,localisation_accuracy,1,15,pinknoise,,,data\stim_files\pinknoise_resamp_24414\pinknoise_3.wav,87.57049330475357,2,RX81,3,0.0,0.0,4.0,0,0,6.329912023460411,1.012927532196045
0,,2024-06-24 14:15:46,101,3,distance,cathedral,localisation_accuracy,1,16,pinknoise,,,data\stim_files\pinknoise_resamp_24414\pinknoise_8.wav,91.7382000498597,7,RX81,8,0.0,0.0,9.0,0,0,8.514662756598241,1.5467214584350586
0,,2024-06-24 14:15:50,101,3,distance,cathedral,localisation_accuracy,1,17,pinknoise,,,data\stim_files\pinknoise_resamp_24414\pinknoise_9.wav,91.58892582949888,6,RX81,7,0.0,0.0,8.0,0,0,8.16275659824047,1.9529430866241455
0,,2024-06-24 14:15:54,101,3,distance,cathedral,localisation_accuracy,1,18,pinknoise,,,data\stim_files\pinknoise_resamp_24414\pinknoise_1.wav,89.31368318402099,4,RX81,5,0.0,0.0,6.0,0,0,6.036656891495602,1.8124232292175293
0,,2024-06-24 14:15:58,101,3,distance,cathedral,localisation_accuracy,1,19,pinknoise,,,data\stim_files\pinknoise_resamp_24414\pinknoise_8.wav,86.2038576498559,1,RX81,2,0.0,0.0,3.0,0,0,3.4560117302052786,2.7195072174072266
0,,2024-06-24 14:16:02,101,3,distance,cathedral,localisation_accuracy,1,20,pinknoise,,,data\stim_files\pinknoise_resamp_24414\pinknoise_5.wav,92.00610777531935,9,RX81,10,0.0,0.0,11.0,0,0,11.036656891495602,1.7811365127563477
0,,2024-06-24 14:16:05,101,3,distance,cathedral,localisation_accuracy,1,21,pinknoise,,,data\stim_files\pinknoise_resamp_24414\pinknoise_4.wav,93.00003341222718,10,RX81,11,0.0,0.0,12.0,0,0,12.25366568914956,1.1717467308044434
0,,2024-06-24 14:16:09,101,3,distance,cathedral,localisation_accuracy,1,22,pinknoise,,,data\stim_files\pinknoise_resamp_24414\pinknoise_5.wav,90.341492931939,5,RX81,6,0.0,0.0,7.0,0,0,8.338709677419356,1.485253095626831
0,,2024-06-24 14:16:12,101,3,distance,cathedral,localisation_accuracy,1,23,pinknoise,,,data\stim_files\pinknoise_resamp_24414\pinknoise_4.wav,89.31368318402099,4,RX81,5,0.0,0.0,6.0,0,0,6.373900293255132,1.3713946342468262
0,,2024-06-24 14:16:16,101,3,distance,cathedral,localisation_accuracy,1,24,pinknoise,,,data\stim_files\pinknoise_resamp_24414\pinknoise_2.wav,92.00610777531934,9,RX81,10,0.0,0.0,11.0,0,0,11.32991202346041,1.796703577041626
0,,2024-06-24 14:16:20,101,3,distance,cathedral,localisation_accuracy,1,25,pinknoise,,,data\stim_files\pinknoise_resamp_24414\pinknoise_7.wav,89.14911522239515,3,RX81,4,0.0,0.0,5.0,0,0,6.241935483870968,1.6873362064361572
0,,2024-06-24 14:16:23,101,3,distance,cathedral,localisation_accuracy,1,26,pinknoise,,,data\stim_files\pinknoise_resamp_24414\pinknoise_2.wav,87.57049330475357,2,RX81,3,0.0,0.0,4.0,0,0,3.236070381231672,1.3536603450775146
0,,2024-06-24 14:16:27,101,3,distance,cathedral,localisation_accuracy,1,27,pinknoise,,,data\stim_files\pinknoise_resamp_24414\pinknoise_4.wav,84.40078082039426,0,RX81,1,0.0,0.0,2.0,0,0,2.6495601173020527,1.8224117755889893
0,,2024-06-24 14:16:30,101,3,distance,cathedral,localisation_accuracy,1,28,pinknoise,,,data\stim_files\pinknoise_resamp_24414\pinknoise_0.wav,86.2038576498559,1,RX81,2,0.0,0.0,3.0,0,0,3.7199413489736077,1.4685828685760498
0,,2024-06-24 14:16:34,101,3,distance,cathedral,localisation_accuracy,1,29,pinknoise,,,data\stim_files\pinknoise_resamp_24414\pinknoise_7.wav,92.0152836843556,8,RX81,9,0.0,0.0,10.0,0,0,11.828445747800588,1.9841909408569336
0,,2024-06-24 14:16:38,101,3,distance,cathedral,localisation_accuracy,1,30,pinknoise,,,data\stim_files\pinknoise_resamp_24414\pinknoise_6.wav,91.58892582949886,6,RX81,7,0.0,0.0,8.0,0,0,10.288856304985337,1.6401069164276123
0,,2024-06-24 14:16:41,101,3,distance,cathedral,localisation_accuracy,1,31,pinknoise,,,data\stim_files\pinknoise_resamp_24414\pinknoise_9.wav,93.00003341222717,10,RX81,11,0.0,0.0,12.0,0,0,8.265395894428153,0.9062080383300781
0,,2024-06-24 14:16:44,101,3,distance,cathedral,localisation_accuracy,1,32,pinknoise,,,data\stim_files\pinknoise_resamp_24414\pinknoise_2.wav,91.73820004985969,7,RX81,8,0.0,0.0,9.0,0,0,6.94574780058651,1.0155081748962402
0,,2024-06-24 14:17:17,101,3,distance,cathedral,localisation_accuracy,2,0,uso,,,data\stim_files\uso_300ms_resamp_24414\uso_300ms_39.wav,89.31368318402099,4,RX81,5,0.0,0.0,6.0,0,0,3.5146627565982405,12.700921297073364
0,,2024-06-24 14:17:20,101,3,distance,cathedral,localisation_accuracy,2,1,uso,,,data\stim_files\uso_300ms_resamp_24414\uso_300ms_33.wav,89.14911522239515,3,RX81,4,0.0,0.0,5.0,0,0,5.2595307917888565,1.3123409748077393
0,,2024-06-24 14:17:23,101,3,distance,cathedral,localisation_accuracy,2,2,uso,,,data\stim_files\uso_300ms_resamp_24414\uso_300ms_1.wav,86.2038576498559,1,RX81,2,0.0,0.0,3.0,0,0,3.280058651026393,1.1846532821655273
0,,2024-06-24 14:17:26,101,3,distance,cathedral,localisation_accuracy,2,3,uso,,,data\stim_files\uso_300ms_resamp_24414\uso_300ms_7.wav,84.40078082039426,0,RX81,1,0.0,0.0,2.0,0,0,2.3269794721407626,1.4417829513549805
0,,2024-06-24 14:17:30,101,3,distance,cathedral,localisation_accuracy,2,4,uso,,,data\stim_files\uso_300ms_resamp_24414\uso_300ms_23.wav,91.58892582949886,6,RX81,7,0.0,0.0,8.0,0,0,5.9046920821114375,1.3436102867126465
0,,2024-06-24 14:17:32,101,3,distance,cathedral,localisation_accuracy,2,5,uso,,,data\stim_files\uso_300ms_resamp_24414\uso_300ms_6.wav,92.00610777531935,9,RX81,10,0.0,0.0,11.0,0,0,8.250733137829913,1.0452063083648682
0,,2024-06-24 14:17:36,101,3,distance,cathedral,localisation_accuracy,2,6,uso,,,data\stim_files\uso_300ms_resamp_24414\uso_300ms_29.wav,90.341492931939,5,RX81,6,0.0,0.0,7.0,0,0,6.916422287390029,1.2498455047607422
0,,2024-06-24 14:17:39,101,3,distance,cathedral,localisation_accuracy,2,7,uso,,,data\stim_files\uso_300ms_resamp_24414\uso_300ms_41.wav,91.7382000498597,7,RX81,8,0.0,0.0,9.0,0,0,9.13049853372434,1.3123440742492676
0,,2024-06-24 14:17:42,101,3,distance,cathedral,localisation_accuracy,2,8,uso,,,data\stim_files\uso_300ms_resamp_24414\uso_300ms_44.wav,93.00003341222717,10,RX81,11,0.0,0.0,12.0,0,0,10.288856304985337,0.9318914413452148
0,,2024-06-24 14:17:45,101,3,distance,cathedral,localisation_accuracy,2,9,uso,,,data\stim_files\uso_300ms_resamp_24414\uso_300ms_12.wav,92.0152836843556,8,RX81,9,0.0,0.0,10.0,0,0,8.690615835777127,1.7029390335083008
0,,2024-06-24 14:17:49,101,3,distance,cathedral,localisation_accuracy,2,10,uso,,,data\stim_files\uso_300ms_resamp_24414\uso_300ms_39.wav,87.57049330475357,2,RX81,3,0.0,0.0,4.0,0,0,3.4120234604105573,1.7810802459716797
0,,2024-06-24 14:17:52,101,3,distance,cathedral,localisation_accuracy,2,11,uso,,,data\stim_files\uso_300ms_resamp_24414\uso_300ms_43.wav,91.58892582949886,6,RX81,7,0.0,0.0,8.0,0,0,7.180351906158359,1.2836666107177734
0,,2024-06-24 14:17:55,101,3,distance,cathedral,localisation_accuracy,2,12,uso,,,data\stim_files\uso_300ms_resamp_24414\uso_300ms_27.wav,86.2038576498559,1,RX81,2,0.0,0.0,3.0,0,0,3.0601173020527863,1.4060838222503662
0,,2024-06-24 14:17:58,101,3,distance,cathedral,localisation_accuracy,2,13,uso,,,data\stim_files\uso_300ms_resamp_24414\uso_300ms_37.wav,92.0152836843556,8,RX81,9,0.0,0.0,10.0,0,0,6.124633431085044,1.109229326248169
0,,2024-06-24 14:18:02,101,3,distance,cathedral,localisation_accuracy,2,14,uso,,,data\stim_files\uso_300ms_resamp_24414\uso_300ms_23.wav,84.40078082039426,0,RX81,1,0.0,0.0,2.0,0,0,2.429618768328446,1.872654676437378
0,,2024-06-24 14:18:06,101,3,distance,cathedral,localisation_accuracy,2,15,uso,,,data\stim_files\uso_300ms_resamp_24414\uso_300ms_46.wav,90.341492931939,5,RX81,6,0.0,0.0,7.0,0,0,8.20674486803519,1.7029385566711426
0,,2024-06-24 14:18:09,101,3,distance,cathedral,localisation_accuracy,2,16,uso,,,data\stim_files\uso_300ms_resamp_24414\uso_300ms_39.wav,87.57049330475357,2,RX81,3,0.0,0.0,4.0,0,0,3.983870967741936,1.7238993644714355
0,,2024-06-24 14:18:13,101,3,distance,cathedral,localisation_accuracy,2,17,uso,,,data\stim_files\uso_300ms_resamp_24414\uso_300ms_49.wav,93.00003341222717,10,RX81,11,0.0,0.0,12.0,0,0,10.67008797653959,1.6170685291290283
0,,2024-06-24 14:18:16,101,3,distance,cathedral,localisation_accuracy,2,18,uso,,,data\stim_files\uso_300ms_resamp_24414\uso_300ms_41.wav,92.00610777531934,9,RX81,10,0.0,0.0,11.0,0,0,10.274193548387098,1.343590497970581
0,,2024-06-24 14:18:19,101,3,distance,cathedral,localisation_accuracy,2,19,uso,,,data\stim_files\uso_300ms_resamp_24414\uso_300ms_15.wav,91.73820004985969,7,RX81,8,0.0,0.0,9.0,0,0,9.306451612903226,0.937366247177124
0,,2024-06-24 14:18:23,101,3,distance,cathedral,localisation_accuracy,2,20,uso,,,data\stim_files\uso_300ms_resamp_24414\uso_300ms_26.wav,89.31368318402099,4,RX81,5,0.0,0.0,6.0,0,0,6.813782991202347,1.9360792636871338
0,,2024-06-24 14:18:26,101,3,distance,cathedral,localisation_accuracy,2,21,uso,,,data\stim_files\uso_300ms_resamp_24414\uso_300ms_17.wav,89.14911522239515,3,RX81,4,0.0,0.0,5.0,0,0,5.4501466275659824,1.0936267375946045
0,,2024-06-24 14:18:29,101,3,distance,cathedral,localisation_accuracy,2,22,uso,,,data\stim_files\uso_300ms_resamp_24414\uso_300ms_45.wav,92.0152836843556,8,RX81,9,0.0,0.0,10.0,0,0,8.324046920821115,1.09360671043396
0,,2024-06-24 14:18:33,101,3,distance,cathedral,localisation_accuracy,2,23,uso,,,data\stim_files\uso_300ms_resamp_24414\uso_300ms_41.wav,84.40078082039426,0,RX81,1,0.0,0.0,2.0,0,0,2.400293255131965,2.1859002113342285
0,,2024-06-24 14:18:36,101,3,distance,cathedral,localisation_accuracy,2,24,uso,,,data\stim_files\uso_300ms_resamp_24414\uso_300ms_31.wav,90.341492931939,5,RX81,6,0.0,0.0,7.0,0,0,5.963343108504399,1.1717467308044434
0,,2024-06-24 14:18:39,101,3,distance,cathedral,localisation_accuracy,2,25,uso,,,data\stim_files\uso_300ms_resamp_24414\uso_300ms_46.wav,93.00003341222718,10,RX81,11,0.0,0.0,12.0,0,0,9.350439882697948,1.1248762607574463
0,,2024-06-24 14:18:42,101,3,distance,cathedral,localisation_accuracy,2,26,uso,,,data\stim_files\uso_300ms_resamp_24414\uso_300ms_5.wav,91.73820004985969,7,RX81,8,0.0,0.0,9.0,0,0,8.631964809384165,1.0240058898925781
0,,2024-06-24 14:18:45,101,3,distance,cathedral,localisation_accuracy,2,27,uso,,,data\stim_files\uso_300ms_resamp_24414\uso_300ms_12.wav,87.57049330475357,2,RX81,3,0.0,0.0,4.0,0,0,4.922287390029326,1.5467000007629395
0,,2024-06-24 14:18:49,101,3,distance,cathedral,localisation_accuracy,2,28,uso,,,data\stim_files\uso_300ms_resamp_24414\uso_300ms_43.wav,89.31368318402099,4,RX81,5,0.0,0.0,6.0,0,0,7.121700879765397,1.6404435634613037
0,,2024-06-24 14:18:53,101,3,distance,cathedral,localisation_accuracy,2,29,uso,,,data\stim_files\uso_300ms_resamp_24414\uso_300ms_26.wav,86.2038576498559,1,RX81,2,0.0,0.0,3.0,0,0,3.470674486803519,2.030404806137085
0,,2024-06-24 14:18:56,101,3,distance,cathedral,localisation_accuracy,2,30,uso,,,data\stim_files\uso_300ms_resamp_24414\uso_300ms_22.wav,92.00610777531934,9,RX81,10,0.0,0.0,11.0,0,0,9.071847507331379,1.7155601978302002
0,,2024-06-24 14:19:00,101,3,distance,cathedral,localisation_accuracy,2,31,uso,,,data\stim_files\uso_300ms_resamp_24414\uso_300ms_33.wav,91.58892582949886,6,RX81,7,0.0,0.0,8.0,0,0,6.139296187683285,1.1405682563781738
0,,2024-06-24 14:19:03,101,3,distance,cathedral,localisation_accuracy,2,32,uso,,,data\stim_files\uso_300ms_resamp_24414\uso_300ms_24.wav,89.14911522239515,3,RX81,4,0.0,0.0,5.0,0,0,5.142228739002933,1.1529147624969482
