event_id,timestamp,subject_id,session_index,plane,setup,task,block,trial_index,headpose_offset_azi,headpose_offset_ele,target_number,target_filename,target_talker,target_sex,target_speaker_id,step_number:,distance_masker,distance_target,target_speaker_proc,target_speaker_chan,target_speaker_azi,target_speaker_ele,target_speaker_dist,target_stim_level,masker_filename,masker_speaker_id,masker_speaker_proc,masker_speaker_chan,masker_speaker_azi,masker_speaker_ele,masker_speaker_dist,masker_stim_level,normalisation_method,normalisation_level_masker,normalisation_level_target,played_number,resp_number,is_correct,reaction_time
,2024-07-17 16:12:31,sub_113,3,distance,cathedral,spatial_unmasking,1,0,0,0,_nine_,talker-p245_sex-f_text-_nine_.wav,p245,f,5,1,2.0,7.0,RX81,6,0.0,0.0,7.0,92.34149293193902,babble-reversed_n13_p318-three-p307-one-p256-five-p248-nine-p245-two-p284-eight.wav,0,RX81,1,0.0,0.0,2.0,84.40078082039426,mgb_normalisation,84.40078082039426,90.34149293193902,9,9.0,True,2.37483549118042
,2024-07-17 16:12:36,sub_113,3,distance,cathedral,spatial_unmasking,1,1,0,0,_eight_,talker-p245_sex-f_text-_eight_.wav,p245,f,5,2,2.0,7.0,RX81,6,0.0,0.0,7.0,88.34149293193902,babble-reversed_n13_p318-one-p307-two-p256-eight-p284-three-p248-five-p245-four.wav,0,RX81,1,0.0,0.0,2.0,84.40078082039427,mgb_normalisation,84.40078082039426,90.34149293193902,8,2.0,False,2.124852418899536
,2024-07-17 16:12:39,sub_113,3,distance,cathedral,spatial_unmasking,1,2,0,0,_two_,talker-p245_sex-f_text-_two_.wav,p245,f,5,3,2.0,7.0,RX81,6,0.0,0.0,7.0,90.341492931939,babble-reversed_n13_p307-one-p318-five-p229-four-p268-eight-p284-two-p245-three.wav,0,RX81,1,0.0,0.0,2.0,84.40078082039426,mgb_normalisation,84.40078082039426,90.34149293193902,2,2.0,True,0.9999310970306396
,2024-07-17 16:12:43,sub_113,3,distance,cathedral,spatial_unmasking,1,3,0,0,_three_,talker-p245_sex-f_text-_three_.wav,p245,f,5,4,2.0,7.0,RX81,6,0.0,0.0,7.0,90.34149293193904,babble-reversed_n13_p256-five-p307-nine-p318-three-p284-eight-p268-one-p248-two.wav,0,RX81,1,0.0,0.0,2.0,84.40078082039426,mgb_normalisation,84.40078082039426,90.34149293193902,3,3.0,True,0.938528299331665
,2024-07-17 16:12:47,sub_113,3,distance,cathedral,spatial_unmasking,1,4,0,0,_eight_,talker-p245_sex-f_text-_eight_.wav,p245,f,5,5,2.0,7.0,RX81,6,0.0,0.0,7.0,88.34149293193902,babble-reversed_n13_p229-one-p318-nine-p256-four-p284-eight-p268-five-p245-two.wav,0,RX81,1,0.0,0.0,2.0,84.40078082039426,mgb_normalisation,84.40078082039426,90.34149293193902,8,8.0,True,1.499895095825195
,2024-07-17 16:12:50,sub_113,3,distance,cathedral,spatial_unmasking,1,5,0,0,_nine_,talker-p245_sex-f_text-_nine_.wav,p245,f,5,6,2.0,7.0,RX81,6,0.0,0.0,7.0,88.34149293193902,babble-reversed_n13_p307-two-p256-four-p318-three-p284-eight-p248-five-p245-nine.wav,0,RX81,1,0.0,0.0,2.0,84.40078082039427,mgb_normalisation,84.40078082039426,90.34149293193902,9,9.0,True,1.124955415725708
,2024-07-17 16:12:53,sub_113,3,distance,cathedral,spatial_unmasking,1,6,0,0,_one_,talker-p245_sex-f_text-_one_.wav,p245,f,5,7,2.0,7.0,RX81,6,0.0,0.0,7.0,86.341492931939,babble-reversed_n13_p307-one-p318-five-p229-four-p268-eight-p284-two-p245-three.wav,0,RX81,1,0.0,0.0,2.0,84.40078082039426,mgb_normalisation,84.40078082039426,90.34149293193902,1,1.0,True,0.937103509902954
,2024-07-17 16:12:57,sub_113,3,distance,cathedral,spatial_unmasking,1,7,0,0,_nine_,talker-p245_sex-f_text-_nine_.wav,p245,f,5,8,2.0,7.0,RX81,6,0.0,0.0,7.0,86.34149293193902,babble-reversed_n13_p229-five-p318-three-p307-two-p245-four-p284-nine-p248-eight.wav,0,RX81,1,0.0,0.0,2.0,84.40078082039426,mgb_normalisation,84.40078082039426,90.34149293193902,9,9.0,True,0.9990859031677246
,2024-07-17 16:13:00,sub_113,3,distance,cathedral,spatial_unmasking,1,8,0,0,_two_,talker-p245_sex-f_text-_two_.wav,p245,f,5,9,2.0,7.0,RX81,6,0.0,0.0,7.0,84.341492931939,babble-reversed_n13_p318-five-p229-three-p256-four-p268-eight-p248-one-p245-nine.wav,0,RX81,1,0.0,0.0,2.0,84.40078082039426,mgb_normalisation,84.40078082039426,90.34149293193902,2,2.0,True,1.124922275543213
,2024-07-17 16:13:04,sub_113,3,distance,cathedral,spatial_unmasking,1,9,0,0,_five_,talker-p245_sex-f_text-_five_.wav,p245,f,5,10,2.0,7.0,RX81,6,0.0,0.0,7.0,84.341492931939,babble-reversed_n13_p229-five-p318-two-p307-eight-p268-three-p248-four-p245-one.wav,0,RX81,1,0.0,0.0,2.0,84.40078082039427,mgb_normalisation,84.40078082039426,90.34149293193902,5,5.0,True,1.1249871253967283
,2024-07-17 16:13:07,sub_113,3,distance,cathedral,spatial_unmasking,1,10,0,0,_two_,talker-p245_sex-f_text-_two_.wav,p245,f,5,11,2.0,7.0,RX81,6,0.0,0.0,7.0,82.341492931939,babble-reversed_n13_p318-one-p307-two-p256-eight-p284-three-p248-five-p245-four.wav,0,RX81,1,0.0,0.0,2.0,84.40078082039427,mgb_normalisation,84.40078082039426,90.34149293193902,2,2.0,True,0.9958689212799072
,2024-07-17 16:13:11,sub_113,3,distance,cathedral,spatial_unmasking,1,11,0,0,_two_,talker-p245_sex-f_text-_two_.wav,p245,f,5,12,2.0,7.0,RX81,6,0.0,0.0,7.0,82.341492931939,babble-reversed_n13_p256-four-p229-eight-p307-five-p248-three-p245-one-p284-two.wav,0,RX81,1,0.0,0.0,2.0,84.40078082039426,mgb_normalisation,84.40078082039426,90.34149293193902,2,3.0,False,0.9999325275421144
,2024-07-17 16:13:15,sub_113,3,distance,cathedral,spatial_unmasking,1,12,0,0,_eight_,talker-p245_sex-f_text-_eight_.wav,p245,f,5,13,2.0,7.0,RX81,6,0.0,0.0,7.0,83.34149293193902,babble-reversed_n13_p256-four-p229-two-p318-five-p268-one-p248-eight-p245-three.wav,0,RX81,1,0.0,0.0,2.0,84.40078082039426,mgb_normalisation,84.40078082039426,90.34149293193902,8,3.0,False,1.4998953342437744
,2024-07-17 16:13:18,sub_113,3,distance,cathedral,spatial_unmasking,1,13,0,0,_eight_,talker-p245_sex-f_text-_eight_.wav,p245,f,5,14,2.0,7.0,RX81,6,0.0,0.0,7.0,84.341492931939,babble-reversed_n13_p229-one-p318-nine-p256-four-p284-eight-p268-five-p245-two.wav,0,RX81,1,0.0,0.0,2.0,84.40078082039426,mgb_normalisation,84.40078082039426,90.34149293193902,8,8.0,True,1.0627591609954834
,2024-07-17 16:13:21,sub_113,3,distance,cathedral,spatial_unmasking,1,14,0,0,_four_,talker-p245_sex-f_text-_four_.wav,p245,f,5,15,2.0,7.0,RX81,6,0.0,0.0,7.0,84.34149293193903,babble-reversed_n13_p229-nine-p307-five-p256-two-p248-three-p245-one-p268-eight.wav,0,RX81,1,0.0,0.0,2.0,84.40078082039426,mgb_normalisation,84.40078082039426,90.34149293193902,4,4.0,True,1.0624263286590576
,2024-07-17 16:13:25,sub_113,3,distance,cathedral,spatial_unmasking,1,15,0,0,_five_,talker-p245_sex-f_text-_five_.wav,p245,f,5,16,2.0,7.0,RX81,6,0.0,0.0,7.0,83.34149293193902,babble-reversed_n13_p307-two-p256-four-p318-three-p284-eight-p248-five-p245-nine.wav,0,RX81,1,0.0,0.0,2.0,84.40078082039427,mgb_normalisation,84.40078082039426,90.34149293193902,5,5.0,True,0.8749396800994873
,2024-07-17 16:13:28,sub_113,3,distance,cathedral,spatial_unmasking,1,16,0,0,_nine_,talker-p245_sex-f_text-_nine_.wav,p245,f,5,17,2.0,7.0,RX81,6,0.0,0.0,7.0,83.34149293193902,babble-reversed_n13_p307-one-p318-five-p229-four-p268-eight-p284-two-p245-three.wav,0,RX81,1,0.0,0.0,2.0,84.40078082039426,mgb_normalisation,84.40078082039426,90.34149293193902,9,9.0,True,1.0015597343444824
,2024-07-17 16:13:32,sub_113,3,distance,cathedral,spatial_unmasking,1,17,0,0,_four_,talker-p245_sex-f_text-_four_.wav,p245,f,5,18,2.0,7.0,RX81,6,0.0,0.0,7.0,82.34149293193902,babble-reversed_n13_p318-nine-p307-eight-p229-two-p284-one-p248-three-p245-five.wav,0,RX81,1,0.0,0.0,2.0,84.40078082039426,mgb_normalisation,84.40078082039426,90.34149293193902,4,4.0,True,1.1249215602874756
,2024-07-17 16:13:35,sub_113,3,distance,cathedral,spatial_unmasking,1,18,0,0,_three_,talker-p245_sex-f_text-_three_.wav,p245,f,5,19,2.0,7.0,RX81,6,0.0,0.0,7.0,82.34149293193902,babble-reversed_n13_p229-five-p256-one-p318-three-p248-nine-p268-four-p284-eight.wav,0,RX81,1,0.0,0.0,2.0,84.40078082039426,mgb_normalisation,84.40078082039426,90.34149293193902,3,3.0,True,1.062424898147583
,2024-07-17 16:13:38,sub_113,3,distance,cathedral,spatial_unmasking,1,19,0,0,_six_,talker-p245_sex-f_text-_six_.wav,p245,f,5,20,2.0,7.0,RX81,6,0.0,0.0,7.0,81.34149293193902,babble-reversed_n13_p229-five-p256-one-p318-three-p248-nine-p268-four-p284-eight.wav,0,RX81,1,0.0,0.0,2.0,84.40078082039426,mgb_normalisation,84.40078082039426,90.34149293193902,6,6.0,True,0.8728899955749512
,2024-07-17 16:13:42,sub_113,3,distance,cathedral,spatial_unmasking,1,20,0,0,_one_,talker-p245_sex-f_text-_one_.wav,p245,f,5,21,2.0,7.0,RX81,6,0.0,0.0,7.0,81.341492931939,babble-reversed_n13_p229-two-p318-eight-p256-three-p268-one-p248-nine-p284-five.wav,0,RX81,1,0.0,0.0,2.0,84.40078082039426,mgb_normalisation,84.40078082039426,90.34149293193902,1,1.0,True,0.9999303817749025
,2024-07-17 16:13:45,sub_113,3,distance,cathedral,spatial_unmasking,1,21,0,0,_eight_,talker-p245_sex-f_text-_eight_.wav,p245,f,5,22,2.0,7.0,RX81,6,0.0,0.0,7.0,80.34149293193903,babble-reversed_n13_p307-nine-p229-one-p256-eight-p248-four-p284-two-p268-three.wav,0,RX81,1,0.0,0.0,2.0,84.40078082039426,mgb_normalisation,84.40078082039426,90.34149293193902,8,3.0,False,0.9999630451202391
,2024-07-17 16:13:48,sub_113,3,distance,cathedral,spatial_unmasking,1,22,0,0,_one_,talker-p245_sex-f_text-_one_.wav,p245,f,5,23,2.0,7.0,RX81,6,0.0,0.0,7.0,81.341492931939,babble-reversed_n13_p318-five-p256-nine-p307-eight-p248-two-p245-four-p284-three.wav,0,RX81,1,0.0,0.0,2.0,84.40078082039426,mgb_normalisation,84.40078082039426,90.34149293193902,1,4.0,False,0.863563060760498
,2024-07-17 16:13:53,sub_113,3,distance,cathedral,spatial_unmasking,1,23,0,0,_nine_,talker-p245_sex-f_text-_nine_.wav,p245,f,5,24,2.0,7.0,RX81,6,0.0,0.0,7.0,82.34149293193902,babble-reversed_n13_p229-three-p256-one-p307-two-p284-eight-p268-five-p248-nine.wav,0,RX81,1,0.0,0.0,2.0,84.40078082039426,mgb_normalisation,84.40078082039426,90.34149293193902,9,8.0,False,2.74910569190979
,2024-07-17 16:13:57,sub_113,3,distance,cathedral,spatial_unmasking,1,24,0,0,_eight_,talker-p245_sex-f_text-_eight_.wav,p245,f,5,25,2.0,7.0,RX81,6,0.0,0.0,7.0,83.34149293193902,babble-reversed_n13_p318-five-p256-nine-p307-eight-p248-two-p245-four-p284-three.wav,0,RX81,1,0.0,0.0,2.0,84.40078082039426,mgb_normalisation,84.40078082039426,90.34149293193902,8,3.0,False,1.4353392124176023
,2024-07-17 16:14:01,sub_113,3,distance,cathedral,spatial_unmasking,1,25,0,0,_five_,talker-p245_sex-f_text-_five_.wav,p245,f,5,26,2.0,7.0,RX81,6,0.0,0.0,7.0,84.341492931939,babble-reversed_n13_p256-eight-p318-five-p307-four-p245-three-p268-one-p284-nine.wav,0,RX81,1,0.0,0.0,2.0,84.40078082039426,mgb_normalisation,84.40078082039426,90.34149293193902,5,5.0,True,0.9374337196350098
,2024-07-17 16:14:04,sub_113,3,distance,cathedral,spatial_unmasking,1,26,0,0,_one_,talker-p245_sex-f_text-_one_.wav,p245,f,5,27,2.0,7.0,RX81,6,0.0,0.0,7.0,84.341492931939,babble-reversed_n13_p229-three-p307-one-p318-two-p245-eight-p268-five-p284-four.wav,0,RX81,1,0.0,0.0,2.0,84.40078082039426,mgb_normalisation,84.40078082039426,90.34149293193902,1,1.0,True,0.8124427795410156
,2024-07-17 16:14:07,sub_113,3,distance,cathedral,spatial_unmasking,1,27,0,0,_six_,talker-p245_sex-f_text-_six_.wav,p245,f,5,28,2.0,7.0,RX81,6,0.0,0.0,7.0,83.34149293193902,babble-reversed_n13_p318-nine-p307-eight-p229-two-p284-one-p248-three-p245-five.wav,0,RX81,1,0.0,0.0,2.0,84.40078082039426,mgb_normalisation,84.40078082039426,90.34149293193902,6,2.0,False,0.9400992393493652
,2024-07-17 16:14:10,sub_113,3,distance,cathedral,spatial_unmasking,1,28,0,0,_nine_,talker-p245_sex-f_text-_nine_.wav,p245,f,5,29,2.0,7.0,RX81,6,0.0,0.0,7.0,84.341492931939,babble-reversed_n13_p229-eight-p256-nine-p318-four-p245-three-p268-five-p284-two.wav,0,RX81,1,0.0,0.0,2.0,84.40078082039426,mgb_normalisation,84.40078082039426,90.34149293193902,9,9.0,True,0.8749387264251709
,2024-07-17 16:14:14,sub_113,3,distance,cathedral,spatial_unmasking,1,29,0,0,_three_,talker-p245_sex-f_text-_three_.wav,p245,f,5,30,2.0,7.0,RX81,6,0.0,0.0,7.0,84.34149293193903,babble-reversed_n13_p229-one-p318-eight-p256-three-p268-two-p245-five-p248-nine.wav,0,RX81,1,0.0,0.0,2.0,84.40078082039426,mgb_normalisation,84.40078082039426,90.34149293193902,3,6.0,False,0.9400687217712402
,2024-07-17 16:14:17,sub_113,3,distance,cathedral,spatial_unmasking,1,30,0,0,_one_,talker-p245_sex-f_text-_one_.wav,p245,f,5,31,2.0,7.0,RX81,6,0.0,0.0,7.0,85.341492931939,babble-reversed_n13_p229-nine-p318-one-p307-two-p248-eight-p245-five-p284-four.wav,0,RX81,1,0.0,0.0,2.0,84.40078082039426,mgb_normalisation,84.40078082039426,90.34149293193902,1,1.0,True,0.8741884231567383
,2024-07-17 16:14:20,sub_113,3,distance,cathedral,spatial_unmasking,1,31,0,0,_five_,talker-p245_sex-f_text-_five_.wav,p245,f,5,32,2.0,7.0,RX81,6,0.0,0.0,7.0,85.34149293193903,babble-reversed_n13_p318-five-p256-nine-p307-eight-p248-two-p245-four-p284-three.wav,0,RX81,1,0.0,0.0,2.0,84.40078082039426,mgb_normalisation,84.40078082039426,90.34149293193902,5,5.0,True,0.8124432563781738
,2024-07-17 16:14:23,sub_113,3,distance,cathedral,spatial_unmasking,1,32,0,0,_six_,talker-p245_sex-f_text-_six_.wav,p245,f,5,33,2.0,7.0,RX81,6,0.0,0.0,7.0,84.341492931939,babble-reversed_n13_p229-three-p256-one-p307-two-p284-eight-p268-five-p248-nine.wav,0,RX81,1,0.0,0.0,2.0,84.40078082039426,mgb_normalisation,84.40078082039426,90.34149293193902,6,6.0,True,0.8117694854736328
,2024-07-17 16:14:27,sub_113,3,distance,cathedral,spatial_unmasking,1,33,0,0,_one_,talker-p245_sex-f_text-_one_.wav,p245,f,5,34,2.0,7.0,RX81,6,0.0,0.0,7.0,84.341492931939,babble-reversed_n13_p256-three-p318-two-p229-nine-p248-four-p284-one-p268-eight.wav,0,RX81,1,0.0,0.0,2.0,84.40078082039426,mgb_normalisation,84.40078082039426,90.34149293193902,1,1.0,True,0.937434196472168
,2024-07-17 16:14:30,sub_113,3,distance,cathedral,spatial_unmasking,1,34,0,0,_eight_,talker-p245_sex-f_text-_eight_.wav,p245,f,5,35,2.0,7.0,RX81,6,0.0,0.0,7.0,83.34149293193902,babble-reversed_n13_p229-nine-p307-five-p256-two-p248-three-p245-one-p268-eight.wav,0,RX81,1,0.0,0.0,2.0,84.40078082039426,mgb_normalisation,84.40078082039426,90.34149293193902,8,2.0,False,1.3124291896820068
,2024-07-17 16:14:35,sub_113,3,distance,cathedral,spatial_unmasking,1,35,0,0,_eight_,talker-p245_sex-f_text-_eight_.wav,p245,f,5,36,2.0,7.0,RX81,6,0.0,0.0,7.0,84.341492931939,babble-reversed_n13_p256-three-p318-two-p229-nine-p248-four-p284-one-p268-eight.wav,0,RX81,1,0.0,0.0,2.0,84.40078082039426,mgb_normalisation,84.40078082039426,90.34149293193902,8,3.0,False,2.5647666454315186
,2024-07-17 16:14:40,sub_113,3,distance,cathedral,spatial_unmasking,1,36,0,0,_four_,talker-p245_sex-f_text-_four_.wav,p245,f,5,37,2.0,7.0,RX81,6,0.0,0.0,7.0,85.34149293193903,babble-reversed_n13_p256-five-p307-nine-p318-three-p284-eight-p268-one-p248-two.wav,0,RX81,1,0.0,0.0,2.0,84.40078082039426,mgb_normalisation,84.40078082039426,90.34149293193902,4,4.0,True,2.684400796890259
,2024-07-17 16:14:44,sub_113,3,distance,cathedral,spatial_unmasking,1,37,0,0,_three_,talker-p245_sex-f_text-_three_.wav,p245,f,5,38,2.0,7.0,RX81,6,0.0,0.0,7.0,85.34149293193903,babble-reversed_n13_p229-two-p256-three-p318-eight-p284-five-p268-four-p245-one.wav,0,RX81,1,0.0,0.0,2.0,84.40078082039426,mgb_normalisation,84.40078082039426,90.34149293193902,3,3.0,True,0.9402923583984376
,2024-07-17 16:14:47,sub_113,3,distance,cathedral,spatial_unmasking,1,38,0,0,_two_,talker-p245_sex-f_text-_two_.wav,p245,f,5,39,2.0,7.0,RX81,6,0.0,0.0,7.0,84.341492931939,babble-reversed_n13_p229-nine-p256-four-p318-three-p268-eight-p248-two-p284-five.wav,0,RX81,1,0.0,0.0,2.0,84.40078082039426,mgb_normalisation,84.40078082039426,90.34149293193902,2,2.0,True,0.9391269683837892
,2024-07-17 16:14:50,sub_113,3,distance,cathedral,spatial_unmasking,1,39,0,0,_one_,talker-p245_sex-f_text-_one_.wav,p245,f,5,40,2.0,7.0,RX81,6,0.0,0.0,7.0,84.341492931939,babble-reversed_n13_p256-eight-p229-three-p307-nine-p245-five-p248-four-p268-two.wav,0,RX81,1,0.0,0.0,2.0,84.40078082039426,mgb_normalisation,84.40078082039426,90.34149293193902,1,1.0,True,0.8124439716339111
,2024-07-17 16:14:54,sub_113,3,distance,cathedral,spatial_unmasking,1,40,0,0,_nine_,talker-p245_sex-f_text-_nine_.wav,p245,f,5,41,2.0,7.0,RX81,6,0.0,0.0,7.0,83.34149293193902,babble-reversed_n13_p229-three-p256-one-p307-two-p284-eight-p268-five-p248-nine.wav,0,RX81,1,0.0,0.0,2.0,84.40078082039426,mgb_normalisation,84.40078082039426,90.34149293193902,9,9.0,True,1.064006805419922
,2024-07-17 16:14:57,sub_113,3,distance,cathedral,spatial_unmasking,1,41,0,0,_five_,talker-p245_sex-f_text-_five_.wav,p245,f,5,42,2.0,7.0,RX81,6,0.0,0.0,7.0,83.34149293193902,babble-reversed_n13_p318-nine-p307-eight-p229-two-p284-one-p248-three-p245-five.wav,0,RX81,1,0.0,0.0,2.0,84.40078082039426,mgb_normalisation,84.40078082039426,90.34149293193902,5,5.0,True,0.7499485015869141
,2024-07-17 16:15:00,sub_113,3,distance,cathedral,spatial_unmasking,1,42,0,0,_six_,talker-p245_sex-f_text-_six_.wav,p245,f,5,43,2.0,7.0,RX81,6,0.0,0.0,7.0,82.34149293193902,babble-reversed_n13_p318-five-p229-four-p256-eight-p284-one-p245-three-p248-two.wav,0,RX81,1,0.0,0.0,2.0,84.40078082039426,mgb_normalisation,84.40078082039426,90.34149293193902,6,6.0,True,0.6875133514404297
,2024-07-17 16:15:03,sub_113,3,distance,cathedral,spatial_unmasking,1,43,0,0,_two_,talker-p245_sex-f_text-_two_.wav,p245,f,5,44,2.0,7.0,RX81,6,0.0,0.0,7.0,82.341492931939,babble-reversed_n13_p229-five-p256-three-p318-nine-p248-two-p284-four-p268-one.wav,0,RX81,1,0.0,0.0,2.0,84.40078082039427,mgb_normalisation,84.40078082039426,90.34149293193902,2,2.0,True,0.8740477561950684
,2024-07-17 16:15:07,sub_113,3,distance,cathedral,spatial_unmasking,1,44,0,0,_eight_,talker-p245_sex-f_text-_eight_.wav,p245,f,5,45,2.0,7.0,RX81,6,0.0,0.0,7.0,81.34149293193902,babble-reversed_n13_p318-three-p307-one-p256-five-p248-nine-p245-two-p284-eight.wav,0,RX81,1,0.0,0.0,2.0,84.40078082039426,mgb_normalisation,84.40078082039426,90.34149293193902,8,3.0,False,1.1874165534973145
,2024-07-17 16:15:10,sub_113,3,distance,cathedral,spatial_unmasking,1,45,0,0,_five_,talker-p245_sex-f_text-_five_.wav,p245,f,5,46,2.0,7.0,RX81,6,0.0,0.0,7.0,82.34149293193902,babble-reversed_n13_p318-five-p256-nine-p307-two-p245-eight-p248-one-p284-four.wav,0,RX81,1,0.0,0.0,2.0,84.40078082039427,mgb_normalisation,84.40078082039426,90.34149293193902,5,5.0,True,0.9374339580535888
,2024-07-17 16:15:14,sub_113,3,distance,cathedral,spatial_unmasking,1,46,0,0,_eight_,talker-p245_sex-f_text-_eight_.wav,p245,f,5,47,2.0,7.0,RX81,6,0.0,0.0,7.0,82.34149293193902,babble-reversed_n13_p229-five-p318-three-p307-two-p245-four-p284-nine-p248-eight.wav,0,RX81,1,0.0,0.0,2.0,84.40078082039426,mgb_normalisation,84.40078082039426,90.34149293193902,8,8.0,True,1.2511844635009766
,2024-07-17 16:16:31,sub_113,3,distance,cathedral,spatial_unmasking,2,47,0,0,_two_,talker-p245_sex-f_text-_two_.wav,p245,f,5,1,6.0,7.0,RX81,6,0.0,0.0,7.0,92.341492931939,babble-reversed_n13_p307-nine-p318-two-p256-one-p245-three-p268-four-p248-eight.wav,4,RX81,5,0.0,0.0,6.0,89.31368318402099,mgb_normalisation,89.31368318402099,90.34149293193902,2,2.0,True,0.9374353885650636
,2024-07-17 16:16:34,sub_113,3,distance,cathedral,spatial_unmasking,2,48,0,0,_one_,talker-p245_sex-f_text-_one_.wav,p245,f,5,2,6.0,7.0,RX81,6,0.0,0.0,7.0,88.34149293193902,babble-reversed_n13_p229-three-p256-one-p307-two-p284-eight-p268-five-p248-nine.wav,4,RX81,5,0.0,0.0,6.0,89.31368318402099,mgb_normalisation,89.31368318402099,90.34149293193902,1,1.0,True,0.8124439716339111
,2024-07-17 16:16:38,sub_113,3,distance,cathedral,spatial_unmasking,2,49,0,0,_three_,talker-p245_sex-f_text-_three_.wav,p245,f,5,3,6.0,7.0,RX81,6,0.0,0.0,7.0,84.34149293193903,babble-reversed_n13_p256-four-p229-eight-p307-five-p248-three-p245-one-p284-two.wav,4,RX81,5,0.0,0.0,6.0,89.31368318402099,mgb_normalisation,89.31368318402099,90.34149293193902,3,3.0,True,1.1301274299621582
,2024-07-17 16:16:41,sub_113,3,distance,cathedral,spatial_unmasking,2,50,0,0,_five_,talker-p245_sex-f_text-_five_.wav,p245,f,5,4,6.0,7.0,RX81,6,0.0,0.0,7.0,80.34149293193903,babble-reversed_n13_p318-four-p256-five-p229-three-p284-one-p245-eight-p248-nine.wav,4,RX81,5,0.0,0.0,6.0,89.31368318402099,mgb_normalisation,89.31368318402099,90.34149293193902,5,5.0,True,0.9999339580535888
,2024-07-17 16:16:45,sub_113,3,distance,cathedral,spatial_unmasking,2,51,0,0,_three_,talker-p245_sex-f_text-_three_.wav,p245,f,5,5,6.0,7.0,RX81,6,0.0,0.0,7.0,76.34149293193902,babble-reversed_n13_p318-four-p256-five-p229-three-p284-one-p245-eight-p248-nine.wav,4,RX81,5,0.0,0.0,6.0,89.31368318402099,mgb_normalisation,89.31368318402099,90.34149293193902,3,3.0,True,1.4373998641967771
,2024-07-17 16:16:49,sub_113,3,distance,cathedral,spatial_unmasking,2,52,0,0,_four_,talker-p245_sex-f_text-_four_.wav,p245,f,5,6,6.0,7.0,RX81,6,0.0,0.0,7.0,72.34149293193903,babble-reversed_n13_p229-two-p256-three-p318-eight-p284-five-p268-four-p245-one.wav,4,RX81,5,0.0,0.0,6.0,89.31368318402099,mgb_normalisation,89.31368318402099,90.34149293193902,4,1.0,False,2.124198198318481
,2024-07-17 16:16:59,sub_113,3,distance,cathedral,spatial_unmasking,2,53,0,0,_five_,talker-p245_sex-f_text-_five_.wav,p245,f,5,7,6.0,7.0,RX81,6,0.0,0.0,7.0,74.34149293193902,babble-reversed_n13_p318-one-p307-two-p256-eight-p284-three-p248-five-p245-four.wav,4,RX81,5,0.0,0.0,6.0,89.313683184021,mgb_normalisation,89.31368318402099,90.34149293193902,5,8.0,False,7.000399589538574
,2024-07-17 16:17:05,sub_113,3,distance,cathedral,spatial_unmasking,2,54,0,0,_nine_,talker-p245_sex-f_text-_nine_.wav,p245,f,5,8,6.0,7.0,RX81,6,0.0,0.0,7.0,76.34149293193902,babble-reversed_n13_p229-two-p307-five-p318-four-p284-one-p248-nine-p268-eight.wav,4,RX81,5,0.0,0.0,6.0,89.31368318402099,mgb_normalisation,89.31368318402099,90.34149293193902,9,6.0,False,3.500138998031616
,2024-07-17 16:17:12,sub_113,3,distance,cathedral,spatial_unmasking,2,55,0,0,_five_,talker-p245_sex-f_text-_five_.wav,p245,f,5,9,6.0,7.0,RX81,6,0.0,0.0,7.0,78.34149293193902,babble-reversed_n13_p229-two-p307-five-p318-four-p284-one-p248-nine-p268-eight.wav,4,RX81,5,0.0,0.0,6.0,89.31368318402099,mgb_normalisation,89.31368318402099,90.34149293193902,5,8.0,False,5.25165319442749
,2024-07-17 16:17:16,sub_113,3,distance,cathedral,spatial_unmasking,2,56,0,0,_three_,talker-p245_sex-f_text-_three_.wav,p245,f,5,10,6.0,7.0,RX81,6,0.0,0.0,7.0,80.34149293193903,babble-reversed_n13_p229-eight-p256-nine-p318-four-p245-three-p268-five-p284-two.wav,4,RX81,5,0.0,0.0,6.0,89.31368318402099,mgb_normalisation,89.31368318402099,90.34149293193902,3,3.0,True,0.9374346733093262
,2024-07-17 16:17:19,sub_113,3,distance,cathedral,spatial_unmasking,2,57,0,0,_four_,talker-p245_sex-f_text-_four_.wav,p245,f,5,11,6.0,7.0,RX81,6,0.0,0.0,7.0,80.34149293193903,babble-reversed_n13_p229-one-p318-eight-p256-three-p268-nine-p248-five-p284-four.wav,4,RX81,5,0.0,0.0,6.0,89.31368318402099,mgb_normalisation,89.31368318402099,90.34149293193902,4,4.0,True,0.9337425231933594
,2024-07-17 16:17:23,sub_113,3,distance,cathedral,spatial_unmasking,2,58,0,0,_eight_,talker-p245_sex-f_text-_eight_.wav,p245,f,5,12,6.0,7.0,RX81,6,0.0,0.0,7.0,78.34149293193902,babble-reversed_n13_p229-three-p307-one-p318-two-p245-eight-p268-five-p284-four.wav,4,RX81,5,0.0,0.0,6.0,89.31368318402099,mgb_normalisation,89.31368318402099,90.34149293193902,8,8.0,True,1.6898858547210691
,2024-07-17 16:17:26,sub_113,3,distance,cathedral,spatial_unmasking,2,59,0,0,_six_,talker-p245_sex-f_text-_six_.wav,p245,f,5,13,6.0,7.0,RX81,6,0.0,0.0,7.0,78.34149293193902,babble-reversed_n13_p307-two-p229-one-p256-five-p248-nine-p284-three-p268-eight.wav,4,RX81,5,0.0,0.0,6.0,89.313683184021,mgb_normalisation,89.31368318402099,90.34149293193902,6,6.0,True,0.8749127388000488
,2024-07-17 16:17:37,sub_113,3,distance,cathedral,spatial_unmasking,2,60,0,0,_three_,talker-p245_sex-f_text-_three_.wav,p245,f,5,14,6.0,7.0,RX81,6,0.0,0.0,7.0,76.34149293193902,babble-reversed_n13_p307-five-p229-two-p318-four-p248-three-p245-nine-p268-eight.wav,4,RX81,5,0.0,0.0,6.0,89.31368318402099,mgb_normalisation,89.31368318402099,90.34149293193902,3,3.0,True,8.437510251998901
,2024-07-17 16:17:41,sub_113,3,distance,cathedral,spatial_unmasking,2,61,0,0,_one_,talker-p245_sex-f_text-_one_.wav,p245,f,5,15,6.0,7.0,RX81,6,0.0,0.0,7.0,76.34149293193902,babble-reversed_n13_p256-three-p318-one-p307-two-p284-nine-p268-four-p245-eight.wav,4,RX81,5,0.0,0.0,6.0,89.31368318402099,mgb_normalisation,89.31368318402099,90.34149293193902,1,9.0,False,1.062427043914795
,2024-07-17 16:17:46,sub_113,3,distance,cathedral,spatial_unmasking,2,62,0,0,_eight_,talker-p245_sex-f_text-_eight_.wav,p245,f,5,16,6.0,7.0,RX81,6,0.0,0.0,7.0,77.34149293193902,babble-reversed_n13_p229-nine-p318-one-p307-two-p248-eight-p245-five-p284-four.wav,4,RX81,5,0.0,0.0,6.0,89.31368318402099,mgb_normalisation,89.31368318402099,90.34149293193902,8,9.0,False,3.062232255935669
,2024-07-17 16:17:50,sub_113,3,distance,cathedral,spatial_unmasking,2,63,0,0,_three_,talker-p245_sex-f_text-_three_.wav,p245,f,5,17,6.0,7.0,RX81,6,0.0,0.0,7.0,78.34149293193902,babble-reversed_n13_p229-five-p318-two-p307-eight-p268-three-p248-four-p245-one.wav,4,RX81,5,0.0,0.0,6.0,89.313683184021,mgb_normalisation,89.31368318402099,90.34149293193902,3,3.0,True,1.312408208847046
,2024-07-17 16:17:54,sub_113,3,distance,cathedral,spatial_unmasking,2,64,0,0,_five_,talker-p245_sex-f_text-_five_.wav,p245,f,5,18,6.0,7.0,RX81,6,0.0,0.0,7.0,78.34149293193902,babble-reversed_n13_p318-five-p229-three-p256-four-p268-eight-p248-one-p245-nine.wav,4,RX81,5,0.0,0.0,6.0,89.31368318402099,mgb_normalisation,89.31368318402099,90.34149293193902,5,9.0,False,1.8125600814819336
,2024-07-17 16:17:59,sub_113,3,distance,cathedral,spatial_unmasking,2,65,0,0,_nine_,talker-p245_sex-f_text-_nine_.wav,p245,f,5,19,6.0,7.0,RX81,6,0.0,0.0,7.0,79.34149293193902,babble-reversed_n13_p256-four-p229-two-p318-five-p268-one-p248-eight-p245-three.wav,4,RX81,5,0.0,0.0,6.0,89.31368318402099,mgb_normalisation,89.31368318402099,90.34149293193902,9,8.0,False,2.625763177871704
,2024-07-17 16:18:04,sub_113,3,distance,cathedral,spatial_unmasking,2,66,0,0,_two_,talker-p245_sex-f_text-_two_.wav,p245,f,5,20,6.0,7.0,RX81,6,0.0,0.0,7.0,80.341492931939,babble-reversed_n13_p318-five-p256-nine-p307-eight-p248-two-p245-four-p284-three.wav,4,RX81,5,0.0,0.0,6.0,89.31368318402099,mgb_normalisation,89.31368318402099,90.34149293193902,2,3.0,False,2.06225848197937
,2024-07-17 16:18:08,sub_113,3,distance,cathedral,spatial_unmasking,2,67,0,0,_nine_,talker-p245_sex-f_text-_nine_.wav,p245,f,5,21,6.0,7.0,RX81,6,0.0,0.0,7.0,81.34149293193902,babble-reversed_n13_p307-five-p229-three-p318-nine-p245-four-p268-eight-p284-two.wav,4,RX81,5,0.0,0.0,6.0,89.31368318402099,mgb_normalisation,89.31368318402099,90.34149293193902,9,9.0,True,1.5611224174499512
,2024-07-17 16:18:11,sub_113,3,distance,cathedral,spatial_unmasking,2,68,0,0,_five_,talker-p245_sex-f_text-_five_.wav,p245,f,5,22,6.0,7.0,RX81,6,0.0,0.0,7.0,81.34149293193902,babble-reversed_n13_p318-five-p256-nine-p307-two-p245-eight-p248-one-p284-four.wav,4,RX81,5,0.0,0.0,6.0,89.313683184021,mgb_normalisation,89.31368318402099,90.34149293193902,5,5.0,True,1.0624632835388184
,2024-07-17 16:18:14,sub_113,3,distance,cathedral,spatial_unmasking,2,69,0,0,_six_,talker-p245_sex-f_text-_six_.wav,p245,f,5,23,6.0,7.0,RX81,6,0.0,0.0,7.0,80.341492931939,babble-reversed_n13_p256-four-p307-eight-p318-two-p248-three-p284-nine-p268-one.wav,4,RX81,5,0.0,0.0,6.0,89.313683184021,mgb_normalisation,89.31368318402099,90.34149293193902,6,6.0,True,0.9999303817749025
,2024-07-17 16:18:19,sub_113,3,distance,cathedral,spatial_unmasking,2,70,0,0,_one_,talker-p245_sex-f_text-_one_.wav,p245,f,5,24,6.0,7.0,RX81,6,0.0,0.0,7.0,80.341492931939,babble-reversed_n13_p229-five-p318-two-p307-eight-p268-three-p248-four-p245-one.wav,4,RX81,5,0.0,0.0,6.0,89.313683184021,mgb_normalisation,89.31368318402099,90.34149293193902,1,4.0,False,1.937479019165039
,2024-07-17 16:18:22,sub_113,3,distance,cathedral,spatial_unmasking,2,71,0,0,_two_,talker-p245_sex-f_text-_two_.wav,p245,f,5,25,6.0,7.0,RX81,6,0.0,0.0,7.0,81.341492931939,babble-reversed_n13_p307-two-p229-one-p256-five-p248-nine-p284-three-p268-eight.wav,4,RX81,5,0.0,0.0,6.0,89.313683184021,mgb_normalisation,89.31368318402099,90.34149293193902,2,2.0,True,1.0624265670776367
,2024-07-17 16:18:26,sub_113,3,distance,cathedral,spatial_unmasking,2,72,0,0,_four_,talker-p245_sex-f_text-_four_.wav,p245,f,5,26,6.0,7.0,RX81,6,0.0,0.0,7.0,81.34149293193902,babble-reversed_n13_p307-four-p318-three-p256-eight-p284-two-p245-nine-p248-five.wav,4,RX81,5,0.0,0.0,6.0,89.31368318402099,mgb_normalisation,89.31368318402099,90.34149293193902,4,8.0,False,1.3124096393585205
,2024-07-17 16:18:29,sub_113,3,distance,cathedral,spatial_unmasking,2,73,0,0,_three_,talker-p245_sex-f_text-_three_.wav,p245,f,5,27,6.0,7.0,RX81,6,0.0,0.0,7.0,82.34149293193902,babble-reversed_n13_p229-eight-p256-nine-p318-four-p245-three-p268-five-p284-two.wav,4,RX81,5,0.0,0.0,6.0,89.31368318402099,mgb_normalisation,89.31368318402099,90.34149293193902,3,3.0,True,0.93749737739563
,2024-07-17 16:18:33,sub_113,3,distance,cathedral,spatial_unmasking,2,74,0,0,_three_,talker-p245_sex-f_text-_three_.wav,p245,f,5,28,6.0,7.0,RX81,6,0.0,0.0,7.0,82.34149293193902,babble-reversed_n13_p318-nine-p307-eight-p229-two-p284-one-p248-three-p245-five.wav,4,RX81,5,0.0,0.0,6.0,89.31368318402099,mgb_normalisation,89.31368318402099,90.34149293193902,3,3.0,True,1.250201940536499
,2024-07-17 16:18:36,sub_113,3,distance,cathedral,spatial_unmasking,2,75,0,0,_two_,talker-p245_sex-f_text-_two_.wav,p245,f,5,29,6.0,7.0,RX81,6,0.0,0.0,7.0,81.341492931939,babble-reversed_n13_p256-three-p318-two-p229-nine-p248-four-p284-one-p268-eight.wav,4,RX81,5,0.0,0.0,6.0,89.31368318402099,mgb_normalisation,89.31368318402099,90.34149293193902,2,2.0,True,0.9374346733093262
,2024-07-17 16:18:40,sub_113,3,distance,cathedral,spatial_unmasking,2,76,0,0,_eight_,talker-p245_sex-f_text-_eight_.wav,p245,f,5,30,6.0,7.0,RX81,6,0.0,0.0,7.0,81.34149293193902,babble-reversed_n13_p318-five-p229-four-p256-eight-p284-one-p245-three-p248-two.wav,4,RX81,5,0.0,0.0,6.0,89.31368318402099,mgb_normalisation,89.31368318402099,90.34149293193902,8,8.0,True,1.124921798706055
,2024-07-17 16:18:43,sub_113,3,distance,cathedral,spatial_unmasking,2,77,0,0,_three_,talker-p245_sex-f_text-_three_.wav,p245,f,5,31,6.0,7.0,RX81,6,0.0,0.0,7.0,80.34149293193903,babble-reversed_n13_p229-five-p318-two-p307-eight-p268-three-p248-four-p245-one.wav,4,RX81,5,0.0,0.0,6.0,89.313683184021,mgb_normalisation,89.31368318402099,90.34149293193902,3,3.0,True,1.0624148845672607
,2024-07-17 16:18:47,sub_113,3,distance,cathedral,spatial_unmasking,2,78,0,0,_one_,talker-p245_sex-f_text-_one_.wav,p245,f,5,32,6.0,7.0,RX81,6,0.0,0.0,7.0,80.341492931939,babble-reversed_n13_p256-five-p307-nine-p318-three-p284-eight-p268-one-p248-two.wav,4,RX81,5,0.0,0.0,6.0,89.31368318402099,mgb_normalisation,89.31368318402099,90.34149293193902,1,8.0,False,1.8119828701019287
,2024-07-17 16:18:51,sub_113,3,distance,cathedral,spatial_unmasking,2,79,0,0,_nine_,talker-p245_sex-f_text-_nine_.wav,p245,f,5,33,6.0,7.0,RX81,6,0.0,0.0,7.0,81.34149293193902,babble-reversed_n13_p256-four-p229-eight-p307-five-p248-three-p245-one-p284-two.wav,4,RX81,5,0.0,0.0,6.0,89.31368318402099,mgb_normalisation,89.31368318402099,90.34149293193902,9,9.0,True,0.999929904937744
,2024-07-17 16:18:54,sub_113,3,distance,cathedral,spatial_unmasking,2,80,0,0,_four_,talker-p245_sex-f_text-_four_.wav,p245,f,5,34,6.0,7.0,RX81,6,0.0,0.0,7.0,81.34149293193902,babble-reversed_n13_p229-three-p307-one-p318-two-p245-eight-p268-five-p284-four.wav,4,RX81,5,0.0,0.0,6.0,89.31368318402099,mgb_normalisation,89.31368318402099,90.34149293193902,4,4.0,True,1.000131607055664
,2024-07-17 16:18:58,sub_113,3,distance,cathedral,spatial_unmasking,2,81,0,0,_eight_,talker-p245_sex-f_text-_eight_.wav,p245,f,5,35,6.0,7.0,RX81,6,0.0,0.0,7.0,80.34149293193903,babble-reversed_n13_p318-nine-p256-five-p307-eight-p268-three-p248-one-p245-four.wav,4,RX81,5,0.0,0.0,6.0,89.31368318402099,mgb_normalisation,89.31368318402099,90.34149293193902,8,3.0,False,1.12422776222229
,2024-07-17 16:19:01,sub_113,3,distance,cathedral,spatial_unmasking,2,82,0,0,_one_,talker-p245_sex-f_text-_one_.wav,p245,f,5,36,6.0,7.0,RX81,6,0.0,0.0,7.0,81.341492931939,babble-reversed_n13_p256-nine-p307-four-p229-one-p284-three-p248-two-p245-five.wav,4,RX81,5,0.0,0.0,6.0,89.31368318402099,mgb_normalisation,89.31368318402099,90.34149293193902,1,8.0,False,1.1249208450317385
,2024-07-17 16:19:05,sub_113,3,distance,cathedral,spatial_unmasking,2,83,0,0,_five_,talker-p245_sex-f_text-_five_.wav,p245,f,5,37,6.0,7.0,RX81,6,0.0,0.0,7.0,82.34149293193902,babble-reversed_n13_p307-two-p229-one-p256-five-p248-nine-p284-three-p268-eight.wav,4,RX81,5,0.0,0.0,6.0,89.313683184021,mgb_normalisation,89.31368318402099,90.34149293193902,5,9.0,False,1.0624334812164309
,2024-07-17 16:19:09,sub_113,3,distance,cathedral,spatial_unmasking,2,84,0,0,_eight_,talker-p245_sex-f_text-_eight_.wav,p245,f,5,38,6.0,7.0,RX81,6,0.0,0.0,7.0,83.34149293193902,babble-reversed_n13_p229-two-p256-three-p318-eight-p284-five-p268-four-p245-one.wav,4,RX81,5,0.0,0.0,6.0,89.31368318402099,mgb_normalisation,89.31368318402099,90.34149293193902,8,6.0,False,2.0633983612060547
,2024-07-17 16:19:14,sub_113,3,distance,cathedral,spatial_unmasking,2,85,0,0,_one_,talker-p245_sex-f_text-_one_.wav,p245,f,5,39,6.0,7.0,RX81,6,0.0,0.0,7.0,84.341492931939,babble-reversed_n13_p229-five-p318-two-p307-eight-p268-three-p248-four-p245-one.wav,4,RX81,5,0.0,0.0,6.0,89.313683184021,mgb_normalisation,89.31368318402099,90.34149293193902,1,9.0,False,2.18758511543274
,2024-07-17 16:19:18,sub_113,3,distance,cathedral,spatial_unmasking,2,86,0,0,_four_,talker-p245_sex-f_text-_four_.wav,p245,f,5,40,6.0,7.0,RX81,6,0.0,0.0,7.0,85.34149293193903,babble-reversed_n13_p229-nine-p318-one-p307-two-p248-eight-p245-five-p284-four.wav,4,RX81,5,0.0,0.0,6.0,89.31368318402099,mgb_normalisation,89.31368318402099,90.34149293193902,4,4.0,True,1.932976007461548
,2024-07-17 16:19:22,sub_113,3,distance,cathedral,spatial_unmasking,2,87,0,0,_two_,talker-p245_sex-f_text-_two_.wav,p245,f,5,41,6.0,7.0,RX81,6,0.0,0.0,7.0,85.341492931939,babble-reversed_n13_p256-five-p307-nine-p318-three-p284-eight-p268-one-p248-two.wav,4,RX81,5,0.0,0.0,6.0,89.31368318402099,mgb_normalisation,89.31368318402099,90.34149293193902,2,2.0,True,0.999929666519165
,2024-07-17 16:19:25,sub_113,3,distance,cathedral,spatial_unmasking,2,88,0,0,_two_,talker-p245_sex-f_text-_two_.wav,p245,f,5,42,6.0,7.0,RX81,6,0.0,0.0,7.0,84.341492931939,babble-reversed_n13_p229-three-p256-one-p307-two-p284-eight-p268-five-p248-nine.wav,4,RX81,5,0.0,0.0,6.0,89.31368318402099,mgb_normalisation,89.31368318402099,90.34149293193902,2,2.0,True,0.9999306201934814
,2024-07-17 16:19:28,sub_113,3,distance,cathedral,spatial_unmasking,2,89,0,0,_three_,talker-p245_sex-f_text-_three_.wav,p245,f,5,43,6.0,7.0,RX81,6,0.0,0.0,7.0,84.34149293193903,babble-reversed_n13_p229-five-p318-two-p307-eight-p268-three-p248-four-p245-one.wav,4,RX81,5,0.0,0.0,6.0,89.313683184021,mgb_normalisation,89.31368318402099,90.34149293193902,3,3.0,True,0.934791088104248
,2024-07-17 16:19:32,sub_113,3,distance,cathedral,spatial_unmasking,2,90,0,0,_five_,talker-p245_sex-f_text-_five_.wav,p245,f,5,44,6.0,7.0,RX81,6,0.0,0.0,7.0,83.34149293193902,babble-reversed_n13_p307-five-p229-two-p318-four-p248-three-p245-nine-p268-eight.wav,4,RX81,5,0.0,0.0,6.0,89.31368318402099,mgb_normalisation,89.31368318402099,90.34149293193902,5,5.0,True,1.4998321533203125
,2024-07-17 16:19:36,sub_113,3,distance,cathedral,spatial_unmasking,2,91,0,0,_four_,talker-p245_sex-f_text-_four_.wav,p245,f,5,45,6.0,7.0,RX81,6,0.0,0.0,7.0,83.34149293193903,babble-reversed_n13_p256-four-p307-eight-p318-two-p248-three-p284-nine-p268-one.wav,4,RX81,5,0.0,0.0,6.0,89.313683184021,mgb_normalisation,89.31368318402099,90.34149293193902,4,8.0,False,1.4374001026153564
,2024-07-17 16:19:39,sub_113,3,distance,cathedral,spatial_unmasking,2,92,0,0,_two_,talker-p245_sex-f_text-_two_.wav,p245,f,5,46,6.0,7.0,RX81,6,0.0,0.0,7.0,84.341492931939,babble-reversed_n13_p318-five-p256-nine-p307-eight-p248-two-p245-four-p284-three.wav,4,RX81,5,0.0,0.0,6.0,89.31368318402099,mgb_normalisation,89.31368318402099,90.34149293193902,2,2.0,True,0.9999322891235352
,2024-07-17 16:19:49,sub_113,3,distance,cathedral,spatial_unmasking,2,93,0,0,_eight_,talker-p245_sex-f_text-_eight_.wav,p245,f,5,47,6.0,7.0,RX81,6,0.0,0.0,7.0,84.341492931939,babble-reversed_n13_p256-eight-p318-five-p307-four-p245-three-p268-one-p284-nine.wav,4,RX81,5,0.0,0.0,6.0,89.31368318402099,mgb_normalisation,89.31368318402099,90.34149293193902,8,8.0,True,6.687967300415039
,2024-07-17 16:21:29,sub_113,3,distance,cathedral,spatial_unmasking,3,94,0,0,_four_,talker-p245_sex-f_text-_four_.wav,p245,f,5,1,12.0,7.0,RX81,6,0.0,0.0,7.0,92.34149293193904,babble-reversed_n13_p229-five-p256-three-p318-nine-p248-two-p284-four-p268-one.wav,10,RX81,11,0.0,0.0,12.0,93.00003341222718,mgb_normalisation,93.00003341222715,90.34149293193902,4,4.0,True,1.175062656402588
,2024-07-17 16:21:33,sub_113,3,distance,cathedral,spatial_unmasking,3,95,0,0,_three_,talker-p245_sex-f_text-_three_.wav,p245,f,5,2,12.0,7.0,RX81,6,0.0,0.0,7.0,88.34149293193903,babble-reversed_n13_p256-eight-p318-two-p307-five-p245-four-p268-nine-p284-one.wav,10,RX81,11,0.0,0.0,12.0,93.00003341222718,mgb_normalisation,93.00003341222715,90.34149293193902,3,3.0,True,0.999931573867798
,2024-07-17 16:21:36,sub_113,3,distance,cathedral,spatial_unmasking,3,96,0,0,_three_,talker-p245_sex-f_text-_three_.wav,p245,f,5,3,12.0,7.0,RX81,6,0.0,0.0,7.0,84.34149293193903,babble-reversed_n13_p307-five-p229-three-p318-nine-p245-four-p268-eight-p284-two.wav,10,RX81,11,0.0,0.0,12.0,93.00003341222715,mgb_normalisation,93.00003341222715,90.34149293193902,3,3.0,True,1.0624268054962158
,2024-07-17 16:21:40,sub_113,3,distance,cathedral,spatial_unmasking,3,97,0,0,_nine_,talker-p245_sex-f_text-_nine_.wav,p245,f,5,4,12.0,7.0,RX81,6,0.0,0.0,7.0,80.34149293193903,babble-reversed_n13_p256-three-p318-one-p307-two-p284-nine-p268-four-p245-eight.wav,10,RX81,11,0.0,0.0,12.0,93.00003341222718,mgb_normalisation,93.00003341222715,90.34149293193902,9,4.0,False,1.9979243278503416
,2024-07-17 16:21:44,sub_113,3,distance,cathedral,spatial_unmasking,3,98,0,0,_five_,talker-p245_sex-f_text-_five_.wav,p245,f,5,5,12.0,7.0,RX81,6,0.0,0.0,7.0,82.34149293193902,babble-reversed_n13_p229-three-p256-nine-p318-five-p248-one-p245-eight-p284-two.wav,10,RX81,11,0.0,0.0,12.0,93.00003341222718,mgb_normalisation,93.00003341222715,90.34149293193902,5,5.0,True,0.9864044189453124
,2024-07-17 16:21:47,sub_113,3,distance,cathedral,spatial_unmasking,3,99,0,0,_five_,talker-p245_sex-f_text-_five_.wav,p245,f,5,6,12.0,7.0,RX81,6,0.0,0.0,7.0,82.34149293193902,babble-reversed_n13_p229-nine-p307-five-p256-two-p248-three-p245-one-p268-eight.wav,10,RX81,11,0.0,0.0,12.0,93.00003341222715,mgb_normalisation,93.00003341222715,90.34149293193902,5,5.0,True,1.0624268054962158
,2024-07-17 16:21:51,sub_113,3,distance,cathedral,spatial_unmasking,3,100,0,0,_five_,talker-p245_sex-f_text-_five_.wav,p245,f,5,7,12.0,7.0,RX81,6,0.0,0.0,7.0,80.34149293193903,babble-reversed_n13_p229-nine-p307-five-p256-two-p248-three-p245-one-p268-eight.wav,10,RX81,11,0.0,0.0,12.0,93.00003341222715,mgb_normalisation,93.00003341222715,90.34149293193902,5,5.0,True,1.187417984008789
,2024-07-17 16:21:54,sub_113,3,distance,cathedral,spatial_unmasking,3,101,0,0,_one_,talker-p245_sex-f_text-_one_.wav,p245,f,5,8,12.0,7.0,RX81,6,0.0,0.0,7.0,80.341492931939,babble-reversed_n13_p318-one-p307-two-p256-eight-p284-three-p248-five-p245-four.wav,10,RX81,11,0.0,0.0,12.0,93.00003341222718,mgb_normalisation,93.00003341222715,90.34149293193902,1,3.0,False,1.3131635189056396
,2024-07-17 16:21:58,sub_113,3,distance,cathedral,spatial_unmasking,3,102,0,0,_five_,talker-p245_sex-f_text-_five_.wav,p245,f,5,9,12.0,7.0,RX81,6,0.0,0.0,7.0,81.34149293193902,babble-reversed_n13_p318-nine-p307-eight-p229-two-p284-one-p248-three-p245-five.wav,10,RX81,11,0.0,0.0,12.0,93.00003341222718,mgb_normalisation,93.00003341222715,90.34149293193902,5,5.0,True,1.0598981380462646
,2024-07-17 16:22:01,sub_113,3,distance,cathedral,spatial_unmasking,3,103,0,0,_three_,talker-p245_sex-f_text-_three_.wav,p245,f,5,10,12.0,7.0,RX81,6,0.0,0.0,7.0,81.34149293193902,babble-reversed_n13_p256-eight-p318-two-p307-five-p245-four-p268-nine-p284-one.wav,10,RX81,11,0.0,0.0,12.0,93.00003341222718,mgb_normalisation,93.00003341222715,90.34149293193902,3,3.0,True,1.187417984008789
,2024-07-17 16:22:05,sub_113,3,distance,cathedral,spatial_unmasking,3,104,0,0,_six_,talker-p245_sex-f_text-_six_.wav,p245,f,5,11,12.0,7.0,RX81,6,0.0,0.0,7.0,80.341492931939,babble-reversed_n13_p307-five-p229-two-p318-four-p248-three-p245-nine-p268-eight.wav,10,RX81,11,0.0,0.0,12.0,93.00003341222715,mgb_normalisation,93.00003341222715,90.34149293193902,6,6.0,True,1.0624253749847412
,2024-07-17 16:22:08,sub_113,3,distance,cathedral,spatial_unmasking,3,105,0,0,_two_,talker-p245_sex-f_text-_two_.wav,p245,f,5,12,12.0,7.0,RX81,6,0.0,0.0,7.0,80.341492931939,babble-reversed_n13_p229-one-p318-nine-p256-four-p284-eight-p268-five-p245-two.wav,10,RX81,11,0.0,0.0,12.0,93.00003341222715,mgb_normalisation,93.00003341222715,90.34149293193902,2,2.0,True,0.9976916313171388
,2024-07-17 16:22:12,sub_113,3,distance,cathedral,spatial_unmasking,3,106,0,0,_two_,talker-p245_sex-f_text-_two_.wav,p245,f,5,13,12.0,7.0,RX81,6,0.0,0.0,7.0,79.341492931939,babble-reversed_n13_p307-two-p256-four-p318-three-p284-eight-p248-five-p245-nine.wav,10,RX81,11,0.0,0.0,12.0,93.00003341222718,mgb_normalisation,93.00003341222715,90.34149293193902,2,3.0,False,1.2499139308929443
,2024-07-17 16:22:17,sub_113,3,distance,cathedral,spatial_unmasking,3,107,0,0,_nine_,talker-p245_sex-f_text-_nine_.wav,p245,f,5,14,12.0,7.0,RX81,6,0.0,0.0,7.0,80.34149293193903,babble-reversed_n13_p318-five-p229-three-p256-four-p268-eight-p248-one-p245-nine.wav,10,RX81,11,0.0,0.0,12.0,93.00003341222718,mgb_normalisation,93.00003341222715,90.34149293193902,9,4.0,False,2.124851703643799
,2024-07-17 16:22:20,sub_113,3,distance,cathedral,spatial_unmasking,3,108,0,0,_three_,talker-p245_sex-f_text-_three_.wav,p245,f,5,15,12.0,7.0,RX81,6,0.0,0.0,7.0,81.34149293193902,babble-reversed_n13_p318-five-p256-nine-p307-eight-p248-two-p245-four-p284-three.wav,10,RX81,11,0.0,0.0,12.0,93.00003341222718,mgb_normalisation,93.00003341222715,90.34149293193902,3,3.0,True,0.9999303817749025
,2024-07-17 16:22:23,sub_113,3,distance,cathedral,spatial_unmasking,3,109,0,0,_nine_,talker-p245_sex-f_text-_nine_.wav,p245,f,5,16,12.0,7.0,RX81,6,0.0,0.0,7.0,81.34149293193902,babble-reversed_n13_p229-two-p256-three-p318-eight-p284-five-p268-four-p245-one.wav,10,RX81,11,0.0,0.0,12.0,93.00003341222718,mgb_normalisation,93.00003341222715,90.34149293193902,9,9.0,True,0.997950315475464
,2024-07-17 16:22:27,sub_113,3,distance,cathedral,spatial_unmasking,3,110,0,0,_nine_,talker-p245_sex-f_text-_nine_.wav,p245,f,5,17,12.0,7.0,RX81,6,0.0,0.0,7.0,80.34149293193903,babble-reversed_n13_p318-nine-p256-five-p307-eight-p268-three-p248-one-p245-four.wav,10,RX81,11,0.0,0.0,12.0,93.00003341222718,mgb_normalisation,93.00003341222715,90.34149293193902,9,9.0,True,0.9999306201934814
,2024-07-17 16:22:31,sub_113,3,distance,cathedral,spatial_unmasking,3,111,0,0,_four_,talker-p245_sex-f_text-_four_.wav,p245,f,5,18,12.0,7.0,RX81,6,0.0,0.0,7.0,80.34149293193903,babble-reversed_n13_p256-three-p318-two-p229-nine-p248-four-p284-one-p268-eight.wav,10,RX81,11,0.0,0.0,12.0,93.00003341222715,mgb_normalisation,93.00003341222715,90.34149293193902,4,8.0,False,2.062356948852539
,2024-07-17 16:22:36,sub_113,3,distance,cathedral,spatial_unmasking,3,112,0,0,_one_,talker-p245_sex-f_text-_one_.wav,p245,f,5,19,12.0,7.0,RX81,6,0.0,0.0,7.0,81.341492931939,babble-reversed_n13_p318-five-p256-nine-p307-eight-p248-two-p245-four-p284-three.wav,10,RX81,11,0.0,0.0,12.0,93.00003341222718,mgb_normalisation,93.00003341222715,90.34149293193902,1,5.0,False,2.552232503890991
,2024-07-17 16:22:39,sub_113,3,distance,cathedral,spatial_unmasking,3,113,0,0,_five_,talker-p245_sex-f_text-_five_.wav,p245,f,5,20,12.0,7.0,RX81,6,0.0,0.0,7.0,82.34149293193902,babble-reversed_n13_p318-five-p229-four-p256-eight-p284-one-p245-three-p248-two.wav,10,RX81,11,0.0,0.0,12.0,93.00003341222718,mgb_normalisation,93.00003341222715,90.34149293193902,5,5.0,True,0.9379351139068604
,2024-07-17 16:22:43,sub_113,3,distance,cathedral,spatial_unmasking,3,114,0,0,_one_,talker-p245_sex-f_text-_one_.wav,p245,f,5,21,12.0,7.0,RX81,6,0.0,0.0,7.0,82.341492931939,babble-reversed_n13_p256-eight-p318-five-p307-four-p245-three-p268-one-p284-nine.wav,10,RX81,11,0.0,0.0,12.0,93.00003341222715,mgb_normalisation,93.00003341222715,90.34149293193902,1,1.0,True,0.9374346733093262
,2024-07-17 16:22:46,sub_113,3,distance,cathedral,spatial_unmasking,3,115,0,0,_one_,talker-p245_sex-f_text-_one_.wav,p245,f,5,22,12.0,7.0,RX81,6,0.0,0.0,7.0,81.341492931939,babble-reversed_n13_p307-one-p318-five-p229-four-p268-eight-p284-two-p245-three.wav,10,RX81,11,0.0,0.0,12.0,93.00003341222715,mgb_normalisation,93.00003341222715,90.34149293193902,1,1.0,True,0.9374353885650636
,2024-07-17 16:22:49,sub_113,3,distance,cathedral,spatial_unmasking,3,116,0,0,_six_,talker-p245_sex-f_text-_six_.wav,p245,f,5,23,12.0,7.0,RX81,6,0.0,0.0,7.0,81.34149293193902,babble-reversed_n13_p307-five-p229-three-p318-nine-p245-four-p268-eight-p284-two.wav,10,RX81,11,0.0,0.0,12.0,93.00003341222715,mgb_normalisation,93.00003341222715,90.34149293193902,6,6.0,True,0.9398887157440186
,2024-07-17 16:22:53,sub_113,3,distance,cathedral,spatial_unmasking,3,117,0,0,_three_,talker-p245_sex-f_text-_three_.wav,p245,f,5,24,12.0,7.0,RX81,6,0.0,0.0,7.0,80.34149293193903,babble-reversed_n13_p229-eight-p256-nine-p318-four-p245-three-p268-five-p284-two.wav,10,RX81,11,0.0,0.0,12.0,93.00003341222715,mgb_normalisation,93.00003341222715,90.34149293193902,3,3.0,True,0.87493896484375
,2024-07-17 16:22:56,sub_113,3,distance,cathedral,spatial_unmasking,3,118,0,0,_five_,talker-p245_sex-f_text-_five_.wav,p245,f,5,25,12.0,7.0,RX81,6,0.0,0.0,7.0,80.34149293193903,babble-reversed_n13_p229-two-p307-five-p318-four-p284-one-p248-nine-p268-eight.wav,10,RX81,11,0.0,0.0,12.0,93.00003341222718,mgb_normalisation,93.00003341222715,90.34149293193902,5,5.0,True,0.8124434947967529
,2024-07-17 16:23:00,sub_113,3,distance,cathedral,spatial_unmasking,3,119,0,0,_eight_,talker-p245_sex-f_text-_eight_.wav,p245,f,5,26,12.0,7.0,RX81,6,0.0,0.0,7.0,79.34149293193902,babble-reversed_n13_p256-nine-p307-four-p229-one-p284-three-p248-two-p245-five.wav,10,RX81,11,0.0,0.0,12.0,93.00003341222718,mgb_normalisation,93.00003341222715,90.34149293193902,8,3.0,False,1.185699224472046
,2024-07-17 16:23:03,sub_113,3,distance,cathedral,spatial_unmasking,3,120,0,0,_five_,talker-p245_sex-f_text-_five_.wav,p245,f,5,27,12.0,7.0,RX81,6,0.0,0.0,7.0,80.34149293193903,babble-reversed_n13_p256-five-p307-nine-p318-three-p284-eight-p268-one-p248-two.wav,10,RX81,11,0.0,0.0,12.0,93.00003341222715,mgb_normalisation,93.00003341222715,90.34149293193902,5,5.0,True,0.8749380111694336
,2024-07-17 16:23:06,sub_113,3,distance,cathedral,spatial_unmasking,3,121,0,0,_six_,talker-p245_sex-f_text-_six_.wav,p245,f,5,28,12.0,7.0,RX81,6,0.0,0.0,7.0,80.341492931939,babble-reversed_n13_p318-four-p256-five-p229-three-p284-one-p245-eight-p248-nine.wav,10,RX81,11,0.0,0.0,12.0,93.00003341222718,mgb_normalisation,93.00003341222715,90.34149293193902,6,6.0,True,0.8749361038208008
,2024-07-17 16:23:10,sub_113,3,distance,cathedral,spatial_unmasking,3,122,0,0,_nine_,talker-p245_sex-f_text-_nine_.wav,p245,f,5,29,12.0,7.0,RX81,6,0.0,0.0,7.0,79.34149293193902,babble-reversed_n13_p256-five-p307-nine-p318-three-p284-eight-p268-one-p248-two.wav,10,RX81,11,0.0,0.0,12.0,93.00003341222715,mgb_normalisation,93.00003341222715,90.34149293193902,9,8.0,False,1.6736836433410645
,2024-07-17 16:23:14,sub_113,3,distance,cathedral,spatial_unmasking,3,123,0,0,_four_,talker-p245_sex-f_text-_four_.wav,p245,f,5,30,12.0,7.0,RX81,6,0.0,0.0,7.0,80.34149293193903,babble-reversed_n13_p307-two-p229-one-p256-five-p248-nine-p284-three-p268-eight.wav,10,RX81,11,0.0,0.0,12.0,93.00003341222718,mgb_normalisation,93.00003341222715,90.34149293193902,4,4.0,True,1.003385305404663
,2024-07-17 16:23:26,sub_113,3,distance,cathedral,spatial_unmasking,3,124,0,0,_eight_,talker-p245_sex-f_text-_eight_.wav,p245,f,5,31,12.0,7.0,RX81,6,0.0,0.0,7.0,80.34149293193903,babble-reversed_n13_p229-two-p256-three-p318-eight-p284-five-p268-four-p245-one.wav,10,RX81,11,0.0,0.0,12.0,93.00003341222718,mgb_normalisation,93.00003341222715,90.34149293193902,8,8.0,True,10.00157618522644
,2024-07-17 16:24:40,sub_113,3,distance,cathedral,spatial_unmasking,4,125,0,0,_two_,talker-p245_sex-f_text-_two_.wav,p245,f,5,1,8.0,7.0,RX81,6,0.0,0.0,7.0,92.341492931939,babble-reversed_n13_p307-nine-p229-one-p256-eight-p248-four-p284-two-p268-three.wav,6,RX81,7,0.0,0.0,8.0,91.58892582949888,mgb_normalisation,91.58892582949886,90.34149293193902,2,2.0,True,0.8124432563781738
,2024-07-17 16:24:44,sub_113,3,distance,cathedral,spatial_unmasking,4,126,0,0,_five_,talker-p245_sex-f_text-_five_.wav,p245,f,5,2,8.0,7.0,RX81,6,0.0,0.0,7.0,88.34149293193902,babble-reversed_n13_p256-four-p229-two-p318-five-p268-one-p248-eight-p245-three.wav,6,RX81,7,0.0,0.0,8.0,91.58892582949886,mgb_normalisation,91.58892582949886,90.34149293193902,5,5.0,True,1.0591089725494385
,2024-07-17 16:24:47,sub_113,3,distance,cathedral,spatial_unmasking,4,127,0,0,_three_,talker-p245_sex-f_text-_three_.wav,p245,f,5,3,8.0,7.0,RX81,6,0.0,0.0,7.0,84.34149293193903,babble-reversed_n13_p229-two-p318-eight-p256-three-p268-one-p248-nine-p284-five.wav,6,RX81,7,0.0,0.0,8.0,91.58892582949886,mgb_normalisation,91.58892582949886,90.34149293193902,3,3.0,True,1.124922513961792
,2024-07-17 16:24:53,sub_113,3,distance,cathedral,spatial_unmasking,4,128,0,0,_six_,talker-p245_sex-f_text-_six_.wav,p245,f,5,4,8.0,7.0,RX81,6,0.0,0.0,7.0,80.341492931939,babble-reversed_n13_p256-eight-p318-two-p307-five-p245-four-p268-nine-p284-one.wav,6,RX81,7,0.0,0.0,8.0,91.58892582949888,mgb_normalisation,91.58892582949886,90.34149293193902,6,6.0,True,2.7498080730438232
,2024-07-17 16:24:59,sub_113,3,distance,cathedral,spatial_unmasking,4,129,0,0,_four_,talker-p245_sex-f_text-_four_.wav,p245,f,5,5,8.0,7.0,RX81,6,0.0,0.0,7.0,76.34149293193903,babble-reversed_n13_p229-five-p256-three-p318-nine-p248-two-p284-four-p268-one.wav,6,RX81,7,0.0,0.0,8.0,91.58892582949888,mgb_normalisation,91.58892582949886,90.34149293193902,4,5.0,False,3.750199556350708
,2024-07-17 16:25:02,sub_113,3,distance,cathedral,spatial_unmasking,4,130,0,0,_five_,talker-p245_sex-f_text-_five_.wav,p245,f,5,6,8.0,7.0,RX81,6,0.0,0.0,7.0,78.34149293193902,babble-reversed_n13_p307-five-p229-three-p318-nine-p245-four-p268-eight-p284-two.wav,6,RX81,7,0.0,0.0,8.0,91.58892582949886,mgb_normalisation,91.58892582949886,90.34149293193902,5,5.0,True,0.8749420642852783
,2024-07-17 16:25:06,sub_113,3,distance,cathedral,spatial_unmasking,4,131,0,0,_nine_,talker-p245_sex-f_text-_nine_.wav,p245,f,5,7,8.0,7.0,RX81,6,0.0,0.0,7.0,78.34149293193902,babble-reversed_n13_p256-five-p229-one-p318-three-p248-nine-p284-eight-p268-two.wav,6,RX81,7,0.0,0.0,8.0,91.58892582949888,mgb_normalisation,91.58892582949886,90.34149293193902,9,8.0,False,1.5623905658721924
,2024-07-17 16:25:09,sub_113,3,distance,cathedral,spatial_unmasking,4,132,0,0,_five_,talker-p245_sex-f_text-_five_.wav,p245,f,5,8,8.0,7.0,RX81,6,0.0,0.0,7.0,80.34149293193903,babble-reversed_n13_p229-three-p256-one-p307-two-p284-eight-p268-five-p248-nine.wav,6,RX81,7,0.0,0.0,8.0,91.58892582949888,mgb_normalisation,91.58892582949886,90.34149293193902,5,5.0,True,0.938666582107544
,2024-07-17 16:25:14,sub_113,3,distance,cathedral,spatial_unmasking,4,133,0,0,_three_,talker-p245_sex-f_text-_three_.wav,p245,f,5,9,8.0,7.0,RX81,6,0.0,0.0,7.0,80.34149293193903,babble-reversed_n13_p318-five-p256-nine-p307-eight-p248-two-p245-four-p284-three.wav,6,RX81,7,0.0,0.0,8.0,91.58892582949886,mgb_normalisation,91.58892582949886,90.34149293193902,3,3.0,True,1.9380230903625488
,2024-07-17 16:25:18,sub_113,3,distance,cathedral,spatial_unmasking,4,134,0,0,_five_,talker-p245_sex-f_text-_five_.wav,p245,f,5,10,8.0,7.0,RX81,6,0.0,0.0,7.0,78.34149293193902,babble-reversed_n13_p307-one-p318-five-p229-four-p268-eight-p284-two-p245-three.wav,6,RX81,7,0.0,0.0,8.0,91.58892582949886,mgb_normalisation,91.58892582949886,90.34149293193902,5,5.0,True,2.31369423866272
,2024-07-17 16:25:23,sub_113,3,distance,cathedral,spatial_unmasking,4,135,0,0,_one_,talker-p245_sex-f_text-_one_.wav,p245,f,5,11,8.0,7.0,RX81,6,0.0,0.0,7.0,78.341492931939,babble-reversed_n13_p229-two-p256-three-p318-eight-p284-five-p268-four-p245-one.wav,6,RX81,7,0.0,0.0,8.0,91.58892582949888,mgb_normalisation,91.58892582949886,90.34149293193902,1,8.0,False,2.8124823570251465
,2024-07-17 16:25:30,sub_113,3,distance,cathedral,spatial_unmasking,4,136,0,0,_eight_,talker-p245_sex-f_text-_eight_.wav,p245,f,5,12,8.0,7.0,RX81,6,0.0,0.0,7.0,79.34149293193902,babble-reversed_n13_p229-five-p256-one-p318-three-p248-nine-p268-four-p284-eight.wav,6,RX81,7,0.0,0.0,8.0,91.58892582949886,mgb_normalisation,91.58892582949886,90.34149293193902,8,9.0,False,4.188507080078125
,2024-07-17 16:25:35,sub_113,3,distance,cathedral,spatial_unmasking,4,137,0,0,_two_,talker-p245_sex-f_text-_two_.wav,p245,f,5,13,8.0,7.0,RX81,6,0.0,0.0,7.0,80.341492931939,babble-reversed_n13_p318-nine-p307-eight-p229-two-p284-one-p248-three-p245-five.wav,6,RX81,7,0.0,0.0,8.0,91.58892582949886,mgb_normalisation,91.58892582949886,90.34149293193902,2,2.0,True,2.687175750732422
,2024-07-17 16:25:42,sub_113,3,distance,cathedral,spatial_unmasking,4,138,0,0,_nine_,talker-p245_sex-f_text-_nine_.wav,p245,f,5,14,8.0,7.0,RX81,6,0.0,0.0,7.0,80.34149293193903,babble-reversed_n13_p256-two-p307-five-p318-nine-p248-eight-p245-four-p284-one.wav,6,RX81,7,0.0,0.0,8.0,91.58892582949888,mgb_normalisation,91.58892582949886,90.34149293193902,9,8.0,False,4.87454080581665
,2024-07-17 16:25:46,sub_113,3,distance,cathedral,spatial_unmasking,4,139,0,0,_nine_,talker-p245_sex-f_text-_nine_.wav,p245,f,5,15,8.0,7.0,RX81,6,0.0,0.0,7.0,81.34149293193902,babble-reversed_n13_p307-nine-p318-two-p256-one-p245-three-p268-four-p248-eight.wav,6,RX81,7,0.0,0.0,8.0,91.58892582949886,mgb_normalisation,91.58892582949886,90.34149293193902,9,9.0,True,1.6248633861541748
,2024-07-17 16:25:53,sub_113,3,distance,cathedral,spatial_unmasking,4,140,0,0,_four_,talker-p245_sex-f_text-_four_.wav,p245,f,5,16,8.0,7.0,RX81,6,0.0,0.0,7.0,81.34149293193902,babble-reversed_n13_p229-one-p318-nine-p256-four-p284-eight-p268-five-p245-two.wav,6,RX81,7,0.0,0.0,8.0,91.58892582949886,mgb_normalisation,91.58892582949886,90.34149293193902,4,6.0,False,4.492305755615234
,2024-07-17 16:25:57,sub_113,3,distance,cathedral,spatial_unmasking,4,141,0,0,_eight_,talker-p245_sex-f_text-_eight_.wav,p245,f,5,17,8.0,7.0,RX81,6,0.0,0.0,7.0,82.34149293193902,babble-reversed_n13_p318-five-p229-four-p256-eight-p284-one-p245-three-p248-two.wav,6,RX81,7,0.0,0.0,8.0,91.58892582949888,mgb_normalisation,91.58892582949886,90.34149293193902,8,8.0,True,1.0624876022338867
,2024-07-17 16:26:01,sub_113,3,distance,cathedral,spatial_unmasking,4,142,0,0,_six_,talker-p245_sex-f_text-_six_.wav,p245,f,5,18,8.0,7.0,RX81,6,0.0,0.0,7.0,82.34149293193902,babble-reversed_n13_p318-one-p307-two-p256-eight-p284-three-p248-five-p245-four.wav,6,RX81,7,0.0,0.0,8.0,91.58892582949888,mgb_normalisation,91.58892582949886,90.34149293193902,6,6.0,True,1.5009124279022217
,2024-07-17 16:26:04,sub_113,3,distance,cathedral,spatial_unmasking,4,143,0,0,_four_,talker-p245_sex-f_text-_four_.wav,p245,f,5,19,8.0,7.0,RX81,6,0.0,0.0,7.0,81.34149293193902,babble-reversed_n13_p229-five-p318-three-p307-two-p245-four-p284-nine-p248-eight.wav,6,RX81,7,0.0,0.0,8.0,91.58892582949886,mgb_normalisation,91.58892582949886,90.34149293193902,4,4.0,True,1.311962366104126
,2024-07-17 16:26:10,sub_113,3,distance,cathedral,spatial_unmasking,4,144,0,0,_nine_,talker-p245_sex-f_text-_nine_.wav,p245,f,5,20,8.0,7.0,RX81,6,0.0,0.0,7.0,81.34149293193902,babble-reversed_n13_p229-one-p318-eight-p256-three-p268-two-p245-five-p248-nine.wav,6,RX81,7,0.0,0.0,8.0,91.58892582949886,mgb_normalisation,91.58892582949886,90.34149293193902,9,3.0,False,2.8615872859954834
,2024-07-17 16:26:17,sub_113,3,distance,cathedral,spatial_unmasking,4,145,0,0,_nine_,talker-p245_sex-f_text-_nine_.wav,p245,f,5,21,8.0,7.0,RX81,6,0.0,0.0,7.0,82.34149293193902,babble-reversed_n13_p229-five-p256-three-p318-nine-p248-two-p284-four-p268-one.wav,6,RX81,7,0.0,0.0,8.0,91.58892582949888,mgb_normalisation,91.58892582949886,90.34149293193902,9,6.0,False,4.499272108078003
,2024-07-17 16:26:21,sub_113,3,distance,cathedral,spatial_unmasking,4,146,0,0,_two_,talker-p245_sex-f_text-_two_.wav,p245,f,5,22,8.0,7.0,RX81,6,0.0,0.0,7.0,83.34149293193902,babble-reversed_n13_p307-five-p229-two-p318-four-p248-three-p245-nine-p268-eight.wav,6,RX81,7,0.0,0.0,8.0,91.58892582949886,mgb_normalisation,91.58892582949886,90.34149293193902,2,2.0,True,1.7512881755828855
,2024-07-17 16:26:24,sub_113,3,distance,cathedral,spatial_unmasking,4,147,0,0,_eight_,talker-p245_sex-f_text-_eight_.wav,p245,f,5,23,8.0,7.0,RX81,6,0.0,0.0,7.0,83.34149293193902,babble-reversed_n13_p229-three-p307-one-p318-two-p245-eight-p268-five-p284-four.wav,6,RX81,7,0.0,0.0,8.0,91.58892582949888,mgb_normalisation,91.58892582949886,90.34149293193902,8,8.0,True,0.9950160980224608
,2024-07-17 16:26:27,sub_113,3,distance,cathedral,spatial_unmasking,4,148,0,0,_three_,talker-p245_sex-f_text-_three_.wav,p245,f,5,24,8.0,7.0,RX81,6,0.0,0.0,7.0,82.34149293193902,babble-reversed_n13_p307-nine-p229-one-p256-eight-p248-four-p284-two-p268-three.wav,6,RX81,7,0.0,0.0,8.0,91.58892582949888,mgb_normalisation,91.58892582949886,90.34149293193902,3,3.0,True,1.062427043914795
,2024-07-17 16:26:31,sub_113,3,distance,cathedral,spatial_unmasking,4,149,0,0,_nine_,talker-p245_sex-f_text-_nine_.wav,p245,f,5,25,8.0,7.0,RX81,6,0.0,0.0,7.0,82.34149293193902,babble-reversed_n13_p318-nine-p256-five-p307-eight-p268-three-p248-one-p245-four.wav,6,RX81,7,0.0,0.0,8.0,91.58892582949888,mgb_normalisation,91.58892582949886,90.34149293193902,9,9.0,True,1.4998953342437744
,2024-07-17 16:26:35,sub_113,3,distance,cathedral,spatial_unmasking,4,150,0,0,_two_,talker-p245_sex-f_text-_two_.wav,p245,f,5,26,8.0,7.0,RX81,6,0.0,0.0,7.0,81.341492931939,babble-reversed_n13_p229-three-p256-one-p307-two-p284-eight-p268-five-p248-nine.wav,6,RX81,7,0.0,0.0,8.0,91.58892582949888,mgb_normalisation,91.58892582949886,90.34149293193902,2,2.0,True,0.7992980480194092
,2024-07-17 16:26:38,sub_113,3,distance,cathedral,spatial_unmasking,4,151,0,0,_nine_,talker-p245_sex-f_text-_nine_.wav,p245,f,5,27,8.0,7.0,RX81,6,0.0,0.0,7.0,81.34149293193902,babble-reversed_n13_p229-two-p318-eight-p256-three-p268-one-p248-nine-p284-five.wav,6,RX81,7,0.0,0.0,8.0,91.58892582949886,mgb_normalisation,91.58892582949886,90.34149293193902,9,9.0,True,1.0623621940612793
,2024-07-17 16:26:43,sub_113,3,distance,cathedral,spatial_unmasking,4,152,0,0,_five_,talker-p245_sex-f_text-_five_.wav,p245,f,5,28,8.0,7.0,RX81,6,0.0,0.0,7.0,80.34149293193903,babble-reversed_n13_p256-three-p318-one-p307-two-p284-nine-p268-four-p245-eight.wav,6,RX81,7,0.0,0.0,8.0,91.58892582949888,mgb_normalisation,91.58892582949886,90.34149293193902,5,9.0,False,2.4373319149017334
,2024-07-17 16:26:47,sub_113,3,distance,cathedral,spatial_unmasking,4,153,0,0,_nine_,talker-p245_sex-f_text-_nine_.wav,p245,f,5,29,8.0,7.0,RX81,6,0.0,0.0,7.0,81.34149293193902,babble-reversed_n13_p229-two-p318-eight-p256-three-p268-one-p248-nine-p284-five.wav,6,RX81,7,0.0,0.0,8.0,91.58892582949886,mgb_normalisation,91.58892582949886,90.34149293193902,9,9.0,True,1.4374001026153564
,2024-07-17 16:26:50,sub_113,3,distance,cathedral,spatial_unmasking,4,154,0,0,_two_,talker-p245_sex-f_text-_two_.wav,p245,f,5,30,8.0,7.0,RX81,6,0.0,0.0,7.0,81.341492931939,babble-reversed_n13_p318-nine-p256-five-p307-eight-p268-three-p248-one-p245-four.wav,6,RX81,7,0.0,0.0,8.0,91.58892582949888,mgb_normalisation,91.58892582949886,90.34149293193902,2,2.0,True,0.8744971752166748
,2024-07-17 16:26:54,sub_113,3,distance,cathedral,spatial_unmasking,4,155,0,0,_nine_,talker-p245_sex-f_text-_nine_.wav,p245,f,5,31,8.0,7.0,RX81,6,0.0,0.0,7.0,80.34149293193903,babble-reversed_n13_p318-four-p256-five-p229-three-p284-one-p245-eight-p248-nine.wav,6,RX81,7,0.0,0.0,8.0,91.58892582949888,mgb_normalisation,91.58892582949886,90.34149293193902,9,9.0,True,1.309467077255249
,2024-07-17 16:26:57,sub_113,3,distance,cathedral,spatial_unmasking,4,156,0,0,_two_,talker-p245_sex-f_text-_two_.wav,p245,f,5,32,8.0,7.0,RX81,6,0.0,0.0,7.0,80.341492931939,babble-reversed_n13_p229-one-p318-eight-p256-three-p268-two-p245-five-p248-nine.wav,6,RX81,7,0.0,0.0,8.0,91.58892582949886,mgb_normalisation,91.58892582949886,90.34149293193902,2,2.0,True,0.9374346733093262
,2024-07-17 16:27:00,sub_113,3,distance,cathedral,spatial_unmasking,4,157,0,0,_five_,talker-p245_sex-f_text-_five_.wav,p245,f,5,33,8.0,7.0,RX81,6,0.0,0.0,7.0,79.34149293193902,babble-reversed_n13_p229-nine-p256-four-p318-three-p268-eight-p248-two-p284-five.wav,6,RX81,7,0.0,0.0,8.0,91.58892582949888,mgb_normalisation,91.58892582949886,90.34149293193902,5,5.0,True,0.7499501705169678
,2024-07-17 16:27:04,sub_113,3,distance,cathedral,spatial_unmasking,4,158,0,0,_eight_,talker-p245_sex-f_text-_eight_.wav,p245,f,5,34,8.0,7.0,RX81,6,0.0,0.0,7.0,79.34149293193902,babble-reversed_n13_p256-three-p318-one-p307-two-p284-nine-p268-four-p245-eight.wav,6,RX81,7,0.0,0.0,8.0,91.58892582949888,mgb_normalisation,91.58892582949886,90.34149293193902,8,8.0,True,1.1271367073059082
,2024-07-17 16:27:08,sub_113,3,distance,cathedral,spatial_unmasking,4,159,0,0,_eight_,talker-p245_sex-f_text-_eight_.wav,p245,f,5,35,8.0,7.0,RX81,6,0.0,0.0,7.0,78.34149293193902,babble-reversed_n13_p229-five-p256-three-p318-nine-p248-two-p284-four-p268-one.wav,6,RX81,7,0.0,0.0,8.0,91.58892582949888,mgb_normalisation,91.58892582949886,90.34149293193902,8,8.0,True,1.4998953342437744
,2024-07-17 16:27:11,sub_113,3,distance,cathedral,spatial_unmasking,4,160,0,0,_three_,talker-p245_sex-f_text-_three_.wav,p245,f,5,36,8.0,7.0,RX81,6,0.0,0.0,7.0,78.34149293193902,babble-reversed_n13_p318-one-p307-two-p256-eight-p284-three-p248-five-p245-four.wav,6,RX81,7,0.0,0.0,8.0,91.58892582949888,mgb_normalisation,91.58892582949886,90.34149293193902,3,3.0,True,1.062405347824097
,2024-07-17 16:27:15,sub_113,3,distance,cathedral,spatial_unmasking,4,161,0,0,_two_,talker-p245_sex-f_text-_two_.wav,p245,f,5,37,8.0,7.0,RX81,6,0.0,0.0,7.0,77.341492931939,babble-reversed_n13_p307-nine-p229-one-p256-eight-p248-four-p284-two-p268-three.wav,6,RX81,7,0.0,0.0,8.0,91.58892582949888,mgb_normalisation,91.58892582949886,90.34149293193902,2,2.0,True,1.0608749389648438
,2024-07-17 16:27:18,sub_113,3,distance,cathedral,spatial_unmasking,4,162,0,0,_two_,talker-p245_sex-f_text-_two_.wav,p245,f,5,38,8.0,7.0,RX81,6,0.0,0.0,7.0,77.341492931939,babble-reversed_n13_p229-eight-p256-nine-p318-four-p245-three-p268-five-p284-two.wav,6,RX81,7,0.0,0.0,8.0,91.58892582949886,mgb_normalisation,91.58892582949886,90.34149293193902,2,2.0,True,1.062427282333374
,2024-07-17 16:27:24,sub_113,3,distance,cathedral,spatial_unmasking,4,163,0,0,_one_,talker-p245_sex-f_text-_one_.wav,p245,f,5,39,8.0,7.0,RX81,6,0.0,0.0,7.0,76.34149293193902,babble-reversed_n13_p307-nine-p318-two-p256-one-p245-three-p268-four-p248-eight.wav,6,RX81,7,0.0,0.0,8.0,91.58892582949886,mgb_normalisation,91.58892582949886,90.34149293193902,1,9.0,False,3.81178617477417
,2024-07-17 16:27:28,sub_113,3,distance,cathedral,spatial_unmasking,4,164,0,0,_six_,talker-p245_sex-f_text-_six_.wav,p245,f,5,40,8.0,7.0,RX81,6,0.0,0.0,7.0,77.34149293193902,babble-reversed_n13_p318-one-p307-two-p256-eight-p284-three-p248-five-p245-four.wav,6,RX81,7,0.0,0.0,8.0,91.58892582949888,mgb_normalisation,91.58892582949886,90.34149293193902,6,8.0,False,1.562385320663452
,2024-07-17 16:27:32,sub_113,3,distance,cathedral,spatial_unmasking,4,165,0,0,_eight_,talker-p245_sex-f_text-_eight_.wav,p245,f,5,41,8.0,7.0,RX81,6,0.0,0.0,7.0,78.34149293193902,babble-reversed_n13_p256-four-p229-eight-p307-five-p248-three-p245-one-p284-two.wav,6,RX81,7,0.0,0.0,8.0,91.58892582949886,mgb_normalisation,91.58892582949886,90.34149293193902,8,3.0,False,1.1873900890350342
,2024-07-17 16:27:35,sub_113,3,distance,cathedral,spatial_unmasking,4,166,0,0,_nine_,talker-p245_sex-f_text-_nine_.wav,p245,f,5,42,8.0,7.0,RX81,6,0.0,0.0,7.0,79.34149293193902,babble-reversed_n13_p229-one-p318-eight-p256-three-p268-nine-p248-five-p284-four.wav,6,RX81,7,0.0,0.0,8.0,91.58892582949886,mgb_normalisation,91.58892582949886,90.34149293193902,9,9.0,True,1.1231756210327148
,2024-07-17 16:27:39,sub_113,3,distance,cathedral,spatial_unmasking,4,167,0,0,_five_,talker-p245_sex-f_text-_five_.wav,p245,f,5,43,8.0,7.0,RX81,6,0.0,0.0,7.0,79.34149293193902,babble-reversed_n13_p229-nine-p307-five-p256-two-p248-three-p245-one-p268-eight.wav,6,RX81,7,0.0,0.0,8.0,91.58892582949886,mgb_normalisation,91.58892582949886,90.34149293193902,5,5.0,True,1.0607192516326904
,2024-07-17 16:27:42,sub_113,3,distance,cathedral,spatial_unmasking,4,168,0,0,_three_,talker-p245_sex-f_text-_three_.wav,p245,f,5,44,8.0,7.0,RX81,6,0.0,0.0,7.0,78.34149293193902,babble-reversed_n13_p229-two-p318-eight-p256-three-p268-one-p248-nine-p284-five.wav,6,RX81,7,0.0,0.0,8.0,91.58892582949886,mgb_normalisation,91.58892582949886,90.34149293193902,3,2.0,False,0.9374351501464844
,2024-07-17 16:27:46,sub_113,3,distance,cathedral,spatial_unmasking,4,169,0,0,_nine_,talker-p245_sex-f_text-_nine_.wav,p245,f,5,45,8.0,7.0,RX81,6,0.0,0.0,7.0,79.34149293193902,babble-reversed_n13_p318-four-p256-five-p229-three-p284-one-p245-eight-p248-nine.wav,6,RX81,7,0.0,0.0,8.0,91.58892582949888,mgb_normalisation,91.58892582949886,90.34149293193902,9,5.0,False,1.9373373985290527
,2024-07-17 16:27:50,sub_113,3,distance,cathedral,spatial_unmasking,4,170,0,0,_three_,talker-p245_sex-f_text-_three_.wav,p245,f,5,46,8.0,7.0,RX81,6,0.0,0.0,7.0,80.34149293193903,babble-reversed_n13_p256-five-p229-one-p318-three-p248-nine-p284-eight-p268-two.wav,6,RX81,7,0.0,0.0,8.0,91.58892582949888,mgb_normalisation,91.58892582949886,90.34149293193902,3,8.0,False,1.4972848892211914
,2024-07-17 16:27:55,sub_113,3,distance,cathedral,spatial_unmasking,4,171,0,0,_three_,talker-p245_sex-f_text-_three_.wav,p245,f,5,47,8.0,7.0,RX81,6,0.0,0.0,7.0,81.34149293193902,babble-reversed_n13_p318-one-p307-two-p256-eight-p284-three-p248-five-p245-four.wav,6,RX81,7,0.0,0.0,8.0,91.58892582949888,mgb_normalisation,91.58892582949886,90.34149293193902,3,3.0,True,2.562312126159668
,2024-07-17 16:27:58,sub_113,3,distance,cathedral,spatial_unmasking,4,172,0,0,_one_,talker-p245_sex-f_text-_one_.wav,p245,f,5,48,8.0,7.0,RX81,6,0.0,0.0,7.0,81.341492931939,babble-reversed_n13_p229-one-p318-eight-p256-three-p268-nine-p248-five-p284-four.wav,6,RX81,7,0.0,0.0,8.0,91.58892582949886,mgb_normalisation,91.58892582949886,90.34149293193902,1,1.0,True,0.8122425079345703
,2024-07-17 16:30:26,sub_113,3,distance,cathedral,spatial_unmasking,5,173,0,0,_two_,talker-p245_sex-f_text-_two_.wav,p245,f,5,1,7.0,7.0,RX81,6,0.0,0.0,7.0,92.341492931939,babble-reversed_n13_p318-five-p229-four-p256-eight-p284-one-p245-three-p248-two.wav,5,RX81,6,0.0,0.0,7.0,90.34149293193904,mgb_normalisation,90.34149293193902,90.34149293193902,2,2.0,True,0.9374351501464844
,2024-07-17 16:30:29,sub_113,3,distance,cathedral,spatial_unmasking,5,174,0,0,_six_,talker-p245_sex-f_text-_six_.wav,p245,f,5,2,7.0,7.0,RX81,6,0.0,0.0,7.0,88.34149293193902,babble-reversed_n13_p229-one-p318-nine-p256-four-p284-eight-p268-five-p245-two.wav,5,RX81,6,0.0,0.0,7.0,90.34149293193904,mgb_normalisation,90.34149293193902,90.34149293193902,6,6.0,True,1.0019845962524414
,2024-07-17 16:30:33,sub_113,3,distance,cathedral,spatial_unmasking,5,175,0,0,_one_,talker-p245_sex-f_text-_one_.wav,p245,f,5,3,7.0,7.0,RX81,6,0.0,0.0,7.0,84.341492931939,babble-reversed_n13_p256-nine-p307-four-p229-one-p284-three-p248-two-p245-five.wav,5,RX81,6,0.0,0.0,7.0,90.34149293193904,mgb_normalisation,90.34149293193902,90.34149293193902,1,1.0,True,0.9999306201934814
,2024-07-17 16:30:36,sub_113,3,distance,cathedral,spatial_unmasking,5,176,0,0,_one_,talker-p245_sex-f_text-_one_.wav,p245,f,5,4,7.0,7.0,RX81,6,0.0,0.0,7.0,80.341492931939,babble-reversed_n13_p229-three-p256-one-p307-two-p284-eight-p268-five-p248-nine.wav,5,RX81,6,0.0,0.0,7.0,90.34149293193904,mgb_normalisation,90.34149293193902,90.34149293193902,1,1.0,True,0.8749923706054688
,2024-07-17 16:30:44,sub_113,3,distance,cathedral,spatial_unmasking,5,177,0,0,_two_,talker-p245_sex-f_text-_two_.wav,p245,f,5,5,7.0,7.0,RX81,6,0.0,0.0,7.0,76.341492931939,babble-reversed_n13_p256-three-p318-one-p307-two-p284-nine-p268-four-p245-eight.wav,5,RX81,6,0.0,0.0,7.0,90.34149293193904,mgb_normalisation,90.34149293193902,90.34149293193902,2,2.0,True,5.733142614364624
,2024-07-17 16:30:48,sub_113,3,distance,cathedral,spatial_unmasking,5,178,0,0,_eight_,talker-p245_sex-f_text-_eight_.wav,p245,f,5,6,7.0,7.0,RX81,6,0.0,0.0,7.0,72.34149293193902,babble-reversed_n13_p318-nine-p256-five-p307-eight-p268-three-p248-one-p245-four.wav,5,RX81,6,0.0,0.0,7.0,90.34149293193904,mgb_normalisation,90.34149293193902,90.34149293193902,8,3.0,False,1.2499127388000488
,2024-07-17 16:30:52,sub_113,3,distance,cathedral,spatial_unmasking,5,179,0,0,_one_,talker-p245_sex-f_text-_one_.wav,p245,f,5,7,7.0,7.0,RX81,6,0.0,0.0,7.0,74.341492931939,babble-reversed_n13_p256-eight-p318-two-p307-five-p245-four-p268-nine-p284-one.wav,5,RX81,6,0.0,0.0,7.0,90.34149293193904,mgb_normalisation,90.34149293193902,90.34149293193902,1,9.0,False,1.7498779296875
,2024-07-17 16:30:55,sub_113,3,distance,cathedral,spatial_unmasking,5,180,0,0,_six_,talker-p245_sex-f_text-_six_.wav,p245,f,5,8,7.0,7.0,RX81,6,0.0,0.0,7.0,76.34149293193902,babble-reversed_n13_p307-nine-p229-one-p256-eight-p248-four-p284-two-p268-three.wav,5,RX81,6,0.0,0.0,7.0,90.34149293193904,mgb_normalisation,90.34149293193902,90.34149293193902,6,6.0,True,0.9238519668579102
,2024-07-17 16:30:58,sub_113,3,distance,cathedral,spatial_unmasking,5,181,0,0,_six_,talker-p245_sex-f_text-_six_.wav,p245,f,5,9,7.0,7.0,RX81,6,0.0,0.0,7.0,76.34149293193902,babble-reversed_n13_p307-two-p229-one-p256-five-p248-nine-p284-three-p268-eight.wav,5,RX81,6,0.0,0.0,7.0,90.34149293193904,mgb_normalisation,90.34149293193902,90.34149293193902,6,6.0,True,0.999929904937744
,2024-07-17 16:31:02,sub_113,3,distance,cathedral,spatial_unmasking,5,182,0,0,_one_,talker-p245_sex-f_text-_one_.wav,p245,f,5,10,7.0,7.0,RX81,6,0.0,0.0,7.0,74.341492931939,babble-reversed_n13_p318-one-p307-two-p256-eight-p284-three-p248-five-p245-four.wav,5,RX81,6,0.0,0.0,7.0,90.34149293193904,mgb_normalisation,90.34149293193902,90.34149293193902,1,8.0,False,1.9373655319213867
,2024-07-17 16:31:06,sub_113,3,distance,cathedral,spatial_unmasking,5,183,0,0,_eight_,talker-p245_sex-f_text-_eight_.wav,p245,f,5,11,7.0,7.0,RX81,6,0.0,0.0,7.0,75.34149293193902,babble-reversed_n13_p318-nine-p307-eight-p229-two-p284-one-p248-three-p245-five.wav,5,RX81,6,0.0,0.0,7.0,90.34149293193904,mgb_normalisation,90.34149293193902,90.34149293193902,8,1.0,False,1.7409536838531494
,2024-07-17 16:31:13,sub_113,3,distance,cathedral,spatial_unmasking,5,184,0,0,_one_,talker-p245_sex-f_text-_one_.wav,p245,f,5,12,7.0,7.0,RX81,6,0.0,0.0,7.0,76.34149293193902,babble-reversed_n13_p229-nine-p307-five-p256-two-p248-three-p245-one-p268-eight.wav,5,RX81,6,0.0,0.0,7.0,90.34149293193904,mgb_normalisation,90.34149293193902,90.34149293193902,1,1.0,True,4.625397205352783
,2024-07-17 16:31:18,sub_113,3,distance,cathedral,spatial_unmasking,5,185,0,0,_five_,talker-p245_sex-f_text-_five_.wav,p245,f,5,13,7.0,7.0,RX81,6,0.0,0.0,7.0,76.34149293193902,babble-reversed_n13_p229-two-p307-five-p318-four-p284-one-p248-nine-p268-eight.wav,5,RX81,6,0.0,0.0,7.0,90.34149293193904,mgb_normalisation,90.34149293193902,90.34149293193902,5,3.0,False,1.8748698234558103
,2024-07-17 16:31:21,sub_113,3,distance,cathedral,spatial_unmasking,5,186,0,0,_three_,talker-p245_sex-f_text-_three_.wav,p245,f,5,14,7.0,7.0,RX81,6,0.0,0.0,7.0,77.34149293193903,babble-reversed_n13_p318-four-p256-five-p229-three-p284-one-p245-eight-p248-nine.wav,5,RX81,6,0.0,0.0,7.0,90.34149293193904,mgb_normalisation,90.34149293193902,90.34149293193902,3,6.0,False,1.312412977218628
,2024-07-17 16:31:25,sub_113,3,distance,cathedral,spatial_unmasking,5,187,0,0,_one_,talker-p245_sex-f_text-_one_.wav,p245,f,5,15,7.0,7.0,RX81,6,0.0,0.0,7.0,78.341492931939,babble-reversed_n13_p256-eight-p318-five-p307-four-p245-three-p268-one-p284-nine.wav,5,RX81,6,0.0,0.0,7.0,90.341492931939,mgb_normalisation,90.34149293193902,90.34149293193902,1,1.0,True,1.1816489696502686
,2024-07-17 16:31:28,sub_113,3,distance,cathedral,spatial_unmasking,5,188,0,0,_eight_,talker-p245_sex-f_text-_eight_.wav,p245,f,5,16,7.0,7.0,RX81,6,0.0,0.0,7.0,78.34149293193902,babble-reversed_n13_p256-four-p229-two-p318-five-p268-one-p248-eight-p245-three.wav,5,RX81,6,0.0,0.0,7.0,90.341492931939,mgb_normalisation,90.34149293193902,90.34149293193902,8,3.0,False,1.1249220371246338
,2024-07-17 16:31:32,sub_113,3,distance,cathedral,spatial_unmasking,5,189,0,0,_nine_,talker-p245_sex-f_text-_nine_.wav,p245,f,5,17,7.0,7.0,RX81,6,0.0,0.0,7.0,79.34149293193902,babble-reversed_n13_p256-five-p229-one-p318-three-p248-nine-p284-eight-p268-two.wav,5,RX81,6,0.0,0.0,7.0,90.34149293193904,mgb_normalisation,90.34149293193902,90.34149293193902,9,3.0,False,1.3124091625213623
,2024-07-17 16:31:38,sub_113,3,distance,cathedral,spatial_unmasking,5,190,0,0,_four_,talker-p245_sex-f_text-_four_.wav,p245,f,5,18,7.0,7.0,RX81,6,0.0,0.0,7.0,80.34149293193903,babble-reversed_n13_p229-nine-p307-five-p256-two-p248-three-p245-one-p268-eight.wav,5,RX81,6,0.0,0.0,7.0,90.34149293193904,mgb_normalisation,90.34149293193902,90.34149293193902,4,8.0,False,4.188784122467041
,2024-07-17 16:31:42,sub_113,3,distance,cathedral,spatial_unmasking,5,191,0,0,_three_,talker-p245_sex-f_text-_three_.wav,p245,f,5,19,7.0,7.0,RX81,6,0.0,0.0,7.0,81.34149293193902,babble-reversed_n13_p229-five-p256-one-p318-three-p248-nine-p268-four-p284-eight.wav,5,RX81,6,0.0,0.0,7.0,90.341492931939,mgb_normalisation,90.34149293193902,90.34149293193902,3,3.0,True,1.6248857975006104
,2024-07-17 16:31:45,sub_113,3,distance,cathedral,spatial_unmasking,5,192,0,0,_three_,talker-p245_sex-f_text-_three_.wav,p245,f,5,20,7.0,7.0,RX81,6,0.0,0.0,7.0,81.34149293193902,babble-reversed_n13_p229-five-p256-three-p318-nine-p248-two-p284-four-p268-one.wav,5,RX81,6,0.0,0.0,7.0,90.34149293193904,mgb_normalisation,90.34149293193902,90.34149293193902,3,3.0,True,1.06365966796875
,2024-07-17 16:31:49,sub_113,3,distance,cathedral,spatial_unmasking,5,193,0,0,_eight_,talker-p245_sex-f_text-_eight_.wav,p245,f,5,21,7.0,7.0,RX81,6,0.0,0.0,7.0,80.34149293193903,babble-reversed_n13_p318-five-p256-nine-p307-eight-p248-two-p245-four-p284-three.wav,5,RX81,6,0.0,0.0,7.0,90.34149293193904,mgb_normalisation,90.34149293193902,90.34149293193902,8,2.0,False,1.2481865882873535
,2024-07-17 16:31:53,sub_113,3,distance,cathedral,spatial_unmasking,5,194,0,0,_one_,talker-p245_sex-f_text-_one_.wav,p245,f,5,22,7.0,7.0,RX81,6,0.0,0.0,7.0,81.341492931939,babble-reversed_n13_p318-three-p229-one-p256-eight-p245-five-p248-four-p284-nine.wav,5,RX81,6,0.0,0.0,7.0,90.34149293193904,mgb_normalisation,90.34149293193902,90.34149293193902,1,1.0,True,1.312408208847046
,2024-07-17 16:31:56,sub_113,3,distance,cathedral,spatial_unmasking,5,195,0,0,_nine_,talker-p245_sex-f_text-_nine_.wav,p245,f,5,23,7.0,7.0,RX81,6,0.0,0.0,7.0,81.34149293193902,babble-reversed_n13_p318-four-p256-five-p229-three-p284-one-p245-eight-p248-nine.wav,5,RX81,6,0.0,0.0,7.0,90.34149293193904,mgb_normalisation,90.34149293193902,90.34149293193902,9,2.0,False,1.249912977218628
,2024-07-17 16:32:00,sub_113,3,distance,cathedral,spatial_unmasking,5,196,0,0,_five_,talker-p245_sex-f_text-_five_.wav,p245,f,5,24,7.0,7.0,RX81,6,0.0,0.0,7.0,82.34149293193902,babble-reversed_n13_p229-nine-p318-one-p307-two-p248-eight-p245-five-p284-four.wav,5,RX81,6,0.0,0.0,7.0,90.34149293193904,mgb_normalisation,90.34149293193902,90.34149293193902,5,5.0,True,1.122300386428833
,2024-07-17 16:32:03,sub_113,3,distance,cathedral,spatial_unmasking,5,197,0,0,_five_,talker-p245_sex-f_text-_five_.wav,p245,f,5,25,7.0,7.0,RX81,6,0.0,0.0,7.0,82.34149293193902,babble-reversed_n13_p256-five-p229-one-p318-three-p248-nine-p284-eight-p268-two.wav,5,RX81,6,0.0,0.0,7.0,90.34149293193904,mgb_normalisation,90.34149293193902,90.34149293193902,5,5.0,True,0.9999301433563232
,2024-07-17 16:32:06,sub_113,3,distance,cathedral,spatial_unmasking,5,198,0,0,_five_,talker-p245_sex-f_text-_five_.wav,p245,f,5,26,7.0,7.0,RX81,6,0.0,0.0,7.0,81.34149293193902,babble-reversed_n13_p256-three-p318-one-p307-two-p284-nine-p268-four-p245-eight.wav,5,RX81,6,0.0,0.0,7.0,90.34149293193904,mgb_normalisation,90.34149293193902,90.34149293193902,5,1.0,False,0.9999310970306396
,2024-07-17 16:32:10,sub_113,3,distance,cathedral,spatial_unmasking,5,199,0,0,_one_,talker-p245_sex-f_text-_one_.wav,p245,f,5,27,7.0,7.0,RX81,6,0.0,0.0,7.0,82.341492931939,babble-reversed_n13_p229-two-p307-five-p318-four-p284-one-p248-nine-p268-eight.wav,5,RX81,6,0.0,0.0,7.0,90.34149293193904,mgb_normalisation,90.34149293193902,90.34149293193902,1,2.0,False,1.191002368927002
,2024-07-17 16:32:13,sub_113,3,distance,cathedral,spatial_unmasking,5,200,0,0,_two_,talker-p245_sex-f_text-_two_.wav,p245,f,5,28,7.0,7.0,RX81,6,0.0,0.0,7.0,83.34149293193902,babble-reversed_n13_p229-eight-p256-nine-p318-four-p245-three-p268-five-p284-two.wav,5,RX81,6,0.0,0.0,7.0,90.341492931939,mgb_normalisation,90.34149293193902,90.34149293193902,2,2.0,True,1.124922513961792
,2024-07-17 16:32:16,sub_113,3,distance,cathedral,spatial_unmasking,5,201,0,0,_six_,talker-p245_sex-f_text-_six_.wav,p245,f,5,29,7.0,7.0,RX81,6,0.0,0.0,7.0,83.34149293193902,babble-reversed_n13_p307-nine-p229-one-p256-eight-p248-four-p284-two-p268-three.wav,5,RX81,6,0.0,0.0,7.0,90.34149293193904,mgb_normalisation,90.34149293193902,90.34149293193902,6,6.0,True,1.062453031539917
,2024-07-17 16:32:20,sub_113,3,distance,cathedral,spatial_unmasking,5,202,0,0,_five_,talker-p245_sex-f_text-_five_.wav,p245,f,5,30,7.0,7.0,RX81,6,0.0,0.0,7.0,82.34149293193902,babble-reversed_n13_p229-three-p307-one-p318-two-p245-eight-p268-five-p284-four.wav,5,RX81,6,0.0,0.0,7.0,90.34149293193904,mgb_normalisation,90.34149293193902,90.34149293193902,5,5.0,True,1.1884024143218994
,2024-07-17 16:32:24,sub_113,3,distance,cathedral,spatial_unmasking,5,203,0,0,_six_,talker-p245_sex-f_text-_six_.wav,p245,f,5,31,7.0,7.0,RX81,6,0.0,0.0,7.0,82.34149293193902,babble-reversed_n13_p229-one-p318-eight-p256-three-p268-nine-p248-five-p284-four.wav,5,RX81,6,0.0,0.0,7.0,90.341492931939,mgb_normalisation,90.34149293193902,90.34149293193902,6,6.0,True,1.3124127388000488
,2024-07-17 16:32:27,sub_113,3,distance,cathedral,spatial_unmasking,5,204,0,0,_two_,talker-p245_sex-f_text-_two_.wav,p245,f,5,32,7.0,7.0,RX81,6,0.0,0.0,7.0,81.341492931939,babble-reversed_n13_p229-five-p318-two-p307-eight-p268-three-p248-four-p245-one.wav,5,RX81,6,0.0,0.0,7.0,90.34149293193904,mgb_normalisation,90.34149293193902,90.34149293193902,2,2.0,True,1.2499127388000488
,2024-07-17 16:32:31,sub_113,3,distance,cathedral,spatial_unmasking,5,205,0,0,_eight_,talker-p245_sex-f_text-_eight_.wav,p245,f,5,33,7.0,7.0,RX81,6,0.0,0.0,7.0,81.34149293193902,babble-reversed_n13_p307-nine-p318-two-p256-one-p245-three-p268-four-p248-eight.wav,5,RX81,6,0.0,0.0,7.0,90.341492931939,mgb_normalisation,90.34149293193902,90.34149293193902,8,8.0,True,1.936738967895508
,2024-07-17 16:32:36,sub_113,3,distance,cathedral,spatial_unmasking,5,206,0,0,_four_,talker-p245_sex-f_text-_four_.wav,p245,f,5,34,7.0,7.0,RX81,6,0.0,0.0,7.0,80.34149293193903,babble-reversed_n13_p256-four-p229-eight-p307-five-p248-three-p245-one-p284-two.wav,5,RX81,6,0.0,0.0,7.0,90.341492931939,mgb_normalisation,90.34149293193902,90.34149293193902,4,3.0,False,1.9226977825164795
,2024-07-17 16:32:40,sub_113,3,distance,cathedral,spatial_unmasking,5,207,0,0,_nine_,talker-p245_sex-f_text-_nine_.wav,p245,f,5,35,7.0,7.0,RX81,6,0.0,0.0,7.0,81.34149293193902,babble-reversed_n13_p318-nine-p307-eight-p229-two-p284-one-p248-three-p245-five.wav,5,RX81,6,0.0,0.0,7.0,90.34149293193904,mgb_normalisation,90.34149293193902,90.34149293193902,9,9.0,True,2.171631097793579
,2024-07-17 16:32:43,sub_113,3,distance,cathedral,spatial_unmasking,5,208,0,0,_five_,talker-p245_sex-f_text-_five_.wav,p245,f,5,36,7.0,7.0,RX81,6,0.0,0.0,7.0,81.34149293193902,babble-reversed_n13_p229-five-p256-three-p318-nine-p248-two-p284-four-p268-one.wav,5,RX81,6,0.0,0.0,7.0,90.34149293193904,mgb_normalisation,90.34149293193902,90.34149293193902,5,5.0,True,1.1248955726623535
,2024-07-17 16:32:47,sub_113,3,distance,cathedral,spatial_unmasking,5,209,0,0,_four_,talker-p245_sex-f_text-_four_.wav,p245,f,5,37,7.0,7.0,RX81,6,0.0,0.0,7.0,80.34149293193903,babble-reversed_n13_p229-two-p256-three-p318-eight-p284-five-p268-four-p245-one.wav,5,RX81,6,0.0,0.0,7.0,90.34149293193904,mgb_normalisation,90.34149293193902,90.34149293193902,4,3.0,False,1.18741774559021
,2024-07-17 16:32:50,sub_113,3,distance,cathedral,spatial_unmasking,5,210,0,0,_one_,talker-p245_sex-f_text-_one_.wav,p245,f,5,38,7.0,7.0,RX81,6,0.0,0.0,7.0,81.341492931939,babble-reversed_n13_p229-five-p318-two-p307-eight-p268-three-p248-four-p245-one.wav,5,RX81,6,0.0,0.0,7.0,90.34149293193904,mgb_normalisation,90.34149293193902,90.34149293193902,1,1.0,True,0.8625249862670898
,2024-07-17 16:32:53,sub_113,3,distance,cathedral,spatial_unmasking,5,211,0,0,_five_,talker-p245_sex-f_text-_five_.wav,p245,f,5,39,7.0,7.0,RX81,6,0.0,0.0,7.0,81.34149293193902,babble-reversed_n13_p256-eight-p318-five-p307-four-p245-three-p268-one-p284-nine.wav,5,RX81,6,0.0,0.0,7.0,90.341492931939,mgb_normalisation,90.34149293193902,90.34149293193902,5,5.0,True,0.9999308586120604
,2024-07-17 16:34:03,sub_113,3,distance,cathedral,spatial_unmasking,6,212,0,0,_four_,talker-p245_sex-f_text-_four_.wav,p245,f,5,1,10.0,7.0,RX81,6,0.0,0.0,7.0,92.34149293193904,babble-reversed_n13_p229-three-p256-nine-p318-five-p248-one-p245-eight-p284-two.wav,8,RX81,9,0.0,0.0,10.0,92.0152836843556,mgb_normalisation,92.0152836843556,90.34149293193902,4,4.0,True,1.1249494552612305
,2024-07-17 16:34:07,sub_113,3,distance,cathedral,spatial_unmasking,6,213,0,0,_nine_,talker-p245_sex-f_text-_nine_.wav,p245,f,5,2,10.0,7.0,RX81,6,0.0,0.0,7.0,88.34149293193902,babble-reversed_n13_p229-three-p256-one-p307-two-p284-eight-p268-five-p248-nine.wav,8,RX81,9,0.0,0.0,10.0,92.0152836843556,mgb_normalisation,92.0152836843556,90.34149293193902,9,9.0,True,0.999929666519165
,2024-07-17 16:34:10,sub_113,3,distance,cathedral,spatial_unmasking,6,214,0,0,_five_,talker-p245_sex-f_text-_five_.wav,p245,f,5,3,10.0,7.0,RX81,6,0.0,0.0,7.0,84.341492931939,babble-reversed_n13_p256-two-p307-five-p318-nine-p248-eight-p245-four-p284-one.wav,8,RX81,9,0.0,0.0,10.0,92.0152836843556,mgb_normalisation,92.0152836843556,90.34149293193902,5,5.0,True,0.9399988651275636
,2024-07-17 16:34:13,sub_113,3,distance,cathedral,spatial_unmasking,6,215,0,0,_five_,talker-p245_sex-f_text-_five_.wav,p245,f,5,4,10.0,7.0,RX81,6,0.0,0.0,7.0,80.34149293193903,babble-reversed_n13_p229-two-p256-three-p318-eight-p284-five-p268-four-p245-one.wav,8,RX81,9,0.0,0.0,10.0,92.0152836843556,mgb_normalisation,92.0152836843556,90.34149293193902,5,5.0,True,0.8749406337738037
,2024-07-17 16:34:17,sub_113,3,distance,cathedral,spatial_unmasking,6,216,0,0,_one_,talker-p245_sex-f_text-_one_.wav,p245,f,5,5,10.0,7.0,RX81,6,0.0,0.0,7.0,76.34149293193902,babble-reversed_n13_p318-five-p256-nine-p307-two-p245-eight-p248-one-p284-four.wav,8,RX81,9,0.0,0.0,10.0,92.0152836843556,mgb_normalisation,92.0152836843556,90.34149293193902,1,3.0,False,1.3748767375946045
,2024-07-17 16:34:20,sub_113,3,distance,cathedral,spatial_unmasking,6,217,0,0,_four_,talker-p245_sex-f_text-_four_.wav,p245,f,5,6,10.0,7.0,RX81,6,0.0,0.0,7.0,78.34149293193902,babble-reversed_n13_p229-three-p256-nine-p318-five-p248-one-p245-eight-p284-two.wav,8,RX81,9,0.0,0.0,10.0,92.0152836843556,mgb_normalisation,92.0152836843556,90.34149293193902,4,9.0,False,0.9397256374359132
,2024-07-17 16:34:24,sub_113,3,distance,cathedral,spatial_unmasking,6,218,0,0,_two_,talker-p245_sex-f_text-_two_.wav,p245,f,5,7,10.0,7.0,RX81,6,0.0,0.0,7.0,80.341492931939,babble-reversed_n13_p229-three-p256-one-p307-two-p284-eight-p268-five-p248-nine.wav,8,RX81,9,0.0,0.0,10.0,92.0152836843556,mgb_normalisation,92.0152836843556,90.34149293193902,2,2.0,True,0.9374349117279052
,2024-07-17 16:34:27,sub_113,3,distance,cathedral,spatial_unmasking,6,219,0,0,_five_,talker-p245_sex-f_text-_five_.wav,p245,f,5,8,10.0,7.0,RX81,6,0.0,0.0,7.0,80.34149293193903,babble-reversed_n13_p229-two-p318-eight-p256-three-p268-one-p248-nine-p284-five.wav,8,RX81,9,0.0,0.0,10.0,92.0152836843556,mgb_normalisation,92.0152836843556,90.34149293193902,5,5.0,True,0.8749392032623291
,2024-07-17 16:34:30,sub_113,3,distance,cathedral,spatial_unmasking,6,220,0,0,_six_,talker-p245_sex-f_text-_six_.wav,p245,f,5,9,10.0,7.0,RX81,6,0.0,0.0,7.0,78.34149293193902,babble-reversed_n13_p229-three-p256-nine-p318-five-p248-one-p245-eight-p284-two.wav,8,RX81,9,0.0,0.0,10.0,92.0152836843556,mgb_normalisation,92.0152836843556,90.34149293193902,6,6.0,True,0.9332330226898192
,2024-07-17 16:34:34,sub_113,3,distance,cathedral,spatial_unmasking,6,221,0,0,_two_,talker-p245_sex-f_text-_two_.wav,p245,f,5,10,10.0,7.0,RX81,6,0.0,0.0,7.0,78.341492931939,babble-reversed_n13_p318-nine-p256-five-p307-eight-p268-three-p248-one-p245-four.wav,8,RX81,9,0.0,0.0,10.0,92.0152836843556,mgb_normalisation,92.0152836843556,90.34149293193902,2,2.0,True,0.8749399185180664
,2024-07-17 16:34:37,sub_113,3,distance,cathedral,spatial_unmasking,6,222,0,0,_three_,talker-p245_sex-f_text-_three_.wav,p245,f,5,11,10.0,7.0,RX81,6,0.0,0.0,7.0,76.34149293193902,babble-reversed_n13_p256-four-p229-two-p318-five-p268-one-p248-eight-p245-three.wav,8,RX81,9,0.0,0.0,10.0,92.0152836843556,mgb_normalisation,92.0152836843556,90.34149293193902,3,3.0,True,1.0624263286590576
,2024-07-17 16:34:41,sub_113,3,distance,cathedral,spatial_unmasking,6,223,0,0,_nine_,talker-p245_sex-f_text-_nine_.wav,p245,f,5,12,10.0,7.0,RX81,6,0.0,0.0,7.0,76.34149293193902,babble-reversed_n13_p229-three-p256-nine-p318-five-p248-one-p245-eight-p284-two.wav,8,RX81,9,0.0,0.0,10.0,92.0152836843556,mgb_normalisation,92.0152836843556,90.34149293193902,9,3.0,False,1.1842975616455078
,2024-07-17 16:34:44,sub_113,3,distance,cathedral,spatial_unmasking,6,224,0,0,_three_,talker-p245_sex-f_text-_three_.wav,p245,f,5,13,10.0,7.0,RX81,6,0.0,0.0,7.0,77.34149293193903,babble-reversed_n13_p318-five-p256-nine-p307-two-p245-eight-p248-one-p284-four.wav,8,RX81,9,0.0,0.0,10.0,92.0152836843556,mgb_normalisation,92.0152836843556,90.34149293193902,3,4.0,False,0.9999306201934814
,2024-07-17 16:34:47,sub_113,3,distance,cathedral,spatial_unmasking,6,225,0,0,_five_,talker-p245_sex-f_text-_five_.wav,p245,f,5,14,10.0,7.0,RX81,6,0.0,0.0,7.0,78.34149293193902,babble-reversed_n13_p256-four-p229-two-p318-five-p268-one-p248-eight-p245-three.wav,8,RX81,9,0.0,0.0,10.0,92.0152836843556,mgb_normalisation,92.0152836843556,90.34149293193902,5,5.0,True,0.8749392032623291
,2024-07-17 16:34:51,sub_113,3,distance,cathedral,spatial_unmasking,6,226,0,0,_three_,talker-p245_sex-f_text-_three_.wav,p245,f,5,15,10.0,7.0,RX81,6,0.0,0.0,7.0,78.34149293193902,babble-reversed_n13_p307-nine-p229-one-p256-eight-p248-four-p284-two-p268-three.wav,8,RX81,9,0.0,0.0,10.0,92.0152836843556,mgb_normalisation,92.0152836843556,90.34149293193902,3,3.0,True,0.9343419075012208
,2024-07-17 16:34:54,sub_113,3,distance,cathedral,spatial_unmasking,6,227,0,0,_four_,talker-p245_sex-f_text-_four_.wav,p245,f,5,16,10.0,7.0,RX81,6,0.0,0.0,7.0,77.34149293193903,babble-reversed_n13_p307-two-p229-one-p256-five-p248-nine-p284-three-p268-eight.wav,8,RX81,9,0.0,0.0,10.0,92.0152836843556,mgb_normalisation,92.0152836843556,90.34149293193902,4,4.0,True,1.2493321895599363
,2024-07-17 16:34:59,sub_113,3,distance,cathedral,spatial_unmasking,6,228,0,0,_one_,talker-p245_sex-f_text-_one_.wav,p245,f,5,17,10.0,7.0,RX81,6,0.0,0.0,7.0,77.341492931939,babble-reversed_n13_p307-one-p318-five-p229-four-p268-eight-p284-two-p245-three.wav,8,RX81,9,0.0,0.0,10.0,92.0152836843556,mgb_normalisation,92.0152836843556,90.34149293193902,1,3.0,False,2.810045957565308
,2024-07-17 16:35:03,sub_113,3,distance,cathedral,spatial_unmasking,6,229,0,0,_two_,talker-p245_sex-f_text-_two_.wav,p245,f,5,18,10.0,7.0,RX81,6,0.0,0.0,7.0,78.341492931939,babble-reversed_n13_p229-one-p318-nine-p256-four-p284-eight-p268-five-p245-two.wav,8,RX81,9,0.0,0.0,10.0,92.0152836843556,mgb_normalisation,92.0152836843556,90.34149293193902,2,2.0,True,0.8749392032623291
,2024-07-17 16:35:07,sub_113,3,distance,cathedral,spatial_unmasking,6,230,0,0,_one_,talker-p245_sex-f_text-_one_.wav,p245,f,5,19,10.0,7.0,RX81,6,0.0,0.0,7.0,78.341492931939,babble-reversed_n13_p318-five-p256-nine-p307-two-p245-eight-p248-one-p284-four.wav,8,RX81,9,0.0,0.0,10.0,92.0152836843556,mgb_normalisation,92.0152836843556,90.34149293193902,1,1.0,True,1.3749680519104004
,2024-07-17 16:35:11,sub_113,3,distance,cathedral,spatial_unmasking,6,231,0,0,_four_,talker-p245_sex-f_text-_four_.wav,p245,f,5,20,10.0,7.0,RX81,6,0.0,0.0,7.0,77.34149293193903,babble-reversed_n13_p256-nine-p307-four-p229-one-p284-three-p248-two-p245-five.wav,8,RX81,9,0.0,0.0,10.0,92.0152836843556,mgb_normalisation,92.0152836843556,90.34149293193902,4,3.0,False,1.5637428760528564
,2024-07-17 16:35:14,sub_113,3,distance,cathedral,spatial_unmasking,6,232,0,0,_three_,talker-p245_sex-f_text-_three_.wav,p245,f,5,21,10.0,7.0,RX81,6,0.0,0.0,7.0,78.34149293193902,babble-reversed_n13_p307-two-p229-one-p256-five-p248-nine-p284-three-p268-eight.wav,8,RX81,9,0.0,0.0,10.0,92.0152836843556,mgb_normalisation,92.0152836843556,90.34149293193902,3,3.0,True,1.3756959438323977
,2024-07-17 16:35:18,sub_113,3,distance,cathedral,spatial_unmasking,6,233,0,0,_three_,talker-p245_sex-f_text-_three_.wav,p245,f,5,22,10.0,7.0,RX81,6,0.0,0.0,7.0,78.34149293193902,babble-reversed_n13_p318-five-p229-three-p256-four-p268-eight-p248-one-p245-nine.wav,8,RX81,9,0.0,0.0,10.0,92.0152836843556,mgb_normalisation,92.0152836843556,90.34149293193902,3,2.0,False,0.8749666213989258
,2024-07-17 16:35:24,sub_113,3,distance,cathedral,spatial_unmasking,6,234,0,0,_four_,talker-p245_sex-f_text-_four_.wav,p245,f,5,23,10.0,7.0,RX81,6,0.0,0.0,7.0,79.34149293193903,babble-reversed_n13_p256-three-p318-two-p229-nine-p248-four-p284-one-p268-eight.wav,8,RX81,9,0.0,0.0,10.0,92.0152836843556,mgb_normalisation,92.0152836843556,90.34149293193902,4,6.0,False,4.186899423599243
,2024-07-17 16:35:32,sub_113,3,distance,cathedral,spatial_unmasking,6,235,0,0,_five_,talker-p245_sex-f_text-_five_.wav,p245,f,5,24,10.0,7.0,RX81,6,0.0,0.0,7.0,80.34149293193903,babble-reversed_n13_p307-five-p229-two-p318-four-p248-three-p245-nine-p268-eight.wav,8,RX81,9,0.0,0.0,10.0,92.0152836843556,mgb_normalisation,92.0152836843556,90.34149293193902,5,9.0,False,5.500612258911133
,2024-07-17 16:35:37,sub_113,3,distance,cathedral,spatial_unmasking,6,236,0,0,_six_,talker-p245_sex-f_text-_six_.wav,p245,f,5,25,10.0,7.0,RX81,6,0.0,0.0,7.0,81.34149293193902,babble-reversed_n13_p256-eight-p318-two-p307-five-p245-four-p268-nine-p284-one.wav,8,RX81,9,0.0,0.0,10.0,92.0152836843556,mgb_normalisation,92.0152836843556,90.34149293193902,6,6.0,True,2.621408224105835
,2024-07-17 16:35:42,sub_113,3,distance,cathedral,spatial_unmasking,6,237,0,0,_six_,talker-p245_sex-f_text-_six_.wav,p245,f,5,26,10.0,7.0,RX81,6,0.0,0.0,7.0,81.34149293193902,babble-reversed_n13_p307-five-p229-two-p318-four-p248-three-p245-nine-p268-eight.wav,8,RX81,9,0.0,0.0,10.0,92.0152836843556,mgb_normalisation,92.0152836843556,90.34149293193902,6,6.0,True,2.749105453491211
,2024-07-17 16:35:46,sub_113,3,distance,cathedral,spatial_unmasking,6,238,0,0,_five_,talker-p245_sex-f_text-_five_.wav,p245,f,5,27,10.0,7.0,RX81,6,0.0,0.0,7.0,80.34149293193903,babble-reversed_n13_p256-four-p307-eight-p318-two-p248-three-p284-nine-p268-one.wav,8,RX81,9,0.0,0.0,10.0,92.0152836843556,mgb_normalisation,92.0152836843556,90.34149293193902,5,5.0,True,1.4943344593048096
,2024-07-17 16:35:49,sub_113,3,distance,cathedral,spatial_unmasking,6,239,0,0,_six_,talker-p245_sex-f_text-_six_.wav,p245,f,5,28,10.0,7.0,RX81,6,0.0,0.0,7.0,80.341492931939,babble-reversed_n13_p318-nine-p256-five-p307-eight-p268-three-p248-one-p245-four.wav,8,RX81,9,0.0,0.0,10.0,92.0152836843556,mgb_normalisation,92.0152836843556,90.34149293193902,6,6.0,True,0.8748660087585449
,2024-07-17 16:35:53,sub_113,3,distance,cathedral,spatial_unmasking,6,240,0,0,_one_,talker-p245_sex-f_text-_one_.wav,p245,f,5,29,10.0,7.0,RX81,6,0.0,0.0,7.0,79.341492931939,babble-reversed_n13_p307-nine-p318-two-p256-one-p245-three-p268-four-p248-eight.wav,8,RX81,9,0.0,0.0,10.0,92.0152836843556,mgb_normalisation,92.0152836843556,90.34149293193902,1,9.0,False,1.3124361038208008
,2024-07-17 16:35:56,sub_113,3,distance,cathedral,spatial_unmasking,6,241,0,0,_three_,talker-p245_sex-f_text-_three_.wav,p245,f,5,30,10.0,7.0,RX81,6,0.0,0.0,7.0,80.34149293193903,babble-reversed_n13_p229-eight-p256-nine-p318-four-p245-three-p268-five-p284-two.wav,8,RX81,9,0.0,0.0,10.0,92.0152836843556,mgb_normalisation,92.0152836843556,90.34149293193902,3,3.0,True,0.9374351501464844
,2024-07-17 16:36:00,sub_113,3,distance,cathedral,spatial_unmasking,6,242,0,0,_two_,talker-p245_sex-f_text-_two_.wav,p245,f,5,31,10.0,7.0,RX81,6,0.0,0.0,7.0,80.341492931939,babble-reversed_n13_p318-five-p229-three-p256-four-p268-eight-p248-one-p245-nine.wav,8,RX81,9,0.0,0.0,10.0,92.0152836843556,mgb_normalisation,92.0152836843556,90.34149293193902,2,2.0,True,0.9406824111938475
,2024-07-17 16:36:07,sub_113,3,distance,cathedral,spatial_unmasking,6,243,0,0,_nine_,talker-p245_sex-f_text-_nine_.wav,p245,f,5,32,10.0,7.0,RX81,6,0.0,0.0,7.0,79.34149293193902,babble-reversed_n13_p318-five-p229-three-p256-four-p268-eight-p248-one-p245-nine.wav,8,RX81,9,0.0,0.0,10.0,92.0152836843556,mgb_normalisation,92.0152836843556,90.34149293193902,9,2.0,False,4.624693155288696
,2024-07-17 16:36:11,sub_113,3,distance,cathedral,spatial_unmasking,6,244,0,0,_eight_,talker-p245_sex-f_text-_eight_.wav,p245,f,5,33,10.0,7.0,RX81,6,0.0,0.0,7.0,80.34149293193903,babble-reversed_n13_p318-three-p307-one-p256-five-p248-nine-p245-two-p284-eight.wav,8,RX81,9,0.0,0.0,10.0,92.0152836843556,mgb_normalisation,92.0152836843556,90.34149293193902,8,8.0,True,1.5009467601776123
,2024-07-17 16:36:15,sub_113,3,distance,cathedral,spatial_unmasking,6,245,0,0,_one_,talker-p245_sex-f_text-_one_.wav,p245,f,5,34,10.0,7.0,RX81,6,0.0,0.0,7.0,80.341492931939,babble-reversed_n13_p229-two-p307-five-p318-four-p284-one-p248-nine-p268-eight.wav,8,RX81,9,0.0,0.0,10.0,92.0152836843556,mgb_normalisation,92.0152836843556,90.34149293193902,1,8.0,False,1.6873433589935305
,2024-07-17 16:36:18,sub_113,3,distance,cathedral,spatial_unmasking,6,246,0,0,_five_,talker-p245_sex-f_text-_five_.wav,p245,f,5,35,10.0,7.0,RX81,6,0.0,0.0,7.0,81.34149293193902,babble-reversed_n13_p256-eight-p229-three-p307-nine-p245-five-p248-four-p268-two.wav,8,RX81,9,0.0,0.0,10.0,92.0152836843556,mgb_normalisation,92.0152836843556,90.34149293193902,5,5.0,True,0.9374618530273438
,2024-07-17 16:36:22,sub_113,3,distance,cathedral,spatial_unmasking,6,247,0,0,_nine_,talker-p245_sex-f_text-_nine_.wav,p245,f,5,36,10.0,7.0,RX81,6,0.0,0.0,7.0,81.34149293193902,babble-reversed_n13_p256-three-p318-one-p307-two-p284-nine-p268-four-p245-eight.wav,8,RX81,9,0.0,0.0,10.0,92.0152836843556,mgb_normalisation,92.0152836843556,90.34149293193902,9,9.0,True,1.6873633861541748
,2024-07-17 16:37:31,sub_113,3,distance,cathedral,spatial_unmasking,7,248,0,0,_one_,talker-p245_sex-f_text-_one_.wav,p245,f,5,1,4.0,7.0,RX81,6,0.0,0.0,7.0,92.341492931939,babble-reversed_n13_p229-three-p256-nine-p318-five-p248-one-p245-eight-p284-two.wav,2,RX81,3,0.0,0.0,4.0,87.57049330475357,mgb_normalisation,87.57049330475357,90.34149293193902,1,1.0,True,1.6187667846679688
,2024-07-17 16:37:35,sub_113,3,distance,cathedral,spatial_unmasking,7,249,0,0,_eight_,talker-p245_sex-f_text-_eight_.wav,p245,f,5,2,4.0,7.0,RX81,6,0.0,0.0,7.0,88.34149293193902,babble-reversed_n13_p318-five-p256-nine-p307-eight-p248-two-p245-four-p284-three.wav,2,RX81,3,0.0,0.0,4.0,87.57049330475357,mgb_normalisation,87.57049330475357,90.34149293193902,8,3.0,False,1.2535390853881836
,2024-07-17 16:37:39,sub_113,3,distance,cathedral,spatial_unmasking,7,250,0,0,_six_,talker-p245_sex-f_text-_six_.wav,p245,f,5,3,4.0,7.0,RX81,6,0.0,0.0,7.0,90.341492931939,babble-reversed_n13_p229-one-p318-nine-p256-four-p284-eight-p268-five-p245-two.wav,2,RX81,3,0.0,0.0,4.0,87.57049330475357,mgb_normalisation,87.57049330475357,90.34149293193902,6,6.0,True,1.062427997589111
,2024-07-17 16:37:43,sub_113,3,distance,cathedral,spatial_unmasking,7,251,0,0,_eight_,talker-p245_sex-f_text-_eight_.wav,p245,f,5,4,4.0,7.0,RX81,6,0.0,0.0,7.0,90.34149293193904,babble-reversed_n13_p256-three-p318-one-p307-two-p284-nine-p268-four-p245-eight.wav,2,RX81,3,0.0,0.0,4.0,87.57049330475357,mgb_normalisation,87.57049330475357,90.34149293193902,8,8.0,True,1.499895095825195
,2024-07-17 16:37:46,sub_113,3,distance,cathedral,spatial_unmasking,7,252,0,0,_five_,talker-p245_sex-f_text-_five_.wav,p245,f,5,5,4.0,7.0,RX81,6,0.0,0.0,7.0,88.34149293193902,babble-reversed_n13_p307-nine-p318-two-p256-one-p245-three-p268-four-p248-eight.wav,2,RX81,3,0.0,0.0,4.0,87.57049330475355,mgb_normalisation,87.57049330475357,90.34149293193902,5,5.0,True,1.120715618133545
,2024-07-17 16:37:49,sub_113,3,distance,cathedral,spatial_unmasking,7,253,0,0,_one_,talker-p245_sex-f_text-_one_.wav,p245,f,5,6,4.0,7.0,RX81,6,0.0,0.0,7.0,88.34149293193902,babble-reversed_n13_p229-two-p256-three-p318-eight-p284-five-p268-four-p245-one.wav,2,RX81,3,0.0,0.0,4.0,87.57049330475357,mgb_normalisation,87.57049330475357,90.34149293193902,1,1.0,True,1.0624258518218994
,2024-07-17 16:37:53,sub_113,3,distance,cathedral,spatial_unmasking,7,254,0,0,_one_,talker-p245_sex-f_text-_one_.wav,p245,f,5,7,4.0,7.0,RX81,6,0.0,0.0,7.0,86.341492931939,babble-reversed_n13_p229-three-p256-nine-p318-five-p248-one-p245-eight-p284-two.wav,2,RX81,3,0.0,0.0,4.0,87.57049330475357,mgb_normalisation,87.57049330475357,90.34149293193902,1,1.0,True,0.9999303817749025
,2024-07-17 16:37:56,sub_113,3,distance,cathedral,spatial_unmasking,7,255,0,0,_one_,talker-p245_sex-f_text-_one_.wav,p245,f,5,8,4.0,7.0,RX81,6,0.0,0.0,7.0,86.341492931939,babble-reversed_n13_p229-eight-p256-nine-p318-four-p245-three-p268-five-p284-two.wav,2,RX81,3,0.0,0.0,4.0,87.57049330475355,mgb_normalisation,87.57049330475357,90.34149293193902,1,1.0,True,0.9324185848236084
,2024-07-17 16:38:00,sub_113,3,distance,cathedral,spatial_unmasking,7,256,0,0,_nine_,talker-p245_sex-f_text-_nine_.wav,p245,f,5,9,4.0,7.0,RX81,6,0.0,0.0,7.0,84.341492931939,babble-reversed_n13_p318-five-p229-four-p256-eight-p284-one-p245-three-p248-two.wav,2,RX81,3,0.0,0.0,4.0,87.57049330475357,mgb_normalisation,87.57049330475357,90.34149293193902,9,9.0,True,1.0018610954284668
,2024-07-17 16:38:03,sub_113,3,distance,cathedral,spatial_unmasking,7,257,0,0,_eight_,talker-p245_sex-f_text-_eight_.wav,p245,f,5,10,4.0,7.0,RX81,6,0.0,0.0,7.0,84.341492931939,babble-reversed_n13_p307-five-p229-two-p318-four-p248-three-p245-nine-p268-eight.wav,2,RX81,3,0.0,0.0,4.0,87.57049330475355,mgb_normalisation,87.57049330475357,90.34149293193902,8,3.0,False,1.3124399185180664
,2024-07-17 16:38:07,sub_113,3,distance,cathedral,spatial_unmasking,7,258,0,0,_two_,talker-p245_sex-f_text-_two_.wav,p245,f,5,11,4.0,7.0,RX81,6,0.0,0.0,7.0,85.341492931939,babble-reversed_n13_p229-nine-p256-four-p318-three-p268-eight-p248-two-p284-five.wav,2,RX81,3,0.0,0.0,4.0,87.57049330475357,mgb_normalisation,87.57049330475357,90.34149293193902,2,6.0,False,1.4373996257781982
,2024-07-17 16:38:11,sub_113,3,distance,cathedral,spatial_unmasking,7,259,0,0,_three_,talker-p245_sex-f_text-_three_.wav,p245,f,5,12,4.0,7.0,RX81,6,0.0,0.0,7.0,86.34149293193902,babble-reversed_n13_p256-eight-p229-three-p307-nine-p245-five-p248-four-p268-two.wav,2,RX81,3,0.0,0.0,4.0,87.57049330475355,mgb_normalisation,87.57049330475357,90.34149293193902,3,3.0,True,1.0017130374908447
