,event_id,timestamp,subject_id,session_index,plane,setup,task,block,trial_index,stim_type,headpose_offset_azi,headpose_offset_ele,stim_filename,stim_level,mgb_level,fluctuation,speaker_id,speaker_proc,speaker_chan,stim_azi,stim_ele,stim_dist,resp_azi,resp_ele,resp_dist,reaction_time
0,,2024-07-26 13:08:16,sub_118,3,distance,cathedral,localisation_accuracy,1,0,pinknoise,,,pinknoise_6.wav,86.07761988144105,30,-0.18414182122825062,1,RX81,2,0.0,0.0,3.0,0,0,5.463343108504399,2.8281900882720947
0,,2024-07-26 13:08:20,sub_118,3,distance,cathedral,localisation_accuracy,1,1,pinknoise,,,pinknoise_1.wav,90.42214922982981,30,0.11553771545707481,5,RX81,6,0.0,0.0,7.0,0,0,9.114369501466276,1.8438124656677246
0,,2024-07-26 13:08:22,sub_118,3,distance,cathedral,localisation_accuracy,1,2,pinknoise,,,pinknoise_1.wav,91.93902536838246,30,-0.10752462679124253,8,RX81,9,0.0,0.0,10.0,0,0,10.80058651026393,1.5937964916229248
0,,2024-07-26 13:08:26,sub_118,3,distance,cathedral,localisation_accuracy,1,3,pinknoise,,,pinknoise_9.wav,91.87508665285633,30,-0.1836287478751939,9,RX81,10,0.0,0.0,11.0,0,0,9.378299120234605,2.5156736373901367
0,,2024-07-26 13:08:29,sub_118,3,distance,cathedral,localisation_accuracy,1,4,pinknoise,,,pinknoise_0.wav,91.24670857359433,30,-0.4838361744973747,6,RX81,7,0.0,0.0,8.0,0,0,6.181818181818182,1.9688239097595215
0,,2024-07-26 13:08:34,sub_118,3,distance,cathedral,localisation_accuracy,1,5,pinknoise,,,pinknoise_3.wav,93.18717289362135,30,0.2642469147241222,10,RX81,11,0.0,0.0,12.0,0,0,11.636363636363637,3.1716079711914062
0,,2024-07-26 13:08:38,sub_118,3,distance,cathedral,localisation_accuracy,1,6,pinknoise,,,pinknoise_2.wav,87.70844397847866,30,0.2004000901465396,2,RX81,3,0.0,0.0,4.0,0,0,5.0527859237536665,3.2188377380371094
0,,2024-07-26 13:08:42,sub_118,3,distance,cathedral,localisation_accuracy,1,7,pinknoise,,,pinknoise_7.wav,89.43145582374032,30,0.15767317868181896,4,RX81,5,0.0,0.0,6.0,0,0,8.454545454545455,2.468824863433838
0,,2024-07-26 13:08:46,sub_118,3,distance,cathedral,localisation_accuracy,1,8,pinknoise,,,pinknoise_7.wav,89.05457419168985,30,-0.13436030350783834,3,RX81,4,0.0,0.0,5.0,0,0,7.1495601173020535,2.843837261199951
0,,2024-07-26 13:08:49,sub_118,3,distance,cathedral,localisation_accuracy,1,9,pinknoise,,,pinknoise_9.wav,92.06165951693143,30,0.45020256901450506,7,RX81,8,0.0,0.0,9.0,0,0,11.592375366568916,2.3125619888305664
0,,2024-07-26 13:08:54,sub_118,3,distance,cathedral,localisation_accuracy,1,10,pinknoise,,,pinknoise_0.wav,84.45835404107909,30,0.08570668286291772,0,RX81,1,0.0,0.0,2.0,0,0,3.3079178885630505,3.5938503742218018
0,,2024-07-26 13:08:59,sub_118,3,distance,cathedral,localisation_accuracy,1,11,pinknoise,,,pinknoise_1.wav,91.84278300760258,30,0.36402688158489405,6,RX81,7,0.0,0.0,8.0,0,0,8.87976539589443,3.5782463550567627
0,,2024-07-26 13:09:02,sub_118,3,distance,cathedral,localisation_accuracy,1,12,pinknoise,,,pinknoise_9.wav,90.09662888179945,30,-0.34805191042390127,5,RX81,6,0.0,0.0,7.0,0,0,6.093841642228739,1.8281636238098145
0,,2024-07-26 13:09:06,sub_118,3,distance,cathedral,localisation_accuracy,1,13,pinknoise,,,pinknoise_0.wav,92.14270544264872,30,0.19264862434818675,9,RX81,10,0.0,0.0,11.0,0,0,11.12316715542522,3.156351327896118
0,,2024-07-26 13:09:10,sub_118,3,distance,cathedral,localisation_accuracy,1,14,pinknoise,,,pinknoise_7.wav,91.65049757104836,30,-0.12091628495967732,7,RX81,8,0.0,0.0,9.0,0,0,8.483870967741936,2.5625550746917725
0,,2024-07-26 13:09:13,sub_118,3,distance,cathedral,localisation_accuracy,1,15,pinknoise,,,pinknoise_0.wav,89.45440306046567,30,0.18849110462045293,4,RX81,5,0.0,0.0,6.0,0,0,5.8885630498533725,1.9375441074371338
0,,2024-07-26 13:09:17,sub_118,3,distance,cathedral,localisation_accuracy,1,16,pinknoise,,,pinknoise_5.wav,84.48765369674234,30,0.12941774014381913,0,RX81,1,0.0,0.0,2.0,0,0,2.970674486803519,3.2188549041748047
0,,2024-07-26 13:09:21,sub_118,3,distance,cathedral,localisation_accuracy,1,17,pinknoise,,,pinknoise_8.wav,93.24303585267741,30,0.3435773679668852,10,RX81,11,0.0,0.0,12.0,0,0,8.850439882697948,2.4687976837158203
0,,2024-07-26 13:09:24,sub_118,3,distance,cathedral,localisation_accuracy,1,18,pinknoise,,,pinknoise_2.wav,87.64466392227112,30,0.10758135186478646,2,RX81,3,0.0,0.0,4.0,0,0,4.099706744868035,1.7031362056732178
0,,2024-07-26 13:09:27,sub_118,3,distance,cathedral,localisation_accuracy,1,19,pinknoise,,,pinknoise_2.wav,86.15539692247361,30,-0.07082330627454625,1,RX81,2,0.0,0.0,3.0,0,0,2.868035190615836,2.7032063007354736
0,,2024-07-26 13:09:31,sub_118,3,distance,cathedral,localisation_accuracy,1,20,pinknoise,,,pinknoise_9.wav,89.22178868017826,30,0.10369320487341105,3,RX81,4,0.0,0.0,5.0,0,0,8.234604105571847,1.8906476497650146
0,,2024-07-26 13:09:35,sub_118,3,distance,cathedral,localisation_accuracy,1,21,pinknoise,,,pinknoise_4.wav,92.2736417723528,30,0.36716937950950557,8,RX81,9,0.0,0.0,10.0,0,0,11.313782991202347,3.3125879764556885
0,,2024-07-26 13:09:39,sub_118,3,distance,cathedral,localisation_accuracy,1,22,pinknoise,,,pinknoise_1.wav,87.76096687834806,30,0.27705116638538885,2,RX81,3,0.0,0.0,4.0,0,0,4.87683284457478,2.343794822692871
0,,2024-07-26 13:09:42,sub_118,3,distance,cathedral,localisation_accuracy,1,23,pinknoise,,,pinknoise_1.wav,84.33481310876857,30,-0.09790307685532895,0,RX81,1,0.0,0.0,2.0,0,0,2.9266862170087977,2.421942949295044
0,,2024-07-26 13:09:45,sub_118,3,distance,cathedral,localisation_accuracy,1,24,pinknoise,,,pinknoise_8.wav,88.99526678362548,30,-0.21833978549573574,3,RX81,4,0.0,0.0,5.0,0,0,6.841642228739003,1.8750419616699219
0,,2024-07-26 13:09:48,sub_118,3,distance,cathedral,localisation_accuracy,1,25,pinknoise,,,pinknoise_2.wav,86.02846281491898,30,-0.25554062150154055,1,RX81,2,0.0,0.0,3.0,0,0,4.407624633431086,1.8281424045562744
0,,2024-07-26 13:09:51,sub_118,3,distance,cathedral,localisation_accuracy,1,26,pinknoise,,,pinknoise_3.wav,91.56412775035892,30,-0.035325192928449156,6,RX81,7,0.0,0.0,8.0,0,0,10.228739002932553,1.82814359664917
0,,2024-07-26 13:09:54,sub_118,3,distance,cathedral,localisation_accuracy,1,27,pinknoise,,,pinknoise_2.wav,92.24888577743118,30,0.34325274893514024,9,RX81,10,0.0,0.0,11.0,0,0,11.70967741935484,1.718832015991211
0,,2024-07-26 13:09:57,sub_118,3,distance,cathedral,localisation_accuracy,1,28,pinknoise,,,pinknoise_7.wav,93.19335801723057,30,0.27302012915668084,10,RX81,11,0.0,0.0,12.0,0,0,10.712609970674487,2.093801975250244
0,,2024-07-26 13:10:00,sub_118,3,distance,cathedral,localisation_accuracy,1,29,pinknoise,,,pinknoise_1.wav,92.07910391372678,30,0.47467341358024717,7,RX81,8,0.0,0.0,9.0,0,0,8.498533724340177,1.5625050067901611
0,,2024-07-26 13:10:03,sub_118,3,distance,cathedral,localisation_accuracy,1,30,pinknoise,,,pinknoise_0.wav,89.21720849812831,30,-0.12854520914735057,4,RX81,5,0.0,0.0,6.0,0,0,4.5982404692082115,1.8594157695770264
0,,2024-07-26 13:10:07,sub_118,3,distance,cathedral,localisation_accuracy,1,31,pinknoise,,,pinknoise_7.wav,90.5718624085962,30,0.3311781457593136,5,RX81,6,0.0,0.0,7.0,0,0,5.756598240469208,2.2500598430633545
0,,2024-07-26 13:10:09,sub_118,3,distance,cathedral,localisation_accuracy,1,32,pinknoise,,,pinknoise_0.wav,91.86527939297973,30,-0.21114027656117274,8,RX81,9,0.0,0.0,10.0,0,0,9.407624633431086,1.6875300407409668
0,,2024-07-26 13:10:12,sub_118,3,distance,cathedral,localisation_accuracy,1,33,pinknoise,,,pinknoise_9.wav,89.36827013011214,30,0.07297785991120842,4,RX81,5,0.0,0.0,6.0,0,0,5.507331378299121,1.9531502723693848
0,,2024-07-26 13:10:15,sub_118,3,distance,cathedral,localisation_accuracy,1,34,pinknoise,,,pinknoise_6.wav,86.47881284514307,30,0.4050201354821229,1,RX81,2,0.0,0.0,3.0,0,0,2.516129032258065,1.4687726497650146
0,,2024-07-26 13:10:18,sub_118,3,distance,cathedral,localisation_accuracy,1,35,pinknoise,,,pinknoise_1.wav,84.65538887742295,30,0.3808808253469058,0,RX81,1,0.0,0.0,2.0,0,0,3.131964809384164,1.859415054321289
0,,2024-07-26 13:10:22,sub_118,3,distance,cathedral,localisation_accuracy,1,36,pinknoise,,,pinknoise_3.wav,91.76948600224888,30,0.25846899820359115,6,RX81,7,0.0,0.0,8.0,0,0,8.337243401759531,2.187534809112549
0,,2024-07-26 13:10:25,sub_118,3,distance,cathedral,localisation_accuracy,1,37,pinknoise,,,pinknoise_1.wav,90.43332667380396,30,0.1315841329099483,5,RX81,6,0.0,0.0,7.0,0,0,6.914956011730206,2.453171730041504
0,,2024-07-26 13:10:28,sub_118,3,distance,cathedral,localisation_accuracy,1,38,pinknoise,,,pinknoise_6.wav,89.21419562783524,30,0.09284240804174593,3,RX81,4,0.0,0.0,5.0,0,0,3.7184750733137832,2.109485387802124
0,,2024-07-26 13:10:31,sub_118,3,distance,cathedral,localisation_accuracy,1,39,pinknoise,,,pinknoise_3.wav,91.69861794043211,30,-0.42917804776856905,9,RX81,10,0.0,0.0,11.0,0,0,10.287390029325515,1.89066481590271
0,,2024-07-26 13:10:34,sub_118,3,distance,cathedral,localisation_accuracy,1,40,pinknoise,,,pinknoise_0.wav,87.78985729072647,30,0.3192962749954392,2,RX81,3,0.0,0.0,4.0,0,0,5.844574780058651,1.7812654972076416
0,,2024-07-26 13:10:38,sub_118,3,distance,cathedral,localisation_accuracy,1,41,pinknoise,,,pinknoise_4.wav,91.45860513904654,30,-0.38378327622730535,7,RX81,8,0.0,0.0,9.0,0,0,9.671554252199414,1.9219181537628174
0,,2024-07-26 13:10:40,sub_118,3,distance,cathedral,localisation_accuracy,1,42,pinknoise,,,pinknoise_6.wav,92.94560177553821,30,-0.07642517200947607,10,RX81,11,0.0,0.0,12.0,0,0,11.70967741935484,1.7187838554382324
0,,2024-07-26 13:10:43,sub_118,3,distance,cathedral,localisation_accuracy,1,43,pinknoise,,,pinknoise_5.wav,92.35856358667459,30,0.48883589311750086,8,RX81,9,0.0,0.0,10.0,0,0,10.609970674486805,1.7500169277191162
0,,2024-07-26 13:10:47,sub_118,3,distance,cathedral,localisation_accuracy,1,44,pinknoise,,,pinknoise_4.wav,84.55492722568096,30,0.23002105340046752,0,RX81,1,0.0,0.0,2.0,0,0,3.322580645161291,2.203181505203247
0,,2024-07-26 13:10:50,sub_118,3,distance,cathedral,localisation_accuracy,1,45,pinknoise,,,pinknoise_1.wav,89.06606528551328,30,-0.32882558476714463,4,RX81,5,0.0,0.0,6.0,0,0,6.621700879765397,2.5625522136688232
0,,2024-07-26 13:10:53,sub_118,3,distance,cathedral,localisation_accuracy,1,46,pinknoise,,,pinknoise_1.wav,90.5110698663372,30,0.24342960507443756,5,RX81,6,0.0,0.0,7.0,0,0,8.263929618768328,1.6562817096710205
0,,2024-07-26 13:10:56,sub_118,3,distance,cathedral,localisation_accuracy,1,47,pinknoise,,,pinknoise_5.wav,86.24148666333868,30,0.05510878399917296,1,RX81,2,0.0,0.0,3.0,0,0,3.8504398826979473,1.9062716960906982
0,,2024-07-26 13:11:01,sub_118,3,distance,cathedral,localisation_accuracy,1,48,pinknoise,,,pinknoise_7.wav,91.74717966160401,30,-0.376326869300152,8,RX81,9,0.0,0.0,10.0,0,0,9.24633431085044,3.375113010406494
0,,2024-07-26 13:11:04,sub_118,3,distance,cathedral,localisation_accuracy,1,49,pinknoise,,,pinknoise_3.wav,91.76413500856742,30,-0.33825052513910303,9,RX81,10,0.0,0.0,11.0,0,0,10.859237536656892,1.8125169277191162
0,,2024-07-26 13:11:10,sub_118,3,distance,cathedral,localisation_accuracy,1,50,pinknoise,,,pinknoise_4.wav,92.79731272096221,30,-0.2836453408363965,10,RX81,11,0.0,0.0,12.0,0,0,12.002932551319649,4.390784502029419
0,,2024-07-26 13:11:14,sub_118,3,distance,cathedral,localisation_accuracy,1,51,pinknoise,,,pinknoise_6.wav,91.92041578700795,30,0.4762304717708796,6,RX81,7,0.0,0.0,8.0,0,0,8.469208211143696,2.9219658374786377
0,,2024-07-26 13:11:17,sub_118,3,distance,cathedral,localisation_accuracy,1,52,pinknoise,,,pinknoise_2.wav,89.11620812958023,30,-0.04683551328501834,3,RX81,4,0.0,0.0,5.0,0,0,3.93841642228739,1.8281645774841309
0,,2024-07-26 13:11:20,sub_118,3,distance,cathedral,localisation_accuracy,1,53,pinknoise,,,pinknoise_0.wav,87.40192516597406,30,-0.24307352643049784,2,RX81,3,0.0,0.0,4.0,0,0,5.023460410557185,2.281310558319092
0,,2024-07-26 13:11:23,sub_118,3,distance,cathedral,localisation_accuracy,1,54,pinknoise,,,pinknoise_1.wav,91.86831963655534,30,0.180299320724427,7,RX81,8,0.0,0.0,9.0,0,0,9.774193548387098,1.8281645774841309
0,,2024-07-26 13:12:20,sub_118,3,distance,cathedral,localisation_accuracy,2,0,pinknoise,,,pinknoise_4.wav,91.79300012453695,30,-0.3123466273090646,8,RX81,9,0.0,0.0,10.0,0,0,9.041055718475073,3.7658190727233887
0,,2024-07-26 13:12:23,sub_118,3,distance,cathedral,localisation_accuracy,2,1,pinknoise,,,pinknoise_4.wav,87.37599107498716,30,-0.28029500754733494,2,RX81,3,0.0,0.0,4.0,0,0,5.771260997067449,1.7812871932983398
0,,2024-07-26 13:12:27,sub_118,3,distance,cathedral,localisation_accuracy,2,2,pinknoise,,,pinknoise_0.wav,91.87183460098451,30,-0.188172240358911,9,RX81,10,0.0,0.0,11.0,0,0,11.533724340175954,2.5000710487365723
0,,2024-07-26 13:12:30,sub_118,3,distance,cathedral,localisation_accuracy,2,3,pinknoise,,,pinknoise_0.wav,89.53477235312931,30,0.2966748312709212,4,RX81,5,0.0,0.0,6.0,0,0,9.656891495601174,2.2970011234283447
0,,2024-07-26 13:12:34,sub_118,3,distance,cathedral,localisation_accuracy,2,4,pinknoise,,,pinknoise_1.wav,90.0430225536401,30,-0.42370800919649276,5,RX81,6,0.0,0.0,7.0,0,0,10.815249266862171,2.8594439029693604
0,,2024-07-26 13:12:38,sub_118,3,distance,cathedral,localisation_accuracy,2,5,pinknoise,,,pinknoise_6.wav,84.16497431332755,30,-0.3484941871867664,0,RX81,1,0.0,0.0,2.0,0,0,3.3812316715542527,2.4688196182250977
0,,2024-07-26 13:12:42,sub_118,3,distance,cathedral,localisation_accuracy,2,6,pinknoise,,,pinknoise_6.wav,89.31675969183266,30,0.2397418126945594,3,RX81,4,0.0,0.0,5.0,0,0,5.375366568914957,3.14072585105896
0,,2024-07-26 13:12:45,sub_118,3,distance,cathedral,localisation_accuracy,2,7,pinknoise,,,pinknoise_7.wav,86.026956330052,30,-0.25772603214324663,1,RX81,2,0.0,0.0,3.0,0,0,4.290322580645162,2.0625319480895996
0,,2024-07-26 13:12:51,sub_118,3,distance,cathedral,localisation_accuracy,2,8,pinknoise,,,pinknoise_8.wav,91.83237170864737,30,0.1303802655993308,7,RX81,8,0.0,0.0,9.0,0,0,9.906158357771261,3.9376378059387207
0,,2024-07-26 13:12:54,sub_118,3,distance,cathedral,localisation_accuracy,2,9,pinknoise,,,pinknoise_4.wav,91.52008038101171,30,-0.09796872678867474,6,RX81,7,0.0,0.0,8.0,0,0,8.395894428152493,2.328187942504883
0,,2024-07-26 13:12:57,sub_118,3,distance,cathedral,localisation_accuracy,2,10,pinknoise,,,pinknoise_1.wav,92.90587198490596,30,-0.1320851561107137,10,RX81,11,0.0,0.0,12.0,0,0,10.932551319648095,1.6250085830688477
0,,2024-07-26 13:13:01,sub_118,3,distance,cathedral,localisation_accuracy,2,11,pinknoise,,,pinknoise_0.wav,87.33546028380472,30,-0.33837294596057654,2,RX81,3,0.0,0.0,4.0,0,0,4.568914956011731,2.8438339233398438
0,,2024-07-26 13:13:05,sub_118,3,distance,cathedral,localisation_accuracy,2,12,pinknoise,,,pinknoise_3.wav,92.01773730447744,30,0.016353562865097926,9,RX81,10,0.0,0.0,11.0,0,0,10.771260997067449,2.6407015323638916
0,,2024-07-26 13:13:08,sub_118,3,distance,cathedral,localisation_accuracy,2,13,pinknoise,,,pinknoise_2.wav,91.69810742952691,30,-0.4446947346346404,8,RX81,9,0.0,0.0,10.0,0,0,11.768328445747802,1.687511682510376
0,,2024-07-26 13:13:11,sub_118,3,distance,cathedral,localisation_accuracy,2,14,pinknoise,,,pinknoise_3.wav,88.80004031319288,30,-0.49311662274259394,3,RX81,4,0.0,0.0,5.0,0,0,6.343108504398828,1.9531700611114502
0,,2024-07-26 13:13:14,sub_118,3,distance,cathedral,localisation_accuracy,2,15,pinknoise,,,pinknoise_3.wav,91.59313013455703,30,-0.1997455650511165,7,RX81,8,0.0,0.0,9.0,0,0,9.466275659824047,1.8906669616699219
0,,2024-07-26 13:13:17,sub_118,3,distance,cathedral,localisation_accuracy,2,16,pinknoise,,,pinknoise_8.wav,91.70454866925343,30,0.16525681659091362,6,RX81,7,0.0,0.0,8.0,0,0,6.533724340175954,2.093801259994507
0,,2024-07-26 13:13:20,sub_118,3,distance,cathedral,localisation_accuracy,2,17,pinknoise,,,pinknoise_6.wav,84.21718614038406,30,-0.2716818752003447,0,RX81,1,0.0,0.0,2.0,0,0,3.0733137829912023,1.34376859664917
0,,2024-07-26 13:13:24,sub_118,3,distance,cathedral,localisation_accuracy,2,18,pinknoise,,,pinknoise_3.wav,92.94573988220174,30,-0.07623150882757013,10,RX81,11,0.0,0.0,12.0,0,0,10.4633431085044,3.2813570499420166
0,,2024-07-26 13:13:28,sub_118,3,distance,cathedral,localisation_accuracy,2,19,pinknoise,,,pinknoise_8.wav,89.14000227152215,30,-0.23101977348185554,4,RX81,5,0.0,0.0,6.0,0,0,6.680351906158359,2.5156962871551514
0,,2024-07-26 13:13:33,sub_118,3,distance,cathedral,localisation_accuracy,2,20,pinknoise,,,pinknoise_6.wav,90.56218281593286,30,0.3171895061732636,5,RX81,6,0.0,0.0,7.0,0,0,7.692082111436951,4.3282787799835205
0,,2024-07-26 13:13:36,sub_118,3,distance,cathedral,localisation_accuracy,2,21,pinknoise,,,pinknoise_9.wav,86.2410427468428,30,0.054458065667479016,1,RX81,2,0.0,0.0,3.0,0,0,4.334310850439883,2.031299352645874
0,,2024-07-26 13:13:40,sub_118,3,distance,cathedral,localisation_accuracy,2,22,pinknoise,,,pinknoise_0.wav,87.74323257432502,30,0.25114827817698404,2,RX81,3,0.0,0.0,4.0,0,0,5.038123167155426,2.2187867164611816
0,,2024-07-26 13:13:43,sub_118,3,distance,cathedral,localisation_accuracy,2,23,pinknoise,,,pinknoise_7.wav,91.43181448011879,30,-0.22310533756936712,6,RX81,7,0.0,0.0,8.0,0,0,9.55425219941349,1.6875112056732178
0,,2024-07-26 13:13:47,sub_118,3,distance,cathedral,localisation_accuracy,2,24,pinknoise,,,pinknoise_9.wav,88.89351159397165,30,-0.36187568691308647,3,RX81,4,0.0,0.0,5.0,0,0,5.507331378299121,3.171978235244751
0,,2024-07-26 13:13:52,sub_118,3,distance,cathedral,localisation_accuracy,2,25,pinknoise,,,pinknoise_7.wav,93.33952200058539,30,0.4810864867354465,10,RX81,11,0.0,0.0,12.0,0,0,10.551319648093843,3.5000972747802734
0,,2024-07-26 13:13:56,sub_118,3,distance,cathedral,localisation_accuracy,2,26,pinknoise,,,pinknoise_8.wav,92.07371663784323,30,0.4671140928174893,7,RX81,8,0.0,0.0,9.0,0,0,9.334310850439884,3.4688668251037598
0,,2024-07-26 13:13:59,sub_118,3,distance,cathedral,localisation_accuracy,2,27,pinknoise,,,pinknoise_7.wav,91.91998498059716,30,-0.13431149506632378,8,RX81,9,0.0,0.0,10.0,0,0,11.211143695014664,1.7031598091125488
0,,2024-07-26 13:14:02,sub_118,3,distance,cathedral,localisation_accuracy,2,28,pinknoise,,,pinknoise_6.wav,89.24472548611215,30,-0.09193715673702674,4,RX81,5,0.0,0.0,6.0,0,0,7.67741935483871,1.9062931537628174
0,,2024-07-26 13:14:06,sub_118,3,distance,cathedral,localisation_accuracy,2,29,pinknoise,,,pinknoise_1.wav,85.85979840204982,30,-0.49922215110509727,1,RX81,2,0.0,0.0,3.0,0,0,4.026392961876833,2.4219820499420166
0,,2024-07-26 13:14:09,sub_118,3,distance,cathedral,localisation_accuracy,2,30,pinknoise,,,pinknoise_3.wav,90.00768989500247,30,-0.47346839454334166,5,RX81,6,0.0,0.0,7.0,0,0,6.357771260997067,2.218787908554077
0,,2024-07-26 13:14:12,sub_118,3,distance,cathedral,localisation_accuracy,2,31,pinknoise,,,pinknoise_0.wav,91.75955360411321,30,-0.34461788553685546,9,RX81,10,0.0,0.0,11.0,0,0,9.55425219941349,1.8750879764556885
0,,2024-07-26 13:14:16,sub_118,3,distance,cathedral,localisation_accuracy,2,32,pinknoise,,,pinknoise_1.wav,84.43272820248582,30,0.04752844492158337,0,RX81,1,0.0,0.0,2.0,0,0,3.0879765395894427,2.8281900882720947
0,,2024-07-26 13:14:20,sub_118,3,distance,cathedral,localisation_accuracy,2,33,pinknoise,,,pinknoise_7.wav,92.15230659080866,30,0.2062359110851233,9,RX81,10,0.0,0.0,11.0,0,0,10.932551319648095,2.3750455379486084
0,,2024-07-26 13:14:23,sub_118,3,distance,cathedral,localisation_accuracy,2,34,pinknoise,,,pinknoise_2.wav,88.80046780899175,30,-0.49251771029474556,3,RX81,4,0.0,0.0,5.0,0,0,4.803519061583578,2.5313034057617188
0,,2024-07-26 13:14:26,sub_118,3,distance,cathedral,localisation_accuracy,2,35,pinknoise,,,pinknoise_3.wav,89.59157545326508,30,0.3733702642353507,4,RX81,5,0.0,0.0,6.0,0,0,7.516129032258066,1.6875114440917969
0,,2024-07-26 13:14:31,sub_118,3,distance,cathedral,localisation_accuracy,2,36,pinknoise,,,pinknoise_8.wav,90.22896623603741,30,-0.16045088951118092,5,RX81,6,0.0,0.0,7.0,0,0,8.454545454545455,3.3126535415649414
0,,2024-07-26 13:14:34,sub_118,3,distance,cathedral,localisation_accuracy,2,37,pinknoise,,,pinknoise_0.wav,91.8888286971547,30,-0.17809178143530913,8,RX81,9,0.0,0.0,10.0,0,0,10.78592375366569,2.031280279159546
0,,2024-07-26 13:14:37,sub_118,3,distance,cathedral,localisation_accuracy,2,38,pinknoise,,,pinknoise_4.wav,91.60274496194872,30,-0.18654823800681564,7,RX81,8,0.0,0.0,9.0,0,0,11.958944281524927,2.078155040740967
0,,2024-07-26 13:14:40,sub_118,3,distance,cathedral,localisation_accuracy,2,39,pinknoise,,,pinknoise_1.wav,93.19172682480165,30,0.2707061369238406,10,RX81,11,0.0,0.0,12.0,0,0,10.551319648093843,1.5000033378601074
0,,2024-07-26 13:14:43,sub_118,3,distance,cathedral,localisation_accuracy,2,40,pinknoise,,,pinknoise_0.wav,91.52557470058396,30,-0.090161939294096,6,RX81,7,0.0,0.0,8.0,0,0,10.78592375366569,2.3750429153442383
0,,2024-07-26 13:14:48,sub_118,3,distance,cathedral,localisation_accuracy,2,41,pinknoise,,,pinknoise_7.wav,84.26801596966638,30,-0.19671156506436183,0,RX81,1,0.0,0.0,2.0,0,0,4.026392961876833,3.2032546997070312
0,,2024-07-26 13:14:51,sub_118,3,distance,cathedral,localisation_accuracy,2,42,pinknoise,,,pinknoise_9.wav,87.5625300448491,30,-0.011527496579278873,2,RX81,3,0.0,0.0,4.0,0,0,4.906158357771261,2.093801498413086
0,,2024-07-26 13:14:55,sub_118,3,distance,cathedral,localisation_accuracy,2,43,pinknoise,,,pinknoise_9.wav,86.06732091497244,30,-0.1991148632250096,1,RX81,2,0.0,0.0,3.0,0,0,4.627565982404692,2.7813339233398438
0,,2024-07-26 13:14:58,sub_118,3,distance,cathedral,localisation_accuracy,2,44,pinknoise,,,pinknoise_9.wav,88.90266386453283,30,-0.3489938537667,3,RX81,4,0.0,0.0,5.0,0,0,5.8885630498533725,1.4062511920928955
0,,2024-07-26 13:15:01,sub_118,3,distance,cathedral,localisation_accuracy,2,45,pinknoise,,,pinknoise_5.wav,91.52130738057082,30,-0.09622548021228139,6,RX81,7,0.0,0.0,8.0,0,0,8.263929618768328,2.0625486373901367
0,,2024-07-26 13:15:05,sub_118,3,distance,cathedral,localisation_accuracy,2,46,pinknoise,,,pinknoise_6.wav,92.75942855138526,30,-0.33635441721170334,10,RX81,11,0.0,0.0,12.0,0,0,11.152492668621703,2.8438844680786133
0,,2024-07-26 13:15:08,sub_118,3,distance,cathedral,localisation_accuracy,2,47,pinknoise,,,pinknoise_0.wav,87.37141463542473,30,-0.2868584332643914,2,RX81,3,0.0,0.0,4.0,0,0,4.86217008797654,2.390671968460083
0,,2024-07-26 13:15:12,sub_118,3,distance,cathedral,localisation_accuracy,2,48,pinknoise,,,pinknoise_7.wav,92.29941003961588,30,0.4151789281407614,9,RX81,10,0.0,0.0,11.0,0,0,10.961876832844576,2.0156514644622803
0,,2024-07-26 13:15:14,sub_118,3,distance,cathedral,localisation_accuracy,2,49,pinknoise,,,pinknoise_4.wav,92.22807055077314,30,0.3020803097466561,8,RX81,9,0.0,0.0,10.0,0,0,11.768328445747802,1.4687724113464355
0,,2024-07-26 13:15:21,sub_118,3,distance,cathedral,localisation_accuracy,2,50,pinknoise,,,pinknoise_7.wav,84.67314318462365,30,0.40762002587984303,0,RX81,1,0.0,0.0,2.0,0,0,2.868035190615836,5.46896505355835
0,,2024-07-26 13:15:25,sub_118,3,distance,cathedral,localisation_accuracy,2,51,pinknoise,,,pinknoise_9.wav,90.51683554330828,30,0.2517409307437093,5,RX81,6,0.0,0.0,7.0,0,0,6.856304985337244,2.5781779289245605
0,,2024-07-26 13:15:27,sub_118,3,distance,cathedral,localisation_accuracy,2,52,pinknoise,,,pinknoise_4.wav,91.70412564122356,30,-0.04703674529335311,7,RX81,8,0.0,0.0,9.0,0,0,8.762463343108505,1.2031352519989014
0,,2024-07-26 13:15:30,sub_118,3,distance,cathedral,localisation_accuracy,2,53,pinknoise,,,pinknoise_4.wav,86.21380116677511,30,0.01455273904905241,1,RX81,2,0.0,0.0,3.0,0,0,4.392961876832845,2.2187864780426025
0,,2024-07-26 13:15:34,sub_118,3,distance,cathedral,localisation_accuracy,2,54,pinknoise,,,pinknoise_2.wav,88.9852597095086,30,-0.43534988218972304,4,RX81,5,0.0,0.0,6.0,0,0,7.281524926686217,2.68757963180542
0,,2024-07-26 13:16:57,sub_118,3,distance,cathedral,localisation_accuracy,3,0,babble,,,babble-reversed_n13_p256-four-p229-eight-p307-five-p248-three-p245-one-p284-two.wav,85.9827805891215,30,-0.3217390630697322,1,RX81,2,0.0,0.0,3.0,0,0,3.9530791788856305,2.546954870223999
0,,2024-07-26 13:17:00,sub_118,3,distance,cathedral,localisation_accuracy,3,1,babble,,,babble-reversed_n13_p229-nine-p318-one-p307-two-p248-eight-p245-five-p284-four.wav,87.64691401146737,30,0.1108510336885522,2,RX81,3,0.0,0.0,4.0,0,0,6.196480938416423,1.531294822692871
0,,2024-07-26 13:17:03,sub_118,3,distance,cathedral,localisation_accuracy,3,2,babble,,,babble-reversed_n13_p318-five-p229-three-p256-four-p268-eight-p248-one-p245-nine.wav,91.70055520193822,30,0.15953390515508892,6,RX81,7,0.0,0.0,8.0,0,0,9.979472140762464,1.6875102519989014
0,,2024-07-26 13:17:05,sub_118,3,distance,cathedral,localisation_accuracy,3,3,babble,,,babble-reversed_n13_p318-one-p307-two-p256-eight-p284-three-p248-five-p245-four.wav,90.11296528108429,30,-0.32495744427585216,5,RX81,6,0.0,0.0,7.0,0,0,8.87976539589443,1.6250083446502686
0,,2024-07-26 13:17:08,sub_118,3,distance,cathedral,localisation_accuracy,3,4,babble,,,babble-reversed_n13_p256-four-p307-eight-p318-two-p248-three-p284-nine-p268-one.wav,91.68514227155825,30,-0.46273154095530467,8,RX81,9,0.0,0.0,10.0,0,0,11.020527859237538,1.2187390327453613
0,,2024-07-26 13:17:11,sub_118,3,distance,cathedral,localisation_accuracy,3,5,babble,,,babble-reversed_n13_p318-five-p256-nine-p307-two-p245-eight-p248-one-p284-four.wav,88.86193081926481,30,-0.40628271189522946,3,RX81,4,0.0,0.0,5.0,0,0,6.299120234604105,1.8281428813934326
0,,2024-07-26 13:17:13,sub_118,3,distance,cathedral,localisation_accuracy,3,6,babble,,,babble-reversed_n13_p229-nine-p256-four-p318-three-p268-eight-p248-two-p284-five.wav,91.55734151562527,30,-0.2488177568152844,7,RX81,8,0.0,0.0,9.0,0,0,9.348973607038124,1.5781314373016357
0,,2024-07-26 13:17:17,sub_118,3,distance,cathedral,localisation_accuracy,3,7,babble,,,babble-reversed_n13_p318-five-p256-nine-p307-two-p245-eight-p248-one-p284-four.wav,89.37533247588456,30,0.08243254450781834,4,RX81,5,0.0,0.0,6.0,0,0,8.366568914956012,2.1250340938568115
0,,2024-07-26 13:17:19,sub_118,3,distance,cathedral,localisation_accuracy,3,8,babble,,,babble-reversed_n13_p318-one-p307-two-p256-eight-p284-three-p248-five-p245-four.wav,91.79367413106861,30,-0.29716341249282974,9,RX81,10,0.0,0.0,11.0,0,0,10.140762463343108,1.6093833446502686
0,,2024-07-26 13:17:23,sub_118,3,distance,cathedral,localisation_accuracy,3,9,babble,,,babble-reversed_n13_p318-nine-p307-eight-p229-two-p284-one-p248-three-p245-five.wav,84.47565239450662,30,0.11150577380708415,0,RX81,1,0.0,0.0,2.0,0,0,5.595307917888563,2.609452724456787
0,,2024-07-26 13:17:27,sub_118,3,distance,cathedral,localisation_accuracy,3,10,babble,,,babble-reversed_n13_p256-four-p307-eight-p318-two-p248-three-p284-nine-p268-one.wav,92.95409993677805,30,-0.06450609926656314,10,RX81,11,0.0,0.0,12.0,0,0,9.87683284457478,3.1719563007354736
0,,2024-07-26 13:17:31,sub_118,3,distance,cathedral,localisation_accuracy,3,11,babble,,,babble-reversed_n13_p229-five-p318-two-p307-eight-p268-three-p248-four-p245-one.wav,91.95258313996658,30,0.2976361356727417,7,RX81,8,0.0,0.0,9.0,0,0,8.29325513196481,2.0000252723693848
0,,2024-07-26 13:17:34,sub_118,3,distance,cathedral,localisation_accuracy,3,12,babble,,,babble-reversed_n13_p307-two-p256-four-p318-three-p284-eight-p248-five-p245-nine.wav,86.16019751908476,30,-0.06381490462423167,1,RX81,2,0.0,0.0,3.0,0,0,5.067448680351907,2.3750646114349365
0,,2024-07-26 13:17:38,sub_118,3,distance,cathedral,localisation_accuracy,3,13,babble,,,babble-reversed_n13_p256-eight-p318-five-p307-four-p245-three-p268-one-p284-nine.wav,92.09494358301252,30,0.12514809567617258,9,RX81,10,0.0,0.0,11.0,0,0,8.513196480938417,2.8281898498535156
0,,2024-07-26 13:17:41,sub_118,3,distance,cathedral,localisation_accuracy,3,14,babble,,,babble-reversed_n13_p307-five-p229-two-p318-four-p248-three-p245-nine-p268-eight.wav,91.66200165215946,30,0.1043398424308416,6,RX81,7,0.0,0.0,8.0,0,0,7.208211143695015,2.203181743621826
0,,2024-07-26 13:17:46,sub_118,3,distance,cathedral,localisation_accuracy,3,15,babble,,,babble-reversed_n13_p256-eight-p318-two-p307-five-p245-four-p268-nine-p284-one.wav,84.60899917890316,30,0.31112569770041276,0,RX81,1,0.0,0.0,2.0,0,0,3.93841642228739,3.296980619430542
0,,2024-07-26 13:17:49,sub_118,3,distance,cathedral,localisation_accuracy,3,16,babble,,,babble-reversed_n13_p229-five-p318-two-p307-eight-p268-three-p248-four-p245-one.wav,88.81231614545536,30,-0.4759136066205233,3,RX81,4,0.0,0.0,5.0,0,0,5.316715542521995,2.140678644180298
0,,2024-07-26 13:17:52,sub_118,3,distance,cathedral,localisation_accuracy,3,17,babble,,,babble-reversed_n13_p256-four-p229-eight-p307-five-p248-three-p245-one-p284-two.wav,93.05229997928244,30,0.0735689819440637,10,RX81,11,0.0,0.0,12.0,0,0,7.398826979472142,1.7812864780426025
0,,2024-07-26 13:17:55,sub_118,3,distance,cathedral,localisation_accuracy,3,18,babble,,,babble-reversed_n13_p229-one-p318-nine-p256-four-p284-eight-p268-five-p245-two.wav,92.06405534374028,30,0.0689709917084026,8,RX81,9,0.0,0.0,10.0,0,0,8.381231671554254,1.5781526565551758
0,,2024-07-26 13:17:57,sub_118,3,distance,cathedral,localisation_accuracy,3,19,babble,,,babble-reversed_n13_p256-four-p229-eight-p307-five-p248-three-p245-one-p284-two.wav,88.93914608968684,30,-0.4959690143408483,4,RX81,5,0.0,0.0,6.0,0,0,7.486803519061585,1.4062676429748535
0,,2024-07-26 13:18:00,sub_118,3,distance,cathedral,localisation_accuracy,3,20,babble,,,babble-reversed_n13_p318-five-p256-nine-p307-two-p245-eight-p248-one-p284-four.wav,87.4649696889359,30,-0.15239538357292215,2,RX81,3,0.0,0.0,4.0,0,0,6.137829912023461,1.453124761581421
0,,2024-07-26 13:18:05,sub_118,3,distance,cathedral,localisation_accuracy,3,21,babble,,,babble-reversed_n13_p256-three-p318-one-p307-two-p284-nine-p268-four-p245-eight.wav,90.36855258295012,30,0.03871264035584043,5,RX81,6,0.0,0.0,7.0,0,0,7.472140762463344,3.656418561935425
0,,2024-07-26 13:18:07,sub_118,3,distance,cathedral,localisation_accuracy,3,22,babble,,,babble-reversed_n13_p229-five-p256-three-p318-nine-p248-two-p284-four-p268-one.wav,84.16615388094156,30,-0.3467610395301972,0,RX81,1,0.0,0.0,2.0,0,0,3.5718475073313787,1.8281643390655518
0,,2024-07-26 13:18:10,sub_118,3,distance,cathedral,localisation_accuracy,3,23,babble,,,babble-reversed_n13_p318-three-p229-one-p256-eight-p245-five-p248-four-p284-nine.wav,88.96753104841184,30,-0.25753259566961717,3,RX81,4,0.0,0.0,5.0,0,0,5.9178885630498534,1.5781526565551758
0,,2024-07-26 13:18:13,sub_118,3,distance,cathedral,localisation_accuracy,3,24,babble,,,babble-reversed_n13_p318-three-p229-one-p256-eight-p245-five-p248-four-p284-nine.wav,91.48071943219537,30,-0.35360793695922754,7,RX81,8,0.0,0.0,9.0,0,0,7.765395894428153,2.1563045978546143
0,,2024-07-26 13:18:16,sub_118,3,distance,cathedral,localisation_accuracy,3,25,babble,,,babble-reversed_n13_p229-three-p256-nine-p318-five-p248-one-p245-eight-p284-two.wav,91.40692423299191,30,-0.25829806359152596,6,RX81,7,0.0,0.0,8.0,0,0,9.260997067448681,1.734407901763916
0,,2024-07-26 13:18:20,sub_118,3,distance,cathedral,localisation_accuracy,3,26,babble,,,babble-reversed_n13_p256-five-p229-one-p318-three-p248-nine-p284-eight-p268-two.wav,92.83181929915187,30,-0.2355540804971865,10,RX81,11,0.0,0.0,12.0,0,0,10.712609970674487,2.1562821865081787
0,,2024-07-26 13:18:23,sub_118,3,distance,cathedral,localisation_accuracy,3,27,babble,,,babble-reversed_n13_p229-three-p307-one-p318-two-p245-eight-p268-five-p284-four.wav,90.31286913568754,30,-0.040896071252582766,5,RX81,6,0.0,0.0,7.0,0,0,7.618768328445748,2.328165292739868
0,,2024-07-26 13:18:26,sub_118,3,distance,cathedral,localisation_accuracy,3,28,babble,,,babble-reversed_n13_p318-nine-p307-eight-p229-two-p284-one-p248-three-p245-five.wav,87.53061761284516,30,-0.057679032369382544,2,RX81,3,0.0,0.0,4.0,0,0,4.319648093841643,1.9062838554382324
0,,2024-07-26 13:18:30,sub_118,3,distance,cathedral,localisation_accuracy,3,29,babble,,,babble-reversed_n13_p229-eight-p256-nine-p318-four-p245-three-p268-five-p284-two.wav,92.07807732050574,30,0.08882965967754575,8,RX81,9,0.0,0.0,10.0,0,0,11.73900293255132,2.828261375427246
0,,2024-07-26 13:18:33,sub_118,3,distance,cathedral,localisation_accuracy,3,30,babble,,,babble-reversed_n13_p307-five-p229-three-p318-nine-p245-four-p268-eight-p284-two.wav,89.07587669052285,30,-0.3158653118825657,4,RX81,5,0.0,0.0,6.0,0,0,6.900293255131965,2.0187268257141113
0,,2024-07-26 13:18:36,sub_118,3,distance,cathedral,localisation_accuracy,3,31,babble,,,babble-reversed_n13_p229-five-p318-two-p307-eight-p268-three-p248-four-p245-one.wav,91.72010765078367,30,-0.39938442574512745,9,RX81,10,0.0,0.0,11.0,0,0,8.850439882697948,1.4062950611114502
0,,2024-07-26 13:18:38,sub_118,3,distance,cathedral,localisation_accuracy,3,32,babble,,,babble-reversed_n13_p318-nine-p256-five-p307-eight-p268-three-p248-one-p245-four.wav,86.03613775047491,30,-0.2444043384868949,1,RX81,2,0.0,0.0,3.0,0,0,4.524926686217009,1.4374995231628418
0,,2024-07-26 13:18:41,sub_118,3,distance,cathedral,localisation_accuracy,3,33,babble,,,babble-reversed_n13_p318-four-p256-five-p229-three-p284-one-p245-eight-p248-nine.wav,92.14301668524335,30,0.19308899063273977,9,RX81,10,0.0,0.0,11.0,0,0,8.425219941348974,1.6875104904174805
0,,2024-07-26 13:18:45,sub_118,3,distance,cathedral,localisation_accuracy,3,34,babble,,,babble-reversed_n13_p318-nine-p307-eight-p229-two-p284-one-p248-three-p245-five.wav,84.33568903131633,30,-0.09660521026065716,0,RX81,1,0.0,0.0,2.0,0,0,5.0527859237536665,2.937591314315796
0,,2024-07-26 13:18:48,sub_118,3,distance,cathedral,localisation_accuracy,3,35,babble,,,babble-reversed_n13_p307-nine-p229-one-p256-eight-p248-four-p284-two-p268-three.wav,90.07770761113625,30,-0.37477809852288724,5,RX81,6,0.0,0.0,7.0,0,0,7.105571847507331,1.546900749206543
0,,2024-07-26 13:18:51,sub_118,3,distance,cathedral,localisation_accuracy,3,36,babble,,,babble-reversed_n13_p307-two-p229-one-p256-five-p248-nine-p284-three-p268-eight.wav,92.32303721806943,30,0.43787847543634295,8,RX81,9,0.0,0.0,10.0,0,0,9.568914956011731,2.140707492828369
0,,2024-07-26 13:18:54,sub_118,3,distance,cathedral,localisation_accuracy,3,37,babble,,,babble-reversed_n13_p229-nine-p307-five-p256-two-p248-three-p245-one-p268-eight.wav,87.38672212016563,30,-0.26489910007019146,2,RX81,3,0.0,0.0,4.0,0,0,6.064516129032258,1.8125662803649902
0,,2024-07-26 13:18:58,sub_118,3,distance,cathedral,localisation_accuracy,3,38,babble,,,babble-reversed_n13_p256-three-p318-one-p307-two-p284-nine-p268-four-p245-eight.wav,89.24455026894817,30,0.136243938838158,3,RX81,4,0.0,0.0,5.0,0,0,7.530791788856305,2.8594412803649902
0,,2024-07-26 13:19:00,sub_118,3,distance,cathedral,localisation_accuracy,3,39,babble,,,babble-reversed_n13_p229-five-p256-three-p318-nine-p248-two-p284-four-p268-one.wav,91.66904192846879,30,0.11441130430311275,6,RX81,7,0.0,0.0,8.0,0,0,8.95307917888563,1.2968683242797852
0,,2024-07-26 13:19:03,sub_118,3,distance,cathedral,localisation_accuracy,3,40,babble,,,babble-reversed_n13_p318-one-p307-two-p256-eight-p284-three-p248-five-p245-four.wav,86.5057514750668,30,0.4449947505060158,1,RX81,2,0.0,0.0,3.0,0,0,3.9237536656891496,1.5156302452087402
0,,2024-07-26 13:19:06,sub_118,3,distance,cathedral,localisation_accuracy,3,41,babble,,,babble-reversed_n13_p229-three-p307-one-p318-two-p245-eight-p268-five-p284-four.wav,89.35094347178577,30,0.04979445789429382,4,RX81,5,0.0,0.0,6.0,0,0,7.472140762463344,1.7031381130218506
0,,2024-07-26 13:19:09,sub_118,3,distance,cathedral,localisation_accuracy,3,42,babble,,,babble-reversed_n13_p307-four-p318-three-p256-eight-p284-two-p245-nine-p248-five.wav,92.76148299511763,30,-0.33349842361352877,10,RX81,11,0.0,0.0,12.0,0,0,11.020527859237538,1.9687952995300293
0,,2024-07-26 13:19:11,sub_118,3,distance,cathedral,localisation_accuracy,3,43,babble,,,babble-reversed_n13_p256-eight-p318-two-p307-five-p245-four-p268-nine-p284-one.wav,91.49441981128481,30,-0.33489810855332913,7,RX81,8,0.0,0.0,9.0,0,0,12.076246334310852,1.4531464576721191
0,,2024-07-26 13:19:14,sub_118,3,distance,cathedral,localisation_accuracy,3,44,babble,,,babble-reversed_n13_p318-nine-p256-five-p307-eight-p268-three-p248-one-p245-four.wav,91.41542364902583,30,-0.24628527980530024,6,RX81,7,0.0,0.0,8.0,0,0,8.571847507331379,1.3124942779541016
0,,2024-07-26 13:19:16,sub_118,3,distance,cathedral,localisation_accuracy,3,45,babble,,,babble-reversed_n13_p318-five-p229-three-p256-four-p268-eight-p248-one-p245-nine.wav,90.64404087542465,30,0.43569188413530013,5,RX81,6,0.0,0.0,7.0,0,0,6.8269794721407635,1.171865463256836
0,,2024-07-26 13:19:19,sub_118,3,distance,cathedral,localisation_accuracy,3,46,babble,,,babble-reversed_n13_p318-one-p307-two-p256-eight-p284-three-p248-five-p245-four.wav,89.4873132022456,30,0.48560984928257966,3,RX81,4,0.0,0.0,5.0,0,0,5.096774193548388,1.8281433582305908
0,,2024-07-26 13:19:22,sub_118,3,distance,cathedral,localisation_accuracy,3,47,babble,,,babble-reversed_n13_p307-four-p318-three-p256-eight-p284-two-p245-nine-p248-five.wav,92.73996337273609,30,-0.3634003775139173,10,RX81,11,0.0,0.0,12.0,0,0,10.4633431085044,2.187556266784668
0,,2024-07-26 13:19:26,sub_118,3,distance,cathedral,localisation_accuracy,3,48,babble,,,babble-reversed_n13_p256-five-p229-one-p318-three-p248-nine-p284-eight-p268-two.wav,86.02512685237967,30,-0.260379782483549,1,RX81,2,0.0,0.0,3.0,0,0,3.6158357771261,2.6875603199005127
0,,2024-07-26 13:19:29,sub_118,3,distance,cathedral,localisation_accuracy,3,49,babble,,,babble-reversed_n13_p318-nine-p307-eight-p229-two-p284-one-p248-three-p245-five.wav,88.99508196507117,30,-0.4224218541841491,4,RX81,5,0.0,0.0,6.0,0,0,5.580645161290323,1.9532339572906494
0,,2024-07-26 13:19:33,sub_118,3,distance,cathedral,localisation_accuracy,3,50,babble,,,babble-reversed_n13_p318-five-p256-nine-p307-two-p245-eight-p248-one-p284-four.wav,87.76456091734418,30,0.28230335525262684,2,RX81,3,0.0,0.0,4.0,0,0,6.533724340175954,2.2656636238098145
0,,2024-07-26 13:19:36,sub_118,3,distance,cathedral,localisation_accuracy,3,51,babble,,,babble-reversed_n13_p307-five-p229-three-p318-nine-p245-four-p268-eight-p284-two.wav,91.6111940286535,30,-0.17494621140667344,7,RX81,8,0.0,0.0,9.0,0,0,8.454545454545455,1.8593964576721191
0,,2024-07-26 13:19:39,sub_118,3,distance,cathedral,localisation_accuracy,3,52,babble,,,babble-reversed_n13_p318-three-p229-one-p256-eight-p245-five-p248-four-p284-nine.wav,84.20068522125055,30,-0.29597896274810565,0,RX81,1,0.0,0.0,2.0,0,0,3.6598240469208214,1.9687745571136475
0,,2024-07-26 13:19:42,sub_118,3,distance,cathedral,localisation_accuracy,3,53,babble,,,babble-reversed_n13_p256-three-p318-two-p229-nine-p248-four-p284-one-p268-eight.wav,92.03893312979014,30,0.046182282929222995,9,RX81,10,0.0,0.0,11.0,0,0,9.114369501466276,1.5781311988830566
0,,2024-07-26 13:19:44,sub_118,3,distance,cathedral,localisation_accuracy,3,54,babble,,,babble-reversed_n13_p229-two-p256-three-p318-eight-p284-five-p268-four-p245-one.wav,91.95656610181584,30,-0.0828262782333351,8,RX81,9,0.0,0.0,10.0,0,0,10.43401759530792,1.3125419616699219
0,,2024-07-26 13:21:12,sub_118,3,distance,cathedral,localisation_accuracy,4,0,babble,,,babble-reversed_n13_p229-one-p318-nine-p256-four-p284-eight-p268-five-p245-two.wav,93.12442156396992,30,0.1753816662232296,10,RX81,11,0.0,0.0,12.0,0,0,9.583577712609971,2.0625381469726562
0,,2024-07-26 13:21:14,sub_118,3,distance,cathedral,localisation_accuracy,4,1,babble,,,babble-reversed_n13_p318-five-p229-four-p256-eight-p284-one-p245-three-p248-two.wav,91.6305826101079,30,-0.1483052722553989,7,RX81,8,0.0,0.0,9.0,0,0,10.4633431085044,1.2500131130218506
0,,2024-07-26 13:21:17,sub_118,3,distance,cathedral,localisation_accuracy,4,2,babble,,,babble-reversed_n13_p229-two-p256-three-p318-eight-p284-five-p268-four-p245-one.wav,91.80244949676407,30,0.30589553253030943,6,RX81,7,0.0,0.0,8.0,0,0,8.395894428152493,2.0781760215759277
0,,2024-07-26 13:21:20,sub_118,3,distance,cathedral,localisation_accuracy,4,3,babble,,,babble-reversed_n13_p318-three-p307-one-p256-five-p248-nine-p245-two-p284-eight.wav,89.17255575918486,30,0.03340675117702119,3,RX81,4,0.0,0.0,5.0,0,0,5.829912023460411,1.6094110012054443
0,,2024-07-26 13:21:23,sub_118,3,distance,cathedral,localisation_accuracy,4,4,babble,,,babble-reversed_n13_p307-one-p318-five-p229-four-p268-eight-p284-two-p245-three.wav,90.38842911593675,30,0.06718063973604904,5,RX81,6,0.0,0.0,7.0,0,0,8.395894428152493,1.8125381469726562
0,,2024-07-26 13:21:26,sub_118,3,distance,cathedral,localisation_accuracy,4,5,babble,,,babble-reversed_n13_p229-five-p256-three-p318-nine-p248-two-p284-four-p268-one.wav,86.36709953589629,30,0.23980654813195867,1,RX81,2,0.0,0.0,3.0,0,0,3.93841642228739,2.0312986373901367
0,,2024-07-26 13:21:29,sub_118,3,distance,cathedral,localisation_accuracy,4,6,babble,,,babble-reversed_n13_p307-one-p318-five-p229-four-p268-eight-p284-two-p245-three.wav,87.30211261588201,30,-0.38607282866049286,2,RX81,3,0.0,0.0,4.0,0,0,5.2140762463343115,1.4218952655792236
0,,2024-07-26 13:21:32,sub_118,3,distance,cathedral,localisation_accuracy,4,7,babble,,,babble-reversed_n13_p307-two-p229-one-p256-five-p248-nine-p284-three-p268-eight.wav,84.08376526665575,30,-0.4675720242255521,0,RX81,1,0.0,0.0,2.0,0,0,3.234604105571848,1.8593964576721191
0,,2024-07-26 13:21:35,sub_118,3,distance,cathedral,localisation_accuracy,4,8,babble,,,babble-reversed_n13_p256-eight-p229-three-p307-nine-p245-five-p248-four-p268-two.wav,92.0249902003296,30,0.02655717244871203,9,RX81,10,0.0,0.0,11.0,0,0,10.243401759530792,1.9218971729278564
0,,2024-07-26 13:21:37,sub_118,3,distance,cathedral,localisation_accuracy,4,9,babble,,,babble-reversed_n13_p256-three-p318-two-p229-nine-p248-four-p284-one-p268-eight.wav,89.63756097525547,30,0.43560201380455976,4,RX81,5,0.0,0.0,6.0,0,0,6.929618768328446,1.2656846046447754
0,,2024-07-26 13:21:40,sub_118,3,distance,cathedral,localisation_accuracy,4,10,babble,,,babble-reversed_n13_p229-two-p256-three-p318-eight-p284-five-p268-four-p245-one.wav,92.06195912998119,30,0.06600334885388359,8,RX81,9,0.0,0.0,10.0,0,0,8.997067448680353,1.8594169616699219
0,,2024-07-26 13:21:42,sub_118,3,distance,cathedral,localisation_accuracy,4,11,babble,,,babble-reversed_n13_p229-one-p318-eight-p256-three-p268-two-p245-five-p248-nine.wav,92.6704315677702,30,-0.45981037471650277,10,RX81,11,0.0,0.0,12.0,0,0,10.653958944281525,1.312514066696167
0,,2024-07-26 13:21:46,sub_118,3,distance,cathedral,localisation_accuracy,4,12,babble,,,babble-reversed_n13_p307-two-p256-four-p318-three-p284-eight-p248-five-p245-nine.wav,92.01938416228637,30,0.3909805588463203,7,RX81,8,0.0,0.0,9.0,0,0,8.835777126099707,2.484423875808716
0,,2024-07-26 13:21:49,sub_118,3,distance,cathedral,localisation_accuracy,4,13,babble,,,babble-reversed_n13_p256-eight-p229-three-p307-nine-p245-five-p248-four-p268-two.wav,91.77598148092031,30,0.2678085533510588,6,RX81,7,0.0,0.0,8.0,0,0,6.768328445747802,2.203160285949707
0,,2024-07-26 13:21:52,sub_118,3,distance,cathedral,localisation_accuracy,4,14,babble,,,babble-reversed_n13_p307-nine-p229-one-p256-eight-p248-four-p284-two-p268-three.wav,87.27315806434852,30,-0.4274266595863595,2,RX81,3,0.0,0.0,4.0,0,0,5.184750733137831,1.2656164169311523
0,,2024-07-26 13:21:54,sub_118,3,distance,cathedral,localisation_accuracy,4,15,babble,,,babble-reversed_n13_p229-nine-p307-five-p256-two-p248-three-p245-one-p268-eight.wav,88.79589051924454,30,-0.49892976338526696,3,RX81,4,0.0,0.0,5.0,0,0,4.070381231671554,1.187486171722412
0,,2024-07-26 13:21:57,sub_118,3,distance,cathedral,localisation_accuracy,4,16,babble,,,babble-reversed_n13_p256-eight-p318-five-p307-four-p245-three-p268-one-p284-nine.wav,90.07550128171978,30,-0.3778929577303928,5,RX81,6,0.0,0.0,7.0,0,0,7.706744868035191,2.1094086170196533
0,,2024-07-26 13:22:01,sub_118,3,distance,cathedral,localisation_accuracy,4,17,babble,,,babble-reversed_n13_p229-one-p318-nine-p256-four-p284-eight-p268-five-p245-two.wav,84.28279664145711,30,-0.1748756857098832,0,RX81,1,0.0,0.0,2.0,0,0,2.9560117302052786,2.34381365776062
0,,2024-07-26 13:22:04,sub_118,3,distance,cathedral,localisation_accuracy,4,18,babble,,,babble-reversed_n13_p256-four-p307-eight-p318-two-p248-three-p284-nine-p268-one.wav,86.31309460792687,30,0.16026047957397926,1,RX81,2,0.0,0.0,3.0,0,0,3.1759530791788864,1.781287431716919
0,,2024-07-26 13:22:07,sub_118,3,distance,cathedral,localisation_accuracy,4,19,babble,,,babble-reversed_n13_p256-eight-p318-five-p307-four-p245-three-p268-one-p284-nine.wav,92.33168141591266,30,0.4612095606751878,9,RX81,10,0.0,0.0,11.0,0,0,10.111436950146627,2.5625743865966797
0,,2024-07-26 13:22:11,sub_118,3,distance,cathedral,localisation_accuracy,4,20,babble,,,babble-reversed_n13_p229-nine-p307-five-p256-two-p248-three-p245-one-p268-eight.wav,89.28091815710783,30,-0.043718828697360546,4,RX81,5,0.0,0.0,6.0,0,0,6.269794721407624,2.1250319480895996
0,,2024-07-26 13:22:13,sub_118,3,distance,cathedral,localisation_accuracy,4,21,babble,,,babble-reversed_n13_p256-three-p318-one-p307-two-p284-nine-p268-four-p245-eight.wav,92.18262658591271,30,0.23731192842678972,8,RX81,9,0.0,0.0,10.0,0,0,9.217008797653959,1.6718857288360596
0,,2024-07-26 13:22:16,sub_118,3,distance,cathedral,localisation_accuracy,4,22,babble,,,babble-reversed_n13_p256-four-p307-eight-p318-two-p248-three-p284-nine-p268-one.wav,93.10641968592901,30,0.14993651924355422,10,RX81,11,0.0,0.0,12.0,0,0,10.668621700879767,1.609438419342041
0,,2024-07-26 13:22:19,sub_118,3,distance,cathedral,localisation_accuracy,4,23,babble,,,babble-reversed_n13_p229-one-p318-eight-p256-three-p268-two-p245-five-p248-nine.wav,91.53298766240196,30,-0.2821647571179421,7,RX81,8,0.0,0.0,9.0,0,0,11.533724340175954,2.0156736373901367
0,,2024-07-26 13:22:23,sub_118,3,distance,cathedral,localisation_accuracy,4,24,babble,,,babble-reversed_n13_p307-two-p229-one-p256-five-p248-nine-p284-three-p268-eight.wav,91.82537955421171,30,-0.25299977881232505,9,RX81,10,0.0,0.0,11.0,0,0,9.55425219941349,2.25005841255188
0,,2024-07-26 13:22:25,sub_118,3,distance,cathedral,localisation_accuracy,4,25,babble,,,babble-reversed_n13_p318-five-p229-four-p256-eight-p284-one-p245-three-p248-two.wav,86.34522834219698,30,0.20756632522791219,1,RX81,2,0.0,0.0,3.0,0,0,4.7595307917888565,1.5468814373016357
0,,2024-07-26 13:22:28,sub_118,3,distance,cathedral,localisation_accuracy,4,26,babble,,,babble-reversed_n13_p307-nine-p318-two-p256-one-p245-three-p268-four-p248-eight.wav,90.51456315037684,30,0.24846496333584578,5,RX81,6,0.0,0.0,7.0,0,0,7.310850439882698,1.3438079357147217
0,,2024-07-26 13:22:30,sub_118,3,distance,cathedral,localisation_accuracy,4,27,babble,,,babble-reversed_n13_p318-five-p229-three-p256-four-p268-eight-p248-one-p245-nine.wav,91.93299280314042,30,-0.11601410822819191,8,RX81,9,0.0,0.0,10.0,0,0,10.126099706744869,1.5937786102294922
0,,2024-07-26 13:22:34,sub_118,3,distance,cathedral,localisation_accuracy,4,28,babble,,,babble-reversed_n13_p318-five-p256-nine-p307-eight-p248-two-p245-four-p284-three.wav,89.4117863539854,30,0.3764855314082679,3,RX81,4,0.0,0.0,5.0,0,0,4.055718475073314,2.500070333480835
0,,2024-07-26 13:22:37,sub_118,3,distance,cathedral,localisation_accuracy,4,29,babble,,,babble-reversed_n13_p307-two-p229-one-p256-five-p248-nine-p284-three-p268-eight.wav,87.53377608497306,30,-0.053114440835136056,2,RX81,3,0.0,0.0,4.0,0,0,5.9178885630498534,1.3750195503234863
0,,2024-07-26 13:22:40,sub_118,3,distance,cathedral,localisation_accuracy,4,30,babble,,,babble-reversed_n13_p229-nine-p318-one-p307-two-p248-eight-p245-five-p284-four.wav,84.61338632663939,30,0.31771568852250576,0,RX81,1,0.0,0.0,2.0,0,0,2.67741935483871,2.4219419956207275
0,,2024-07-26 13:22:43,sub_118,3,distance,cathedral,localisation_accuracy,4,31,babble,,,babble-reversed_n13_p229-nine-p318-one-p307-two-p248-eight-p245-five-p284-four.wav,89.3675971122781,30,0.07207701531801247,4,RX81,5,0.0,0.0,6.0,0,0,4.818181818181818,1.7656598091125488
0,,2024-07-26 13:22:46,sub_118,3,distance,cathedral,localisation_accuracy,4,32,babble,,,babble-reversed_n13_p256-five-p307-nine-p318-three-p284-eight-p268-one-p248-two.wav,91.80494702235961,30,0.30949189867576443,6,RX81,7,0.0,0.0,8.0,0,0,7.07624633431085,1.4218766689300537
0,,2024-07-26 13:22:48,sub_118,3,distance,cathedral,localisation_accuracy,4,33,babble,,,babble-reversed_n13_p318-five-p229-four-p256-eight-p284-one-p245-three-p248-two.wav,91.84663338926106,30,-0.23728162285773147,8,RX81,9,0.0,0.0,10.0,0,0,9.715542521994136,1.421921968460083
0,,2024-07-26 13:22:52,sub_118,3,distance,cathedral,localisation_accuracy,4,34,babble,,,babble-reversed_n13_p318-five-p229-four-p256-eight-p284-one-p245-three-p248-two.wav,91.3652056357681,30,-0.3171914105227961,6,RX81,7,0.0,0.0,8.0,0,0,8.263929618768328,2.546929359436035
0,,2024-07-26 13:22:55,sub_118,3,distance,cathedral,localisation_accuracy,4,35,babble,,,babble-reversed_n13_p229-three-p256-nine-p318-five-p248-one-p245-eight-p284-two.wav,93.22109632876322,30,0.31239649326490027,10,RX81,11,0.0,0.0,12.0,0,0,10.80058651026393,1.8594160079956055
0,,2024-07-26 13:22:58,sub_118,3,distance,cathedral,localisation_accuracy,4,36,babble,,,babble-reversed_n13_p256-eight-p318-five-p307-four-p245-three-p268-one-p284-nine.wav,87.62647048232088,30,0.08115687816312356,2,RX81,3,0.0,0.0,4.0,0,0,6.563049853372435,1.8125388622283936
0,,2024-07-26 13:23:00,sub_118,3,distance,cathedral,localisation_accuracy,4,37,babble,,,babble-reversed_n13_p229-five-p318-three-p307-two-p245-four-p284-nine-p248-eight.wav,89.06158159643809,30,-0.33474638303564985,4,RX81,5,0.0,0.0,6.0,0,0,8.351906158357773,1.7031397819519043
0,,2024-07-26 13:23:04,sub_118,3,distance,cathedral,localisation_accuracy,4,38,babble,,,babble-reversed_n13_p229-five-p256-three-p318-nine-p248-two-p284-four-p268-one.wav,89.2002318337618,30,0.07289775762283979,3,RX81,4,0.0,0.0,5.0,0,0,6.988269794721408,2.5625522136688232
0,,2024-07-26 13:23:07,sub_118,3,distance,cathedral,localisation_accuracy,4,39,babble,,,babble-reversed_n13_p307-one-p318-five-p229-four-p268-eight-p284-two-p245-three.wav,90.08175544855744,30,-0.3690625771975602,5,RX81,6,0.0,0.0,7.0,0,0,8.190615835777127,1.921919345855713
0,,2024-07-26 13:23:10,sub_118,3,distance,cathedral,localisation_accuracy,4,40,babble,,,babble-reversed_n13_p229-two-p256-three-p318-eight-p284-five-p268-four-p245-one.wav,84.22909651905874,30,-0.2541318659947922,0,RX81,1,0.0,0.0,2.0,0,0,3.8797653958944283,2.078176736831665
0,,2024-07-26 13:23:13,sub_118,3,distance,cathedral,localisation_accuracy,4,41,babble,,,babble-reversed_n13_p318-five-p256-nine-p307-two-p245-eight-p248-one-p284-four.wav,91.79044551850987,30,-0.3016569840160147,9,RX81,10,0.0,0.0,11.0,0,0,9.583577712609971,1.8437695503234863
0,,2024-07-26 13:23:17,sub_118,3,distance,cathedral,localisation_accuracy,4,42,babble,,,babble-reversed_n13_p256-eight-p229-three-p307-nine-p245-five-p248-four-p268-two.wav,86.50553456809814,30,0.44467266938697125,1,RX81,2,0.0,0.0,3.0,0,0,3.3665689149560123,2.218808174133301
0,,2024-07-26 13:23:21,sub_118,3,distance,cathedral,localisation_accuracy,4,43,babble,,,babble-reversed_n13_p229-one-p318-eight-p256-three-p268-two-p245-five-p248-nine.wav,91.48201373007151,30,-0.35184089282897524,7,RX81,8,0.0,0.0,9.0,0,0,7.164222873900293,2.7500829696655273
0,,2024-07-26 13:23:23,sub_118,3,distance,cathedral,localisation_accuracy,4,44,babble,,,babble-reversed_n13_p229-three-p256-nine-p318-five-p248-one-p245-eight-p284-two.wav,91.90542289037188,30,0.4545288001971761,6,RX81,7,0.0,0.0,8.0,0,0,9.436950146627566,1.7187902927398682
0,,2024-07-26 13:23:27,sub_118,3,distance,cathedral,localisation_accuracy,4,45,babble,,,babble-reversed_n13_p318-four-p256-five-p229-three-p284-one-p245-eight-p248-nine.wav,91.9675650619198,30,-0.06732870903664723,8,RX81,9,0.0,0.0,10.0,0,0,10.639296187683286,2.0156733989715576
0,,2024-07-26 13:23:31,sub_118,3,distance,cathedral,localisation_accuracy,4,46,babble,,,babble-reversed_n13_p307-two-p256-four-p318-three-p284-eight-p248-five-p245-nine.wav,91.71886494338777,30,-0.026699483535151503,7,RX81,8,0.0,0.0,9.0,0,0,11.313782991202347,2.937591791152954
0,,2024-07-26 13:23:34,sub_118,3,distance,cathedral,localisation_accuracy,4,47,babble,,,babble-reversed_n13_p229-five-p256-three-p318-nine-p248-two-p284-four-p268-one.wav,84.50206611986039,30,0.15094239054430447,0,RX81,1,0.0,0.0,2.0,0,0,3.513196480938417,2.640702247619629
0,,2024-07-26 13:23:37,sub_118,3,distance,cathedral,localisation_accuracy,4,48,babble,,,babble-reversed_n13_p256-five-p307-nine-p318-three-p284-eight-p268-one-p248-two.wav,86.5095449969937,30,0.45062823151708786,1,RX81,2,0.0,0.0,3.0,0,0,4.407624633431086,1.2187421321868896
0,,2024-07-26 13:23:39,sub_118,3,distance,cathedral,localisation_accuracy,4,49,babble,,,babble-reversed_n13_p256-eight-p229-three-p307-nine-p245-five-p248-four-p268-two.wav,89.68344379282013,30,0.49782185358230546,4,RX81,5,0.0,0.0,6.0,0,0,6.387096774193548,1.5000042915344238
0,,2024-07-26 13:23:42,sub_118,3,distance,cathedral,localisation_accuracy,4,50,babble,,,babble-reversed_n13_p229-eight-p256-nine-p318-four-p245-three-p268-five-p284-two.wav,90.39550750149533,30,0.07732511205889503,5,RX81,6,0.0,0.0,7.0,0,0,9.085043988269796,2.000074625015259
0,,2024-07-26 13:23:45,sub_118,3,distance,cathedral,localisation_accuracy,4,51,babble,,,babble-reversed_n13_p256-three-p318-one-p307-two-p284-nine-p268-four-p245-eight.wav,92.88716347720867,30,-0.1582592248539042,10,RX81,11,0.0,0.0,12.0,0,0,10.741935483870968,1.6250081062316895
0,,2024-07-26 13:23:48,sub_118,3,distance,cathedral,localisation_accuracy,4,52,babble,,,babble-reversed_n13_p229-one-p318-eight-p256-three-p268-two-p245-five-p248-nine.wav,88.91756445554219,30,-0.3280092726753756,3,RX81,4,0.0,0.0,5.0,0,0,6.75366568914956,1.8125386238098145
0,,2024-07-26 13:23:51,sub_118,3,distance,cathedral,localisation_accuracy,4,53,babble,,,babble-reversed_n13_p256-eight-p229-three-p307-nine-p245-five-p248-four-p268-two.wav,87.2873436410915,30,-0.4071735786972034,2,RX81,3,0.0,0.0,4.0,0,0,3.6304985337243405,1.4687716960906982
0,,2024-07-26 13:23:54,sub_118,3,distance,cathedral,localisation_accuracy,4,54,babble,,,babble-reversed_n13_p318-five-p229-three-p256-four-p268-eight-p248-one-p245-nine.wav,91.92063277443744,30,-0.11992274025328342,9,RX81,10,0.0,0.0,11.0,0,0,11.0791788856305,2.046903133392334
