event_id,timestamp,subject_id,session_index,plane,setup,task,block,trial_index,headpose_offset_azi,headpose_offset_ele,target_number,target_filename,target_talker,target_sex,target_speaker_id,step_number:,distance_masker,distance_target,target_speaker_proc,target_speaker_chan,target_speaker_azi,target_speaker_ele,target_speaker_dist,target_stim_level,masker_filename,masker_speaker_id,masker_speaker_proc,masker_speaker_chan,masker_speaker_azi,masker_speaker_ele,masker_speaker_dist,masker_stim_level,normalisation_method,normalisation_level_masker,normalisation_level_target,played_number,resp_number,is_correct,reaction_time
,2024-07-25 14:05:34,sub_120,3,distance,cathedral,spatial_unmasking,1,0,0,0,_five_,talker-p248_sex-f_text-_five_.wav,p248,f,5,1,2.0,7.0,RX81,6,0.0,0.0,7.0,92.34149293193902,babble-reversed_n13_p307-four-p318-three-p256-eight-p284-two-p245-nine-p248-five.wav,0,RX81,1,0.0,0.0,2.0,84.40078082039426,mgb_normalisation,84.40078082039426,90.34149293193902,5,5.0,True,1.5000224113464355
,2024-07-25 14:05:38,sub_120,3,distance,cathedral,spatial_unmasking,1,1,0,0,_two_,talker-p248_sex-f_text-_two_.wav,p248,f,5,2,2.0,7.0,RX81,6,0.0,0.0,7.0,88.34149293193903,babble-reversed_n13_p256-five-p307-nine-p318-three-p284-eight-p268-one-p248-two.wav,0,RX81,1,0.0,0.0,2.0,84.40078082039426,mgb_normalisation,84.40078082039426,90.34149293193902,2,2.0,True,1.5646867752075195
,2024-07-25 14:05:42,sub_120,3,distance,cathedral,spatial_unmasking,1,2,0,0,_six_,talker-p248_sex-f_text-_six_.wav,p248,f,5,3,2.0,7.0,RX81,6,0.0,0.0,7.0,84.341492931939,babble-reversed_n13_p256-three-p318-two-p229-nine-p248-four-p284-one-p268-eight.wav,0,RX81,1,0.0,0.0,2.0,84.40078082039426,mgb_normalisation,84.40078082039426,90.34149293193902,6,6.0,True,1.4967775344848633
,2024-07-25 14:05:48,sub_120,3,distance,cathedral,spatial_unmasking,1,3,0,0,_one_,talker-p248_sex-f_text-_one_.wav,p248,f,5,4,2.0,7.0,RX81,6,0.0,0.0,7.0,80.34149293193903,babble-reversed_n13_p307-two-p229-one-p256-five-p248-nine-p284-three-p268-eight.wav,0,RX81,1,0.0,0.0,2.0,84.40078082039427,mgb_normalisation,84.40078082039426,90.34149293193902,1,9.0,False,3.3615832328796387
,2024-07-25 14:05:52,sub_120,3,distance,cathedral,spatial_unmasking,1,4,0,0,_nine_,talker-p248_sex-f_text-_nine_.wav,p248,f,5,5,2.0,7.0,RX81,6,0.0,0.0,7.0,82.34149293193902,babble-reversed_n13_p229-three-p256-nine-p318-five-p248-one-p245-eight-p284-two.wav,0,RX81,1,0.0,0.0,2.0,84.40078082039426,mgb_normalisation,84.40078082039426,90.34149293193902,9,9.0,True,1.1875011920928955
,2024-07-25 14:05:56,sub_120,3,distance,cathedral,spatial_unmasking,1,5,0,0,_six_,talker-p248_sex-f_text-_six_.wav,p248,f,5,6,2.0,7.0,RX81,6,0.0,0.0,7.0,82.34149293193902,babble-reversed_n13_p229-two-p256-three-p318-eight-p284-five-p268-four-p245-one.wav,0,RX81,1,0.0,0.0,2.0,84.40078082039426,mgb_normalisation,84.40078082039426,90.34149293193902,6,6.0,True,1.6250231266021729
,2024-07-25 14:06:02,sub_120,3,distance,cathedral,spatial_unmasking,1,6,0,0,_one_,talker-p248_sex-f_text-_one_.wav,p248,f,5,7,2.0,7.0,RX81,6,0.0,0.0,7.0,80.34149293193903,babble-reversed_n13_p307-one-p318-five-p229-four-p268-eight-p284-two-p245-three.wav,0,RX81,1,0.0,0.0,2.0,84.40078082039426,mgb_normalisation,84.40078082039426,90.34149293193902,1,8.0,False,4.2490105628967285
,2024-07-25 14:06:06,sub_120,3,distance,cathedral,spatial_unmasking,1,7,0,0,_three_,talker-p248_sex-f_text-_three_.wav,p248,f,5,8,2.0,7.0,RX81,6,0.0,0.0,7.0,81.34149293193902,babble-reversed_n13_p229-three-p307-one-p318-two-p245-eight-p268-five-p284-four.wav,0,RX81,1,0.0,0.0,2.0,84.40078082039426,mgb_normalisation,84.40078082039426,90.34149293193902,3,3.0,True,1.6875252723693848
,2024-07-25 14:06:10,sub_120,3,distance,cathedral,spatial_unmasking,1,8,0,0,_one_,talker-p248_sex-f_text-_one_.wav,p248,f,5,9,2.0,7.0,RX81,6,0.0,0.0,7.0,81.34149293193902,babble-reversed_n13_p229-three-p307-one-p318-two-p245-eight-p268-five-p284-four.wav,0,RX81,1,0.0,0.0,2.0,84.40078082039426,mgb_normalisation,84.40078082039426,90.34149293193902,1,1.0,True,1.3750202655792236
,2024-07-25 14:06:15,sub_120,3,distance,cathedral,spatial_unmasking,1,9,0,0,_eight_,talker-p248_sex-f_text-_eight_.wav,p248,f,5,10,2.0,7.0,RX81,6,0.0,0.0,7.0,80.34149293193903,babble-reversed_n13_p256-four-p229-eight-p307-five-p248-three-p245-one-p284-two.wav,0,RX81,1,0.0,0.0,2.0,84.40078082039426,mgb_normalisation,84.40078082039426,90.34149293193902,8,2.0,False,2.3640973567962646
,2024-07-25 14:06:20,sub_120,3,distance,cathedral,spatial_unmasking,1,10,0,0,_six_,talker-p248_sex-f_text-_six_.wav,p248,f,5,11,2.0,7.0,RX81,6,0.0,0.0,7.0,81.34149293193902,babble-reversed_n13_p229-one-p318-eight-p256-three-p268-nine-p248-five-p284-four.wav,0,RX81,1,0.0,0.0,2.0,84.40078082039426,mgb_normalisation,84.40078082039426,90.34149293193902,6,6.0,True,2.549802780151367
,2024-07-25 14:06:24,sub_120,3,distance,cathedral,spatial_unmasking,1,11,0,0,_one_,talker-p248_sex-f_text-_one_.wav,p248,f,5,12,2.0,7.0,RX81,6,0.0,0.0,7.0,81.34149293193902,babble-reversed_n13_p307-nine-p229-one-p256-eight-p248-four-p284-two-p268-three.wav,0,RX81,1,0.0,0.0,2.0,84.40078082039426,mgb_normalisation,84.40078082039426,90.34149293193902,1,1.0,True,1.6296255588531494
,2024-07-25 14:06:32,sub_120,3,distance,cathedral,spatial_unmasking,1,12,0,0,_eight_,talker-p248_sex-f_text-_eight_.wav,p248,f,5,13,2.0,7.0,RX81,6,0.0,0.0,7.0,80.34149293193903,babble-reversed_n13_p307-four-p318-three-p256-eight-p284-two-p245-nine-p248-five.wav,0,RX81,1,0.0,0.0,2.0,84.40078082039426,mgb_normalisation,84.40078082039426,90.34149293193902,8,6.0,False,5.687592267990112
,2024-07-25 14:06:36,sub_120,3,distance,cathedral,spatial_unmasking,1,13,0,0,_one_,talker-p248_sex-f_text-_one_.wav,p248,f,5,14,2.0,7.0,RX81,6,0.0,0.0,7.0,81.34149293193902,babble-reversed_n13_p229-five-p256-three-p318-nine-p248-two-p284-four-p268-one.wav,0,RX81,1,0.0,0.0,2.0,84.40078082039427,mgb_normalisation,84.40078082039426,90.34149293193902,1,1.0,True,1.437580108642578
,2024-07-25 14:06:39,sub_120,3,distance,cathedral,spatial_unmasking,1,14,0,0,_five_,talker-p248_sex-f_text-_five_.wav,p248,f,5,15,2.0,7.0,RX81,6,0.0,0.0,7.0,81.341492931939,babble-reversed_n13_p256-four-p307-eight-p318-two-p248-three-p284-nine-p268-one.wav,0,RX81,1,0.0,0.0,2.0,84.40078082039427,mgb_normalisation,84.40078082039426,90.34149293193902,5,9.0,False,1.2500181198120115
,2024-07-25 14:06:43,sub_120,3,distance,cathedral,spatial_unmasking,1,15,0,0,_three_,talker-p248_sex-f_text-_three_.wav,p248,f,5,16,2.0,7.0,RX81,6,0.0,0.0,7.0,82.34149293193902,babble-reversed_n13_p318-five-p256-nine-p307-two-p245-eight-p248-one-p284-four.wav,0,RX81,1,0.0,0.0,2.0,84.40078082039427,mgb_normalisation,84.40078082039426,90.34149293193902,3,3.0,True,1.6263465881347656
,2024-07-25 14:06:47,sub_120,3,distance,cathedral,spatial_unmasking,1,16,0,0,_six_,talker-p248_sex-f_text-_six_.wav,p248,f,5,17,2.0,7.0,RX81,6,0.0,0.0,7.0,82.34149293193902,babble-reversed_n13_p307-five-p229-three-p318-nine-p245-four-p268-eight-p284-two.wav,0,RX81,1,0.0,0.0,2.0,84.40078082039426,mgb_normalisation,84.40078082039426,90.34149293193902,6,6.0,True,1.688049554824829
,2024-07-25 14:06:51,sub_120,3,distance,cathedral,spatial_unmasking,1,17,0,0,_six_,talker-p248_sex-f_text-_six_.wav,p248,f,5,18,2.0,7.0,RX81,6,0.0,0.0,7.0,81.34149293193902,babble-reversed_n13_p256-two-p307-five-p318-nine-p248-eight-p245-four-p284-one.wav,0,RX81,1,0.0,0.0,2.0,84.40078082039426,mgb_normalisation,84.40078082039426,90.34149293193902,6,6.0,True,1.5625219345092771
,2024-07-25 14:06:55,sub_120,3,distance,cathedral,spatial_unmasking,1,18,0,0,_six_,talker-p248_sex-f_text-_six_.wav,p248,f,5,19,2.0,7.0,RX81,6,0.0,0.0,7.0,81.34149293193902,babble-reversed_n13_p229-three-p256-one-p307-two-p284-eight-p268-five-p248-nine.wav,0,RX81,1,0.0,0.0,2.0,84.40078082039426,mgb_normalisation,84.40078082039426,90.34149293193902,6,6.0,True,1.4375197887420654
,2024-07-25 14:06:59,sub_120,3,distance,cathedral,spatial_unmasking,1,19,0,0,_three_,talker-p248_sex-f_text-_three_.wav,p248,f,5,20,2.0,7.0,RX81,6,0.0,0.0,7.0,80.341492931939,babble-reversed_n13_p307-two-p229-one-p256-five-p248-nine-p284-three-p268-eight.wav,0,RX81,1,0.0,0.0,2.0,84.40078082039427,mgb_normalisation,84.40078082039426,90.34149293193902,3,3.0,True,1.6309359073638916
,2024-07-25 14:07:03,sub_120,3,distance,cathedral,spatial_unmasking,1,20,0,0,_two_,talker-p248_sex-f_text-_two_.wav,p248,f,5,21,2.0,7.0,RX81,6,0.0,0.0,7.0,80.34149293193903,babble-reversed_n13_p229-two-p256-three-p318-eight-p284-five-p268-four-p245-one.wav,0,RX81,1,0.0,0.0,2.0,84.40078082039426,mgb_normalisation,84.40078082039426,90.34149293193902,2,2.0,True,1.5000386238098145
,2024-07-25 14:07:15,sub_120,3,distance,cathedral,spatial_unmasking,1,21,0,0,_four_,talker-p248_sex-f_text-_four_.wav,p248,f,5,22,2.0,7.0,RX81,6,0.0,0.0,7.0,79.341492931939,babble-reversed_n13_p307-two-p229-one-p256-five-p248-nine-p284-three-p268-eight.wav,0,RX81,1,0.0,0.0,2.0,84.40078082039427,mgb_normalisation,84.40078082039426,90.34149293193902,4,9.0,False,9.440001010894775
,2024-07-25 14:07:31,sub_120,3,distance,cathedral,spatial_unmasking,1,22,0,0,_four_,talker-p248_sex-f_text-_four_.wav,p248,f,5,23,2.0,7.0,RX81,6,0.0,0.0,7.0,80.341492931939,babble-reversed_n13_p229-five-p256-one-p318-three-p248-nine-p268-four-p284-eight.wav,0,RX81,1,0.0,0.0,2.0,84.40078082039426,mgb_normalisation,84.40078082039426,90.34149293193902,4,9.0,False,13.313091039657593
,2024-07-25 14:07:35,sub_120,3,distance,cathedral,spatial_unmasking,1,23,0,0,_two_,talker-p248_sex-f_text-_two_.wav,p248,f,5,24,2.0,7.0,RX81,6,0.0,0.0,7.0,81.34149293193902,babble-reversed_n13_p256-four-p229-two-p318-five-p268-one-p248-eight-p245-three.wav,0,RX81,1,0.0,0.0,2.0,84.40078082039426,mgb_normalisation,84.40078082039426,90.34149293193902,2,3.0,False,1.5625231266021729
,2024-07-25 14:07:39,sub_120,3,distance,cathedral,spatial_unmasking,1,24,0,0,_three_,talker-p248_sex-f_text-_three_.wav,p248,f,5,25,2.0,7.0,RX81,6,0.0,0.0,7.0,82.34149293193902,babble-reversed_n13_p307-two-p229-one-p256-five-p248-nine-p284-three-p268-eight.wav,0,RX81,1,0.0,0.0,2.0,84.40078082039427,mgb_normalisation,84.40078082039426,90.34149293193902,3,3.0,True,1.6226816177368164
,2024-07-25 14:07:42,sub_120,3,distance,cathedral,spatial_unmasking,1,25,0,0,_six_,talker-p248_sex-f_text-_six_.wav,p248,f,5,26,2.0,7.0,RX81,6,0.0,0.0,7.0,82.34149293193902,babble-reversed_n13_p229-two-p307-five-p318-four-p284-one-p248-nine-p268-eight.wav,0,RX81,1,0.0,0.0,2.0,84.40078082039426,mgb_normalisation,84.40078082039426,90.34149293193902,6,6.0,True,1.373971462249756
,2024-07-25 14:07:50,sub_120,3,distance,cathedral,spatial_unmasking,1,26,0,0,_eight_,talker-p248_sex-f_text-_eight_.wav,p248,f,5,27,2.0,7.0,RX81,6,0.0,0.0,7.0,81.34149293193902,babble-reversed_n13_p229-nine-p318-one-p307-two-p248-eight-p245-five-p284-four.wav,0,RX81,1,0.0,0.0,2.0,84.40078082039426,mgb_normalisation,84.40078082039426,90.34149293193902,8,2.0,False,5.312783241271973
,2024-07-25 14:07:54,sub_120,3,distance,cathedral,spatial_unmasking,1,27,0,0,_nine_,talker-p248_sex-f_text-_nine_.wav,p248,f,5,28,2.0,7.0,RX81,6,0.0,0.0,7.0,82.34149293193902,babble-reversed_n13_p318-three-p307-one-p256-five-p248-nine-p245-two-p284-eight.wav,0,RX81,1,0.0,0.0,2.0,84.40078082039426,mgb_normalisation,84.40078082039426,90.34149293193902,9,9.0,True,1.2529726028442385
,2024-07-25 14:07:58,sub_120,3,distance,cathedral,spatial_unmasking,1,28,0,0,_four_,talker-p248_sex-f_text-_four_.wav,p248,f,5,29,2.0,7.0,RX81,6,0.0,0.0,7.0,82.34149293193902,babble-reversed_n13_p256-eight-p318-two-p307-five-p245-four-p268-nine-p284-one.wav,0,RX81,1,0.0,0.0,2.0,84.40078082039426,mgb_normalisation,84.40078082039426,90.34149293193902,4,3.0,False,1.8746914863586424
,2024-07-25 14:08:02,sub_120,3,distance,cathedral,spatial_unmasking,1,29,0,0,_three_,talker-p248_sex-f_text-_three_.wav,p248,f,5,30,2.0,7.0,RX81,6,0.0,0.0,7.0,83.34149293193902,babble-reversed_n13_p318-three-p307-one-p256-five-p248-nine-p245-two-p284-eight.wav,0,RX81,1,0.0,0.0,2.0,84.40078082039426,mgb_normalisation,84.40078082039426,90.34149293193902,3,3.0,True,1.3750205039978027
,2024-07-25 14:08:06,sub_120,3,distance,cathedral,spatial_unmasking,1,30,0,0,_one_,talker-p248_sex-f_text-_one_.wav,p248,f,5,31,2.0,7.0,RX81,6,0.0,0.0,7.0,83.34149293193903,babble-reversed_n13_p318-five-p256-nine-p307-two-p245-eight-p248-one-p284-four.wav,0,RX81,1,0.0,0.0,2.0,84.40078082039427,mgb_normalisation,84.40078082039426,90.34149293193902,1,1.0,True,1.3750200271606443
,2024-07-25 14:11:34,sub_120,3,distance,cathedral,spatial_unmasking,2,31,0,0,_eight_,talker-p248_sex-f_text-_eight_.wav,p248,f,5,1,6.0,7.0,RX81,6,0.0,0.0,7.0,92.34149293193902,babble-reversed_n13_p229-eight-p256-nine-p318-four-p245-three-p268-five-p284-two.wav,4,RX81,5,0.0,0.0,6.0,89.31368318402099,mgb_normalisation,89.31368318402099,90.34149293193902,8,8.0,True,1.4250881671905518
,2024-07-25 14:11:42,sub_120,3,distance,cathedral,spatial_unmasking,2,32,0,0,_four_,talker-p248_sex-f_text-_four_.wav,p248,f,5,2,6.0,7.0,RX81,6,0.0,0.0,7.0,88.34149293193902,babble-reversed_n13_p256-five-p229-one-p318-three-p248-nine-p284-eight-p268-two.wav,4,RX81,5,0.0,0.0,6.0,89.31368318402099,mgb_normalisation,89.31368318402099,90.34149293193902,4,4.0,True,5.249725580215454
,2024-07-25 14:11:45,sub_120,3,distance,cathedral,spatial_unmasking,2,33,0,0,_five_,talker-p248_sex-f_text-_five_.wav,p248,f,5,3,6.0,7.0,RX81,6,0.0,0.0,7.0,84.341492931939,babble-reversed_n13_p256-nine-p307-four-p229-one-p284-three-p248-two-p245-five.wav,4,RX81,5,0.0,0.0,6.0,89.31368318402099,mgb_normalisation,89.31368318402099,90.34149293193902,5,9.0,False,1.250019073486328
,2024-07-25 14:11:49,sub_120,3,distance,cathedral,spatial_unmasking,2,34,0,0,_three_,talker-p248_sex-f_text-_three_.wav,p248,f,5,4,6.0,7.0,RX81,6,0.0,0.0,7.0,86.34149293193902,babble-reversed_n13_p318-five-p229-four-p256-eight-p284-one-p245-three-p248-two.wav,4,RX81,5,0.0,0.0,6.0,89.31368318402099,mgb_normalisation,89.31368318402099,90.34149293193902,3,3.0,True,1.3096883296966553
,2024-07-25 14:11:53,sub_120,3,distance,cathedral,spatial_unmasking,2,35,0,0,_two_,talker-p248_sex-f_text-_two_.wav,p248,f,5,5,6.0,7.0,RX81,6,0.0,0.0,7.0,86.34149293193902,babble-reversed_n13_p318-five-p256-nine-p307-two-p245-eight-p248-one-p284-four.wav,4,RX81,5,0.0,0.0,6.0,89.313683184021,mgb_normalisation,89.31368318402099,90.34149293193902,2,2.0,True,1.123273849487305
,2024-07-25 14:11:56,sub_120,3,distance,cathedral,spatial_unmasking,2,36,0,0,_eight_,talker-p248_sex-f_text-_eight_.wav,p248,f,5,6,6.0,7.0,RX81,6,0.0,0.0,7.0,84.34149293193903,babble-reversed_n13_p256-five-p307-nine-p318-three-p284-eight-p268-one-p248-two.wav,4,RX81,5,0.0,0.0,6.0,89.31368318402099,mgb_normalisation,89.31368318402099,90.34149293193902,8,8.0,True,1.3125207424163818
,2024-07-25 14:12:03,sub_120,3,distance,cathedral,spatial_unmasking,2,37,0,0,_four_,talker-p248_sex-f_text-_four_.wav,p248,f,5,7,6.0,7.0,RX81,6,0.0,0.0,7.0,84.341492931939,babble-reversed_n13_p256-five-p229-one-p318-three-p248-nine-p284-eight-p268-two.wav,4,RX81,5,0.0,0.0,6.0,89.31368318402099,mgb_normalisation,89.31368318402099,90.34149293193902,4,4.0,True,4.563208341598511
,2024-07-25 14:12:07,sub_120,3,distance,cathedral,spatial_unmasking,2,38,0,0,_six_,talker-p248_sex-f_text-_six_.wav,p248,f,5,8,6.0,7.0,RX81,6,0.0,0.0,7.0,82.34149293193902,babble-reversed_n13_p229-three-p307-one-p318-two-p245-eight-p268-five-p284-four.wav,4,RX81,5,0.0,0.0,6.0,89.31368318402099,mgb_normalisation,89.31368318402099,90.34149293193902,6,6.0,True,1.4375216960906982
,2024-07-25 14:12:11,sub_120,3,distance,cathedral,spatial_unmasking,2,39,0,0,_five_,talker-p248_sex-f_text-_five_.wav,p248,f,5,9,6.0,7.0,RX81,6,0.0,0.0,7.0,82.341492931939,babble-reversed_n13_p307-five-p229-three-p318-nine-p245-four-p268-eight-p284-two.wav,4,RX81,5,0.0,0.0,6.0,89.31368318402099,mgb_normalisation,89.31368318402099,90.34149293193902,5,5.0,True,1.25001859664917
,2024-07-25 14:12:14,sub_120,3,distance,cathedral,spatial_unmasking,2,40,0,0,_nine_,talker-p248_sex-f_text-_nine_.wav,p248,f,5,10,6.0,7.0,RX81,6,0.0,0.0,7.0,80.341492931939,babble-reversed_n13_p318-five-p256-nine-p307-two-p245-eight-p248-one-p284-four.wav,4,RX81,5,0.0,0.0,6.0,89.313683184021,mgb_normalisation,89.31368318402099,90.34149293193902,9,9.0,True,1.126175880432129
,2024-07-25 14:12:18,sub_120,3,distance,cathedral,spatial_unmasking,2,41,0,0,_six_,talker-p248_sex-f_text-_six_.wav,p248,f,5,11,6.0,7.0,RX81,6,0.0,0.0,7.0,80.34149293193903,babble-reversed_n13_p256-five-p307-nine-p318-three-p284-eight-p268-one-p248-two.wav,4,RX81,5,0.0,0.0,6.0,89.31368318402099,mgb_normalisation,89.31368318402099,90.34149293193902,6,6.0,True,1.2497165203094482
,2024-07-25 14:12:25,sub_120,3,distance,cathedral,spatial_unmasking,2,42,0,0,_one_,talker-p248_sex-f_text-_one_.wav,p248,f,5,12,6.0,7.0,RX81,6,0.0,0.0,7.0,78.34149293193902,babble-reversed_n13_p307-five-p229-two-p318-four-p248-three-p245-nine-p268-eight.wav,4,RX81,5,0.0,0.0,6.0,89.31368318402099,mgb_normalisation,89.31368318402099,90.34149293193902,1,8.0,False,4.874860286712647
,2024-07-25 14:12:29,sub_120,3,distance,cathedral,spatial_unmasking,2,43,0,0,_three_,talker-p248_sex-f_text-_three_.wav,p248,f,5,13,6.0,7.0,RX81,6,0.0,0.0,7.0,79.341492931939,babble-reversed_n13_p318-three-p229-one-p256-eight-p245-five-p248-four-p284-nine.wav,4,RX81,5,0.0,0.0,6.0,89.313683184021,mgb_normalisation,89.31368318402099,90.34149293193902,3,9.0,False,1.1882498264312744
,2024-07-25 14:12:33,sub_120,3,distance,cathedral,spatial_unmasking,2,44,0,0,_three_,talker-p248_sex-f_text-_three_.wav,p248,f,5,14,6.0,7.0,RX81,6,0.0,0.0,7.0,80.341492931939,babble-reversed_n13_p307-five-p229-three-p318-nine-p245-four-p268-eight-p284-two.wav,4,RX81,5,0.0,0.0,6.0,89.31368318402099,mgb_normalisation,89.31368318402099,90.34149293193902,3,3.0,True,1.3120884895324707
,2024-07-25 14:12:36,sub_120,3,distance,cathedral,spatial_unmasking,2,45,0,0,_nine_,talker-p248_sex-f_text-_nine_.wav,p248,f,5,15,6.0,7.0,RX81,6,0.0,0.0,7.0,80.341492931939,babble-reversed_n13_p229-five-p256-one-p318-three-p248-nine-p268-four-p284-eight.wav,4,RX81,5,0.0,0.0,6.0,89.31368318402099,mgb_normalisation,89.31368318402099,90.34149293193902,9,9.0,True,1.0625154972076416
,2024-07-25 14:12:45,sub_120,3,distance,cathedral,spatial_unmasking,2,46,0,0,_four_,talker-p248_sex-f_text-_four_.wav,p248,f,5,16,6.0,7.0,RX81,6,0.0,0.0,7.0,79.341492931939,babble-reversed_n13_p256-two-p307-five-p318-nine-p248-eight-p245-four-p284-one.wav,4,RX81,5,0.0,0.0,6.0,89.31368318402099,mgb_normalisation,89.31368318402099,90.34149293193902,4,3.0,False,6.564153909683228
,2024-07-25 14:12:49,sub_120,3,distance,cathedral,spatial_unmasking,2,47,0,0,_one_,talker-p248_sex-f_text-_one_.wav,p248,f,5,17,6.0,7.0,RX81,6,0.0,0.0,7.0,80.34149293193903,babble-reversed_n13_p307-nine-p229-one-p256-eight-p248-four-p284-two-p268-three.wav,4,RX81,5,0.0,0.0,6.0,89.31368318402099,mgb_normalisation,89.31368318402099,90.34149293193902,1,1.0,True,1.2512879371643066
,2024-07-25 14:12:52,sub_120,3,distance,cathedral,spatial_unmasking,2,48,0,0,_nine_,talker-p248_sex-f_text-_nine_.wav,p248,f,5,18,6.0,7.0,RX81,6,0.0,0.0,7.0,80.341492931939,babble-reversed_n13_p318-three-p307-one-p256-five-p248-nine-p245-two-p284-eight.wav,4,RX81,5,0.0,0.0,6.0,89.31368318402099,mgb_normalisation,89.31368318402099,90.34149293193902,9,9.0,True,1.2500193119049072
,2024-07-25 14:12:56,sub_120,3,distance,cathedral,spatial_unmasking,2,49,0,0,_two_,talker-p248_sex-f_text-_two_.wav,p248,f,5,19,6.0,7.0,RX81,6,0.0,0.0,7.0,79.34149293193902,babble-reversed_n13_p307-nine-p318-two-p256-one-p245-three-p268-four-p248-eight.wav,4,RX81,5,0.0,0.0,6.0,89.31368318402099,mgb_normalisation,89.31368318402099,90.34149293193902,2,3.0,False,1.250018835067749
,2024-07-25 14:12:59,sub_120,3,distance,cathedral,spatial_unmasking,2,50,0,0,_nine_,talker-p248_sex-f_text-_nine_.wav,p248,f,5,20,6.0,7.0,RX81,6,0.0,0.0,7.0,80.341492931939,babble-reversed_n13_p229-three-p307-one-p318-two-p245-eight-p268-five-p284-four.wav,4,RX81,5,0.0,0.0,6.0,89.31368318402099,mgb_normalisation,89.31368318402099,90.34149293193902,9,9.0,True,1.190500020980835
,2024-07-25 14:13:03,sub_120,3,distance,cathedral,spatial_unmasking,2,51,0,0,_three_,talker-p248_sex-f_text-_three_.wav,p248,f,5,21,6.0,7.0,RX81,6,0.0,0.0,7.0,80.341492931939,babble-reversed_n13_p229-three-p256-one-p307-two-p284-eight-p268-five-p248-nine.wav,4,RX81,5,0.0,0.0,6.0,89.31368318402099,mgb_normalisation,89.31368318402099,90.34149293193902,3,3.0,True,1.3127295970916748
,2024-07-25 14:13:08,sub_120,3,distance,cathedral,spatial_unmasking,2,52,0,0,_four_,talker-p248_sex-f_text-_four_.wav,p248,f,5,22,6.0,7.0,RX81,6,0.0,0.0,7.0,79.341492931939,babble-reversed_n13_p256-eight-p318-five-p307-four-p245-three-p268-one-p284-nine.wav,4,RX81,5,0.0,0.0,6.0,89.31368318402099,mgb_normalisation,89.31368318402099,90.34149293193902,4,9.0,False,2.8756637573242188
,2024-07-25 14:13:13,sub_120,3,distance,cathedral,spatial_unmasking,2,53,0,0,_eight_,talker-p248_sex-f_text-_eight_.wav,p248,f,5,23,6.0,7.0,RX81,6,0.0,0.0,7.0,80.34149293193903,babble-reversed_n13_p229-five-p256-three-p318-nine-p248-two-p284-four-p268-one.wav,4,RX81,5,0.0,0.0,6.0,89.313683184021,mgb_normalisation,89.31368318402099,90.34149293193902,8,3.0,False,2.560354471206665
,2024-07-25 14:13:17,sub_120,3,distance,cathedral,spatial_unmasking,2,54,0,0,_six_,talker-p248_sex-f_text-_six_.wav,p248,f,5,24,6.0,7.0,RX81,6,0.0,0.0,7.0,81.34149293193902,babble-reversed_n13_p307-two-p256-four-p318-three-p284-eight-p248-five-p245-nine.wav,4,RX81,5,0.0,0.0,6.0,89.313683184021,mgb_normalisation,89.31368318402099,90.34149293193902,6,6.0,True,1.4374966621398926
,2024-07-25 14:13:21,sub_120,3,distance,cathedral,spatial_unmasking,2,55,0,0,_three_,talker-p248_sex-f_text-_three_.wav,p248,f,5,25,6.0,7.0,RX81,6,0.0,0.0,7.0,81.34149293193902,babble-reversed_n13_p229-two-p307-five-p318-four-p284-one-p248-nine-p268-eight.wav,4,RX81,5,0.0,0.0,6.0,89.31368318402099,mgb_normalisation,89.31368318402099,90.34149293193902,3,3.0,True,1.2500183582305908
,2024-07-25 14:13:24,sub_120,3,distance,cathedral,spatial_unmasking,2,56,0,0,_three_,talker-p248_sex-f_text-_three_.wav,p248,f,5,26,6.0,7.0,RX81,6,0.0,0.0,7.0,80.341492931939,babble-reversed_n13_p318-three-p307-one-p256-five-p248-nine-p245-two-p284-eight.wav,4,RX81,5,0.0,0.0,6.0,89.31368318402099,mgb_normalisation,89.31368318402099,90.34149293193902,3,3.0,True,1.1889088153839111
,2024-07-25 14:13:28,sub_120,3,distance,cathedral,spatial_unmasking,2,57,0,0,_three_,talker-p248_sex-f_text-_three_.wav,p248,f,5,27,6.0,7.0,RX81,6,0.0,0.0,7.0,80.341492931939,babble-reversed_n13_p229-five-p256-one-p318-three-p248-nine-p268-four-p284-eight.wav,4,RX81,5,0.0,0.0,6.0,89.31368318402099,mgb_normalisation,89.31368318402099,90.34149293193902,3,9.0,False,1.254049301147461
,2024-07-25 14:13:32,sub_120,3,distance,cathedral,spatial_unmasking,2,58,0,0,_two_,talker-p248_sex-f_text-_two_.wav,p248,f,5,28,6.0,7.0,RX81,6,0.0,0.0,7.0,81.34149293193902,babble-reversed_n13_p256-eight-p318-five-p307-four-p245-three-p268-one-p284-nine.wav,4,RX81,5,0.0,0.0,6.0,89.31368318402099,mgb_normalisation,89.31368318402099,90.34149293193902,2,3.0,False,1.8125269412994385
,2024-07-25 14:13:38,sub_120,3,distance,cathedral,spatial_unmasking,2,59,0,0,_two_,talker-p248_sex-f_text-_two_.wav,p248,f,5,29,6.0,7.0,RX81,6,0.0,0.0,7.0,82.34149293193902,babble-reversed_n13_p256-four-p229-eight-p307-five-p248-three-p245-one-p284-two.wav,4,RX81,5,0.0,0.0,6.0,89.31368318402099,mgb_normalisation,89.31368318402099,90.34149293193902,2,2.0,True,3.124802350997925
,2024-07-25 14:13:42,sub_120,3,distance,cathedral,spatial_unmasking,2,60,0,0,_one_,talker-p248_sex-f_text-_one_.wav,p248,f,5,30,6.0,7.0,RX81,6,0.0,0.0,7.0,82.34149293193902,babble-reversed_n13_p318-nine-p256-five-p307-eight-p268-three-p248-one-p245-four.wav,4,RX81,5,0.0,0.0,6.0,89.31368318402099,mgb_normalisation,89.31368318402099,90.34149293193902,1,9.0,False,1.3124516010284424
,2024-07-25 14:13:48,sub_120,3,distance,cathedral,spatial_unmasking,2,61,0,0,_two_,talker-p248_sex-f_text-_two_.wav,p248,f,5,31,6.0,7.0,RX81,6,0.0,0.0,7.0,83.34149293193903,babble-reversed_n13_p318-nine-p256-five-p307-eight-p268-three-p248-one-p245-four.wav,4,RX81,5,0.0,0.0,6.0,89.31368318402099,mgb_normalisation,89.31368318402099,90.34149293193902,2,3.0,False,3.9380924701690674
,2024-07-25 14:13:54,sub_120,3,distance,cathedral,spatial_unmasking,2,62,0,0,_eight_,talker-p248_sex-f_text-_eight_.wav,p248,f,5,32,6.0,7.0,RX81,6,0.0,0.0,7.0,84.34149293193903,babble-reversed_n13_p229-five-p256-one-p318-three-p248-nine-p268-four-p284-eight.wav,4,RX81,5,0.0,0.0,6.0,89.31368318402099,mgb_normalisation,89.31368318402099,90.34149293193902,8,2.0,False,3.753045320510864
,2024-07-25 14:13:59,sub_120,3,distance,cathedral,spatial_unmasking,2,63,0,0,_eight_,talker-p248_sex-f_text-_eight_.wav,p248,f,5,33,6.0,7.0,RX81,6,0.0,0.0,7.0,85.34149293193903,babble-reversed_n13_p256-five-p229-one-p318-three-p248-nine-p284-eight-p268-two.wav,4,RX81,5,0.0,0.0,6.0,89.31368318402099,mgb_normalisation,89.31368318402099,90.34149293193902,8,2.0,False,2.374420642852783
,2024-07-25 14:14:02,sub_120,3,distance,cathedral,spatial_unmasking,2,64,0,0,_five_,talker-p248_sex-f_text-_five_.wav,p248,f,5,34,6.0,7.0,RX81,6,0.0,0.0,7.0,86.341492931939,babble-reversed_n13_p256-four-p229-two-p318-five-p268-one-p248-eight-p245-three.wav,4,RX81,5,0.0,0.0,6.0,89.31368318402099,mgb_normalisation,89.31368318402099,90.34149293193902,5,5.0,True,1.2500181198120115
,2024-07-25 14:14:06,sub_120,3,distance,cathedral,spatial_unmasking,2,65,0,0,_one_,talker-p248_sex-f_text-_one_.wav,p248,f,5,35,6.0,7.0,RX81,6,0.0,0.0,7.0,86.34149293193902,babble-reversed_n13_p229-five-p318-three-p307-two-p245-four-p284-nine-p248-eight.wav,4,RX81,5,0.0,0.0,6.0,89.31368318402099,mgb_normalisation,89.31368318402099,90.34149293193902,1,1.0,True,1.250018835067749
,2024-07-25 14:16:21,sub_120,3,distance,cathedral,spatial_unmasking,3,66,0,0,_three_,talker-p248_sex-f_text-_three_.wav,p248,f,5,1,10.0,7.0,RX81,6,0.0,0.0,7.0,92.34149293193902,babble-reversed_n13_p256-four-p229-two-p318-five-p268-one-p248-eight-p245-three.wav,8,RX81,9,0.0,0.0,10.0,92.0152836843556,mgb_normalisation,92.0152836843556,90.34149293193902,3,3.0,True,1.125082015991211
,2024-07-25 14:16:25,sub_120,3,distance,cathedral,spatial_unmasking,3,67,0,0,_nine_,talker-p248_sex-f_text-_nine_.wav,p248,f,5,2,10.0,7.0,RX81,6,0.0,0.0,7.0,88.34149293193902,babble-reversed_n13_p229-one-p318-eight-p256-three-p268-nine-p248-five-p284-four.wav,8,RX81,9,0.0,0.0,10.0,92.0152836843556,mgb_normalisation,92.0152836843556,90.34149293193902,9,9.0,True,1.1275947093963623
,2024-07-25 14:16:28,sub_120,3,distance,cathedral,spatial_unmasking,3,68,0,0,_five_,talker-p248_sex-f_text-_five_.wav,p248,f,5,3,10.0,7.0,RX81,6,0.0,0.0,7.0,84.341492931939,babble-reversed_n13_p229-nine-p318-one-p307-two-p248-eight-p245-five-p284-four.wav,8,RX81,9,0.0,0.0,10.0,92.0152836843556,mgb_normalisation,92.0152836843556,90.34149293193902,5,5.0,True,1.1900324821472168
,2024-07-25 14:16:43,sub_120,3,distance,cathedral,spatial_unmasking,3,69,0,0,_three_,talker-p248_sex-f_text-_three_.wav,p248,f,5,4,10.0,7.0,RX81,6,0.0,0.0,7.0,80.341492931939,babble-reversed_n13_p318-five-p229-three-p256-four-p268-eight-p248-one-p245-nine.wav,8,RX81,9,0.0,0.0,10.0,92.0152836843556,mgb_normalisation,92.0152836843556,90.34149293193902,3,2.0,False,11.673681497573853
,2024-07-25 14:16:47,sub_120,3,distance,cathedral,spatial_unmasking,3,70,0,0,_four_,talker-p248_sex-f_text-_four_.wav,p248,f,5,5,10.0,7.0,RX81,6,0.0,0.0,7.0,82.34149293193902,babble-reversed_n13_p229-one-p318-eight-p256-three-p268-nine-p248-five-p284-four.wav,8,RX81,9,0.0,0.0,10.0,92.0152836843556,mgb_normalisation,92.0152836843556,90.34149293193902,4,4.0,True,2.37504506111145
,2024-07-25 14:16:52,sub_120,3,distance,cathedral,spatial_unmasking,3,71,0,0,_nine_,talker-p248_sex-f_text-_nine_.wav,p248,f,5,6,10.0,7.0,RX81,6,0.0,0.0,7.0,82.34149293193902,babble-reversed_n13_p318-three-p307-one-p256-five-p248-nine-p245-two-p284-eight.wav,8,RX81,9,0.0,0.0,10.0,92.0152836843556,mgb_normalisation,92.0152836843556,90.34149293193902,9,9.0,True,2.0625295639038086
,2024-07-25 14:16:59,sub_120,3,distance,cathedral,spatial_unmasking,3,72,0,0,_one_,talker-p248_sex-f_text-_one_.wav,p248,f,5,7,10.0,7.0,RX81,6,0.0,0.0,7.0,80.34149293193903,babble-reversed_n13_p229-nine-p307-five-p256-two-p248-three-p245-one-p268-eight.wav,8,RX81,9,0.0,0.0,10.0,92.0152836843556,mgb_normalisation,92.0152836843556,90.34149293193902,1,2.0,False,5.001139402389526
,2024-07-25 14:17:03,sub_120,3,distance,cathedral,spatial_unmasking,3,73,0,0,_three_,talker-p248_sex-f_text-_three_.wav,p248,f,5,8,10.0,7.0,RX81,6,0.0,0.0,7.0,81.34149293193902,babble-reversed_n13_p229-nine-p256-four-p318-three-p268-eight-p248-two-p284-five.wav,8,RX81,9,0.0,0.0,10.0,92.0152836843556,mgb_normalisation,92.0152836843556,90.34149293193902,3,3.0,True,1.1250202655792236
,2024-07-25 14:17:07,sub_120,3,distance,cathedral,spatial_unmasking,3,74,0,0,_two_,talker-p248_sex-f_text-_two_.wav,p248,f,5,9,10.0,7.0,RX81,6,0.0,0.0,7.0,81.34149293193902,babble-reversed_n13_p256-four-p307-eight-p318-two-p248-three-p284-nine-p268-one.wav,8,RX81,9,0.0,0.0,10.0,92.0152836843556,mgb_normalisation,92.0152836843556,90.34149293193902,2,2.0,True,2.000029325485229
,2024-07-25 14:17:14,sub_120,3,distance,cathedral,spatial_unmasking,3,75,0,0,_four_,talker-p248_sex-f_text-_four_.wav,p248,f,5,10,10.0,7.0,RX81,6,0.0,0.0,7.0,80.341492931939,babble-reversed_n13_p256-four-p229-eight-p307-five-p248-three-p245-one-p284-two.wav,8,RX81,9,0.0,0.0,10.0,92.0152836843556,mgb_normalisation,92.0152836843556,90.34149293193902,4,2.0,False,4.062694549560547
,2024-07-25 14:17:18,sub_120,3,distance,cathedral,spatial_unmasking,3,76,0,0,_one_,talker-p248_sex-f_text-_one_.wav,p248,f,5,11,10.0,7.0,RX81,6,0.0,0.0,7.0,81.34149293193902,babble-reversed_n13_p318-five-p229-three-p256-four-p268-eight-p248-one-p245-nine.wav,8,RX81,9,0.0,0.0,10.0,92.0152836843556,mgb_normalisation,92.0152836843556,90.34149293193902,1,9.0,False,1.5625226497650146
,2024-07-25 14:17:21,sub_120,3,distance,cathedral,spatial_unmasking,3,77,0,0,_two_,talker-p248_sex-f_text-_two_.wav,p248,f,5,12,10.0,7.0,RX81,6,0.0,0.0,7.0,82.34149293193902,babble-reversed_n13_p229-three-p256-one-p307-two-p284-eight-p268-five-p248-nine.wav,8,RX81,9,0.0,0.0,10.0,92.0152836843556,mgb_normalisation,92.0152836843556,90.34149293193902,2,3.0,False,1.187517166137695
,2024-07-25 14:17:25,sub_120,3,distance,cathedral,spatial_unmasking,3,78,0,0,_three_,talker-p248_sex-f_text-_three_.wav,p248,f,5,13,10.0,7.0,RX81,6,0.0,0.0,7.0,83.34149293193902,babble-reversed_n13_p307-nine-p318-two-p256-one-p245-three-p268-four-p248-eight.wav,8,RX81,9,0.0,0.0,10.0,92.0152836843556,mgb_normalisation,92.0152836843556,90.34149293193902,3,3.0,True,1.127922773361206
,2024-07-25 14:17:28,sub_120,3,distance,cathedral,spatial_unmasking,3,79,0,0,_five_,talker-p248_sex-f_text-_five_.wav,p248,f,5,14,10.0,7.0,RX81,6,0.0,0.0,7.0,83.34149293193902,babble-reversed_n13_p307-one-p318-five-p229-four-p268-eight-p284-two-p245-three.wav,8,RX81,9,0.0,0.0,10.0,92.0152836843556,mgb_normalisation,92.0152836843556,90.34149293193902,5,5.0,True,0.8750121593475342
,2024-07-25 14:17:32,sub_120,3,distance,cathedral,spatial_unmasking,3,80,0,0,_one_,talker-p248_sex-f_text-_one_.wav,p248,f,5,15,10.0,7.0,RX81,6,0.0,0.0,7.0,82.34149293193902,babble-reversed_n13_p256-five-p307-nine-p318-three-p284-eight-p268-one-p248-two.wav,8,RX81,9,0.0,0.0,10.0,92.0152836843556,mgb_normalisation,92.0152836843556,90.34149293193902,1,3.0,False,1.2500152587890625
,2024-07-25 14:17:35,sub_120,3,distance,cathedral,spatial_unmasking,3,81,0,0,_nine_,talker-p248_sex-f_text-_nine_.wav,p248,f,5,16,10.0,7.0,RX81,6,0.0,0.0,7.0,83.34149293193902,babble-reversed_n13_p229-three-p307-one-p318-two-p245-eight-p268-five-p284-four.wav,8,RX81,9,0.0,0.0,10.0,92.0152836843556,mgb_normalisation,92.0152836843556,90.34149293193902,9,9.0,True,1.1776225566864014
,2024-07-25 14:17:42,sub_120,3,distance,cathedral,spatial_unmasking,3,82,0,0,_eight_,talker-p248_sex-f_text-_eight_.wav,p248,f,5,17,10.0,7.0,RX81,6,0.0,0.0,7.0,83.34149293193902,babble-reversed_n13_p307-nine-p229-one-p256-eight-p248-four-p284-two-p268-three.wav,8,RX81,9,0.0,0.0,10.0,92.0152836843556,mgb_normalisation,92.0152836843556,90.34149293193902,8,3.0,False,4.985491514205933
,2024-07-25 14:17:46,sub_120,3,distance,cathedral,spatial_unmasking,3,83,0,0,_three_,talker-p248_sex-f_text-_three_.wav,p248,f,5,18,10.0,7.0,RX81,6,0.0,0.0,7.0,84.341492931939,babble-reversed_n13_p318-nine-p307-eight-p229-two-p284-one-p248-three-p245-five.wav,8,RX81,9,0.0,0.0,10.0,92.0152836843556,mgb_normalisation,92.0152836843556,90.34149293193902,3,3.0,True,1.312519073486328
,2024-07-25 14:17:50,sub_120,3,distance,cathedral,spatial_unmasking,3,84,0,0,_three_,talker-p248_sex-f_text-_three_.wav,p248,f,5,19,10.0,7.0,RX81,6,0.0,0.0,7.0,84.341492931939,babble-reversed_n13_p229-one-p318-eight-p256-three-p268-two-p245-five-p248-nine.wav,8,RX81,9,0.0,0.0,10.0,92.0152836843556,mgb_normalisation,92.0152836843556,90.34149293193902,3,3.0,True,0.9990391731262208
,2024-07-25 14:17:53,sub_120,3,distance,cathedral,spatial_unmasking,3,85,0,0,_six_,talker-p248_sex-f_text-_six_.wav,p248,f,5,20,10.0,7.0,RX81,6,0.0,0.0,7.0,83.34149293193902,babble-reversed_n13_p307-nine-p229-one-p256-eight-p248-four-p284-two-p268-three.wav,8,RX81,9,0.0,0.0,10.0,92.0152836843556,mgb_normalisation,92.0152836843556,90.34149293193902,6,6.0,True,1.125499963760376
,2024-07-25 14:17:57,sub_120,3,distance,cathedral,spatial_unmasking,3,86,0,0,_nine_,talker-p248_sex-f_text-_nine_.wav,p248,f,5,21,10.0,7.0,RX81,6,0.0,0.0,7.0,83.34149293193902,babble-reversed_n13_p256-four-p229-two-p318-five-p268-one-p248-eight-p245-three.wav,8,RX81,9,0.0,0.0,10.0,92.0152836843556,mgb_normalisation,92.0152836843556,90.34149293193902,9,9.0,True,1.1250159740447998
,2024-07-25 14:18:00,sub_120,3,distance,cathedral,spatial_unmasking,3,87,0,0,_six_,talker-p248_sex-f_text-_six_.wav,p248,f,5,22,10.0,7.0,RX81,6,0.0,0.0,7.0,82.34149293193902,babble-reversed_n13_p318-nine-p256-five-p307-eight-p268-three-p248-one-p245-four.wav,8,RX81,9,0.0,0.0,10.0,92.0152836843556,mgb_normalisation,92.0152836843556,90.34149293193902,6,6.0,True,1.5017986297607422
,2024-07-25 14:18:04,sub_120,3,distance,cathedral,spatial_unmasking,3,88,0,0,_three_,talker-p248_sex-f_text-_three_.wav,p248,f,5,23,10.0,7.0,RX81,6,0.0,0.0,7.0,82.34149293193902,babble-reversed_n13_p307-four-p318-three-p256-eight-p284-two-p245-nine-p248-five.wav,8,RX81,9,0.0,0.0,10.0,92.0152836843556,mgb_normalisation,92.0152836843556,90.34149293193902,3,3.0,True,1.0003533363342283
,2024-07-25 14:18:10,sub_120,3,distance,cathedral,spatial_unmasking,3,89,0,0,_four_,talker-p248_sex-f_text-_four_.wav,p248,f,5,24,10.0,7.0,RX81,6,0.0,0.0,7.0,81.341492931939,babble-reversed_n13_p229-five-p318-two-p307-eight-p268-three-p248-four-p245-one.wav,8,RX81,9,0.0,0.0,10.0,92.0152836843556,mgb_normalisation,92.0152836843556,90.34149293193902,4,4.0,True,3.736225128173828
,2024-07-25 14:18:22,sub_120,3,distance,cathedral,spatial_unmasking,3,90,0,0,_two_,talker-p248_sex-f_text-_two_.wav,p248,f,5,25,10.0,7.0,RX81,6,0.0,0.0,7.0,81.34149293193902,babble-reversed_n13_p229-two-p307-five-p318-four-p284-one-p248-nine-p268-eight.wav,8,RX81,9,0.0,0.0,10.0,92.0152836843556,mgb_normalisation,92.0152836843556,90.34149293193902,2,6.0,False,9.689281463623049
,2024-07-25 14:18:26,sub_120,3,distance,cathedral,spatial_unmasking,3,91,0,0,_five_,talker-p248_sex-f_text-_five_.wav,p248,f,5,26,10.0,7.0,RX81,6,0.0,0.0,7.0,82.341492931939,babble-reversed_n13_p256-five-p307-nine-p318-three-p284-eight-p268-one-p248-two.wav,8,RX81,9,0.0,0.0,10.0,92.0152836843556,mgb_normalisation,92.0152836843556,90.34149293193902,5,5.0,True,1.0000147819519043
,2024-07-25 14:18:29,sub_120,3,distance,cathedral,spatial_unmasking,3,92,0,0,_three_,talker-p248_sex-f_text-_three_.wav,p248,f,5,27,10.0,7.0,RX81,6,0.0,0.0,7.0,82.34149293193902,babble-reversed_n13_p318-five-p256-nine-p307-eight-p248-two-p245-four-p284-three.wav,8,RX81,9,0.0,0.0,10.0,92.0152836843556,mgb_normalisation,92.0152836843556,90.34149293193902,3,3.0,True,0.8744571208953857
,2024-07-25 14:18:32,sub_120,3,distance,cathedral,spatial_unmasking,3,93,0,0,_one_,talker-p248_sex-f_text-_one_.wav,p248,f,5,28,10.0,7.0,RX81,6,0.0,0.0,7.0,81.34149293193902,babble-reversed_n13_p256-nine-p307-four-p229-one-p284-three-p248-two-p245-five.wav,8,RX81,9,0.0,0.0,10.0,92.0152836843556,mgb_normalisation,92.0152836843556,90.34149293193902,1,3.0,False,1.1250152587890625
,2024-07-25 14:18:36,sub_120,3,distance,cathedral,spatial_unmasking,3,94,0,0,_four_,talker-p248_sex-f_text-_four_.wav,p248,f,5,29,10.0,7.0,RX81,6,0.0,0.0,7.0,82.34149293193902,babble-reversed_n13_p318-five-p256-nine-p307-eight-p248-two-p245-four-p284-three.wav,8,RX81,9,0.0,0.0,10.0,92.0152836843556,mgb_normalisation,92.0152836843556,90.34149293193902,4,2.0,False,1.312519073486328
,2024-07-25 14:18:40,sub_120,3,distance,cathedral,spatial_unmasking,3,95,0,0,_two_,talker-p248_sex-f_text-_two_.wav,p248,f,5,30,10.0,7.0,RX81,6,0.0,0.0,7.0,83.34149293193903,babble-reversed_n13_p318-five-p229-three-p256-four-p268-eight-p248-one-p245-nine.wav,8,RX81,9,0.0,0.0,10.0,92.0152836843556,mgb_normalisation,92.0152836843556,90.34149293193902,2,2.0,True,1.3025908470153809
,2024-07-25 14:18:47,sub_120,3,distance,cathedral,spatial_unmasking,3,96,0,0,_eight_,talker-p248_sex-f_text-_eight_.wav,p248,f,5,31,10.0,7.0,RX81,6,0.0,0.0,7.0,83.34149293193902,babble-reversed_n13_p318-three-p307-one-p256-five-p248-nine-p245-two-p284-eight.wav,8,RX81,9,0.0,0.0,10.0,92.0152836843556,mgb_normalisation,92.0152836843556,90.34149293193902,8,2.0,False,4.870906114578247
,2024-07-25 14:18:51,sub_120,3,distance,cathedral,spatial_unmasking,3,97,0,0,_four_,talker-p248_sex-f_text-_four_.wav,p248,f,5,32,10.0,7.0,RX81,6,0.0,0.0,7.0,84.341492931939,babble-reversed_n13_p307-nine-p318-two-p256-one-p245-three-p268-four-p248-eight.wav,8,RX81,9,0.0,0.0,10.0,92.0152836843556,mgb_normalisation,92.0152836843556,90.34149293193902,4,4.0,True,1.3125195503234863
,2024-07-25 14:18:54,sub_120,3,distance,cathedral,spatial_unmasking,3,98,0,0,_five_,talker-p248_sex-f_text-_five_.wav,p248,f,5,33,10.0,7.0,RX81,6,0.0,0.0,7.0,84.341492931939,babble-reversed_n13_p229-nine-p318-one-p307-two-p248-eight-p245-five-p284-four.wav,8,RX81,9,0.0,0.0,10.0,92.0152836843556,mgb_normalisation,92.0152836843556,90.34149293193902,5,5.0,True,1.0624399185180664
,2024-07-25 14:20:40,sub_120,3,distance,cathedral,spatial_unmasking,4,99,0,0,_three_,talker-p248_sex-f_text-_three_.wav,p248,f,5,1,12.0,7.0,RX81,6,0.0,0.0,7.0,92.34149293193902,babble-reversed_n13_p256-nine-p307-four-p229-one-p284-three-p248-two-p245-five.wav,10,RX81,11,0.0,0.0,12.0,93.00003341222718,mgb_normalisation,93.00003341222715,90.34149293193902,3,3.0,True,1.3612818717956543
,2024-07-25 14:20:43,sub_120,3,distance,cathedral,spatial_unmasking,4,100,0,0,_one_,talker-p248_sex-f_text-_one_.wav,p248,f,5,2,12.0,7.0,RX81,6,0.0,0.0,7.0,88.34149293193903,babble-reversed_n13_p318-five-p229-three-p256-four-p268-eight-p248-one-p245-nine.wav,10,RX81,11,0.0,0.0,12.0,93.00003341222718,mgb_normalisation,93.00003341222715,90.34149293193902,1,1.0,True,1.249875545501709
,2024-07-25 14:20:47,sub_120,3,distance,cathedral,spatial_unmasking,4,101,0,0,_five_,talker-p248_sex-f_text-_five_.wav,p248,f,5,3,12.0,7.0,RX81,6,0.0,0.0,7.0,84.341492931939,babble-reversed_n13_p307-four-p318-three-p256-eight-p284-two-p245-nine-p248-five.wav,10,RX81,11,0.0,0.0,12.0,93.00003341222715,mgb_normalisation,93.00003341222715,90.34149293193902,5,5.0,True,1.1874885559082031
,2024-07-25 14:20:51,sub_120,3,distance,cathedral,spatial_unmasking,4,102,0,0,_three_,talker-p248_sex-f_text-_three_.wav,p248,f,5,4,12.0,7.0,RX81,6,0.0,0.0,7.0,80.341492931939,babble-reversed_n13_p256-eight-p229-three-p307-nine-p245-five-p248-four-p268-two.wav,10,RX81,11,0.0,0.0,12.0,93.00003341222715,mgb_normalisation,93.00003341222715,90.34149293193902,3,3.0,True,1.19031023979187
,2024-07-25 14:20:54,sub_120,3,distance,cathedral,spatial_unmasking,4,103,0,0,_four_,talker-p248_sex-f_text-_four_.wav,p248,f,5,5,12.0,7.0,RX81,6,0.0,0.0,7.0,76.34149293193902,babble-reversed_n13_p318-five-p256-nine-p307-eight-p248-two-p245-four-p284-three.wav,10,RX81,11,0.0,0.0,12.0,93.00003341222718,mgb_normalisation,93.00003341222715,90.34149293193902,4,2.0,False,1.1855101585388184
,2024-07-25 14:20:58,sub_120,3,distance,cathedral,spatial_unmasking,4,104,0,0,_four_,talker-p248_sex-f_text-_four_.wav,p248,f,5,6,12.0,7.0,RX81,6,0.0,0.0,7.0,78.34149293193902,babble-reversed_n13_p229-eight-p256-nine-p318-four-p245-three-p268-five-p284-two.wav,10,RX81,11,0.0,0.0,12.0,93.00003341222715,mgb_normalisation,93.00003341222715,90.34149293193902,4,4.0,True,1.8124237060546875
,2024-07-25 14:21:02,sub_120,3,distance,cathedral,spatial_unmasking,4,105,0,0,_five_,talker-p248_sex-f_text-_five_.wav,p248,f,5,7,12.0,7.0,RX81,6,0.0,0.0,7.0,78.341492931939,babble-reversed_n13_p318-three-p229-one-p256-eight-p245-five-p248-four-p284-nine.wav,10,RX81,11,0.0,0.0,12.0,93.00003341222718,mgb_normalisation,93.00003341222715,90.34149293193902,5,5.0,True,1.3124866485595703
,2024-07-25 14:21:06,sub_120,3,distance,cathedral,spatial_unmasking,4,106,0,0,_eight_,talker-p248_sex-f_text-_eight_.wav,p248,f,5,8,12.0,7.0,RX81,6,0.0,0.0,7.0,76.34149293193902,babble-reversed_n13_p318-five-p229-four-p256-eight-p284-one-p245-three-p248-two.wav,10,RX81,11,0.0,0.0,12.0,93.00003341222718,mgb_normalisation,93.00003341222715,90.34149293193902,8,3.0,False,1.374939203262329
,2024-07-25 14:21:10,sub_120,3,distance,cathedral,spatial_unmasking,4,107,0,0,_five_,talker-p248_sex-f_text-_five_.wav,p248,f,5,9,12.0,7.0,RX81,6,0.0,0.0,7.0,77.341492931939,babble-reversed_n13_p256-nine-p307-four-p229-one-p284-three-p248-two-p245-five.wav,10,RX81,11,0.0,0.0,12.0,93.00003341222718,mgb_normalisation,93.00003341222715,90.34149293193902,5,5.0,True,1.7509396076202393
,2024-07-25 14:21:14,sub_120,3,distance,cathedral,spatial_unmasking,4,108,0,0,_five_,talker-p248_sex-f_text-_five_.wav,p248,f,5,10,12.0,7.0,RX81,6,0.0,0.0,7.0,77.341492931939,babble-reversed_n13_p229-three-p256-one-p307-two-p284-eight-p268-five-p248-nine.wav,10,RX81,11,0.0,0.0,12.0,93.00003341222718,mgb_normalisation,93.00003341222715,90.34149293193902,5,5.0,True,1.25293231010437
,2024-07-25 14:21:20,sub_120,3,distance,cathedral,spatial_unmasking,4,109,0,0,_one_,talker-p248_sex-f_text-_one_.wav,p248,f,5,11,12.0,7.0,RX81,6,0.0,0.0,7.0,76.34149293193902,babble-reversed_n13_p229-five-p256-three-p318-nine-p248-two-p284-four-p268-one.wav,10,RX81,11,0.0,0.0,12.0,93.00003341222718,mgb_normalisation,93.00003341222715,90.34149293193902,1,2.0,False,3.6103196144104
,2024-07-25 14:21:23,sub_120,3,distance,cathedral,spatial_unmasking,4,110,0,0,_five_,talker-p248_sex-f_text-_five_.wav,p248,f,5,12,12.0,7.0,RX81,6,0.0,0.0,7.0,77.341492931939,babble-reversed_n13_p256-eight-p229-three-p307-nine-p245-five-p248-four-p268-two.wav,10,RX81,11,0.0,0.0,12.0,93.00003341222715,mgb_normalisation,93.00003341222715,90.34149293193902,5,5.0,True,1.3125362396240234
,2024-07-25 14:21:27,sub_120,3,distance,cathedral,spatial_unmasking,4,111,0,0,_five_,talker-p248_sex-f_text-_five_.wav,p248,f,5,13,12.0,7.0,RX81,6,0.0,0.0,7.0,77.341492931939,babble-reversed_n13_p229-two-p318-eight-p256-three-p268-one-p248-nine-p284-five.wav,10,RX81,11,0.0,0.0,12.0,93.00003341222715,mgb_normalisation,93.00003341222715,90.34149293193902,5,5.0,True,1.1874887943267822
,2024-07-25 14:21:31,sub_120,3,distance,cathedral,spatial_unmasking,4,112,0,0,_one_,talker-p248_sex-f_text-_one_.wav,p248,f,5,14,12.0,7.0,RX81,6,0.0,0.0,7.0,76.34149293193902,babble-reversed_n13_p318-five-p256-nine-p307-eight-p248-two-p245-four-p284-three.wav,10,RX81,11,0.0,0.0,12.0,93.00003341222718,mgb_normalisation,93.00003341222715,90.34149293193902,1,2.0,False,2.187352180480957
,2024-07-25 14:21:36,sub_120,3,distance,cathedral,spatial_unmasking,4,113,0,0,_two_,talker-p248_sex-f_text-_two_.wav,p248,f,5,15,12.0,7.0,RX81,6,0.0,0.0,7.0,77.34149293193903,babble-reversed_n13_p307-four-p318-three-p256-eight-p284-two-p245-nine-p248-five.wav,10,RX81,11,0.0,0.0,12.0,93.00003341222715,mgb_normalisation,93.00003341222715,90.34149293193902,2,3.0,False,2.3729803562164307
,2024-07-25 14:21:42,sub_120,3,distance,cathedral,spatial_unmasking,4,114,0,0,_eight_,talker-p248_sex-f_text-_eight_.wav,p248,f,5,16,12.0,7.0,RX81,6,0.0,0.0,7.0,78.34149293193902,babble-reversed_n13_p307-five-p229-two-p318-four-p248-three-p245-nine-p268-eight.wav,10,RX81,11,0.0,0.0,12.0,93.00003341222715,mgb_normalisation,93.00003341222715,90.34149293193902,8,2.0,False,3.562310218811035
,2024-07-25 14:21:58,sub_120,3,distance,cathedral,spatial_unmasking,4,115,0,0,_one_,talker-p248_sex-f_text-_one_.wav,p248,f,5,17,12.0,7.0,RX81,6,0.0,0.0,7.0,79.34149293193902,babble-reversed_n13_p229-five-p318-three-p307-two-p245-four-p284-nine-p248-eight.wav,10,RX81,11,0.0,0.0,12.0,93.00003341222715,mgb_normalisation,93.00003341222715,90.34149293193902,1,1.0,True,13.125572681427002
,2024-07-25 14:22:01,sub_120,3,distance,cathedral,spatial_unmasking,4,116,0,0,_two_,talker-p248_sex-f_text-_two_.wav,p248,f,5,18,12.0,7.0,RX81,6,0.0,0.0,7.0,79.34149293193902,babble-reversed_n13_p229-three-p307-one-p318-two-p245-eight-p268-five-p284-four.wav,10,RX81,11,0.0,0.0,12.0,93.00003341222718,mgb_normalisation,93.00003341222715,90.34149293193902,2,6.0,False,1.4374864101409912
,2024-07-25 14:22:05,sub_120,3,distance,cathedral,spatial_unmasking,4,117,0,0,_three_,talker-p248_sex-f_text-_three_.wav,p248,f,5,19,12.0,7.0,RX81,6,0.0,0.0,7.0,80.341492931939,babble-reversed_n13_p229-three-p256-nine-p318-five-p248-one-p245-eight-p284-two.wav,10,RX81,11,0.0,0.0,12.0,93.00003341222718,mgb_normalisation,93.00003341222715,90.34149293193902,3,9.0,False,1.1863760948181152
,2024-07-25 14:22:09,sub_120,3,distance,cathedral,spatial_unmasking,4,118,0,0,_four_,talker-p248_sex-f_text-_four_.wav,p248,f,5,20,12.0,7.0,RX81,6,0.0,0.0,7.0,81.341492931939,babble-reversed_n13_p318-five-p229-three-p256-four-p268-eight-p248-one-p245-nine.wav,10,RX81,11,0.0,0.0,12.0,93.00003341222718,mgb_normalisation,93.00003341222715,90.34149293193902,4,4.0,True,2.124773502349853
,2024-07-25 14:22:14,sub_120,3,distance,cathedral,spatial_unmasking,4,119,0,0,_three_,talker-p248_sex-f_text-_three_.wav,p248,f,5,21,12.0,7.0,RX81,6,0.0,0.0,7.0,81.34149293193902,babble-reversed_n13_p229-five-p318-three-p307-two-p245-four-p284-nine-p248-eight.wav,10,RX81,11,0.0,0.0,12.0,93.00003341222715,mgb_normalisation,93.00003341222715,90.34149293193902,3,3.0,True,1.7514331340789795
,2024-07-25 14:22:17,sub_120,3,distance,cathedral,spatial_unmasking,4,120,0,0,_one_,talker-p248_sex-f_text-_one_.wav,p248,f,5,22,12.0,7.0,RX81,6,0.0,0.0,7.0,80.34149293193903,babble-reversed_n13_p229-one-p318-eight-p256-three-p268-nine-p248-five-p284-four.wav,10,RX81,11,0.0,0.0,12.0,93.00003341222715,mgb_normalisation,93.00003341222715,90.34149293193902,1,1.0,True,1.1249895095825195
,2024-07-25 14:22:22,sub_120,3,distance,cathedral,spatial_unmasking,4,121,0,0,_nine_,talker-p248_sex-f_text-_nine_.wav,p248,f,5,23,12.0,7.0,RX81,6,0.0,0.0,7.0,80.341492931939,babble-reversed_n13_p318-three-p229-one-p256-eight-p245-five-p248-four-p284-nine.wav,10,RX81,11,0.0,0.0,12.0,93.00003341222718,mgb_normalisation,93.00003341222715,90.34149293193902,9,3.0,False,2.874908685684204
,2024-07-25 14:22:31,sub_120,3,distance,cathedral,spatial_unmasking,4,122,0,0,_eight_,talker-p248_sex-f_text-_eight_.wav,p248,f,5,24,12.0,7.0,RX81,6,0.0,0.0,7.0,81.34149293193902,babble-reversed_n13_p256-five-p307-nine-p318-three-p284-eight-p268-one-p248-two.wav,10,RX81,11,0.0,0.0,12.0,93.00003341222715,mgb_normalisation,93.00003341222715,90.34149293193902,8,2.0,False,5.68790864944458
,2024-07-25 14:22:34,sub_120,3,distance,cathedral,spatial_unmasking,4,123,0,0,_nine_,talker-p248_sex-f_text-_nine_.wav,p248,f,5,25,12.0,7.0,RX81,6,0.0,0.0,7.0,82.34149293193902,babble-reversed_n13_p318-nine-p307-eight-p229-two-p284-one-p248-three-p245-five.wav,10,RX81,11,0.0,0.0,12.0,93.00003341222718,mgb_normalisation,93.00003341222715,90.34149293193902,9,9.0,True,1.1224665641784668
,2024-07-25 14:22:38,sub_120,3,distance,cathedral,spatial_unmasking,4,124,0,0,_nine_,talker-p248_sex-f_text-_nine_.wav,p248,f,5,26,12.0,7.0,RX81,6,0.0,0.0,7.0,82.34149293193902,babble-reversed_n13_p256-two-p307-five-p318-nine-p248-eight-p245-four-p284-one.wav,10,RX81,11,0.0,0.0,12.0,93.00003341222718,mgb_normalisation,93.00003341222715,90.34149293193902,9,9.0,True,0.9999902248382568
,2024-07-25 14:22:41,sub_120,3,distance,cathedral,spatial_unmasking,4,125,0,0,_two_,talker-p248_sex-f_text-_two_.wav,p248,f,5,27,12.0,7.0,RX81,6,0.0,0.0,7.0,81.34149293193902,babble-reversed_n13_p229-eight-p256-nine-p318-four-p245-three-p268-five-p284-two.wav,10,RX81,11,0.0,0.0,12.0,93.00003341222715,mgb_normalisation,93.00003341222715,90.34149293193902,2,2.0,True,1.249988079071045
,2024-07-25 14:22:51,sub_120,3,distance,cathedral,spatial_unmasking,4,126,0,0,_two_,talker-p248_sex-f_text-_two_.wav,p248,f,5,28,12.0,7.0,RX81,6,0.0,0.0,7.0,81.34149293193902,babble-reversed_n13_p318-four-p256-five-p229-three-p284-one-p245-eight-p248-nine.wav,10,RX81,11,0.0,0.0,12.0,93.00003341222718,mgb_normalisation,93.00003341222715,90.34149293193902,2,1.0,False,7.626207828521728
,2024-07-25 14:22:55,sub_120,3,distance,cathedral,spatial_unmasking,4,127,0,0,_two_,talker-p248_sex-f_text-_two_.wav,p248,f,5,29,12.0,7.0,RX81,6,0.0,0.0,7.0,82.34149293193902,babble-reversed_n13_p318-nine-p256-five-p307-eight-p268-three-p248-one-p245-four.wav,10,RX81,11,0.0,0.0,12.0,93.00003341222718,mgb_normalisation,93.00003341222715,90.34149293193902,2,2.0,True,1.485215187072754
,2024-07-25 14:22:59,sub_120,3,distance,cathedral,spatial_unmasking,4,128,0,0,_five_,talker-p248_sex-f_text-_five_.wav,p248,f,5,30,12.0,7.0,RX81,6,0.0,0.0,7.0,82.341492931939,babble-reversed_n13_p229-one-p318-eight-p256-three-p268-nine-p248-five-p284-four.wav,10,RX81,11,0.0,0.0,12.0,93.00003341222715,mgb_normalisation,93.00003341222715,90.34149293193902,5,5.0,True,1.3109383583068848
,2024-07-25 14:25:31,sub_120,3,distance,cathedral,spatial_unmasking,5,129,0,0,_two_,talker-p248_sex-f_text-_two_.wav,p248,f,5,1,8.0,7.0,RX81,6,0.0,0.0,7.0,92.34149293193902,babble-reversed_n13_p229-three-p307-one-p318-two-p245-eight-p268-five-p284-four.wav,6,RX81,7,0.0,0.0,8.0,91.58892582949888,mgb_normalisation,91.58892582949886,90.34149293193902,2,2.0,True,1.8751530647277832
,2024-07-25 14:25:35,sub_120,3,distance,cathedral,spatial_unmasking,5,130,0,0,_three_,talker-p248_sex-f_text-_three_.wav,p248,f,5,2,8.0,7.0,RX81,6,0.0,0.0,7.0,88.34149293193902,babble-reversed_n13_p229-five-p256-one-p318-three-p248-nine-p268-four-p284-eight.wav,6,RX81,7,0.0,0.0,8.0,91.58892582949886,mgb_normalisation,91.58892582949886,90.34149293193902,3,3.0,True,1.495737075805664
,2024-07-25 14:25:40,sub_120,3,distance,cathedral,spatial_unmasking,5,131,0,0,_four_,talker-p248_sex-f_text-_four_.wav,p248,f,5,3,8.0,7.0,RX81,6,0.0,0.0,7.0,84.341492931939,babble-reversed_n13_p229-five-p256-one-p318-three-p248-nine-p268-four-p284-eight.wav,6,RX81,7,0.0,0.0,8.0,91.58892582949886,mgb_normalisation,91.58892582949886,90.34149293193902,4,4.0,True,3.0637435913085938
,2024-07-25 14:25:52,sub_120,3,distance,cathedral,spatial_unmasking,5,132,0,0,_eight_,talker-p248_sex-f_text-_eight_.wav,p248,f,5,4,8.0,7.0,RX81,6,0.0,0.0,7.0,80.34149293193903,babble-reversed_n13_p229-five-p318-three-p307-two-p245-four-p284-nine-p248-eight.wav,6,RX81,7,0.0,0.0,8.0,91.58892582949886,mgb_normalisation,91.58892582949886,90.34149293193902,8,9.0,False,9.922542333602903
,2024-07-25 14:25:56,sub_120,3,distance,cathedral,spatial_unmasking,5,133,0,0,_two_,talker-p248_sex-f_text-_two_.wav,p248,f,5,5,8.0,7.0,RX81,6,0.0,0.0,7.0,82.34149293193902,babble-reversed_n13_p318-five-p229-four-p256-eight-p284-one-p245-three-p248-two.wav,6,RX81,7,0.0,0.0,8.0,91.58892582949888,mgb_normalisation,91.58892582949886,90.34149293193902,2,3.0,False,1.5000722408294678
,2024-07-25 14:26:00,sub_120,3,distance,cathedral,spatial_unmasking,5,134,0,0,_two_,talker-p248_sex-f_text-_two_.wav,p248,f,5,6,8.0,7.0,RX81,6,0.0,0.0,7.0,84.34149293193903,babble-reversed_n13_p256-four-p229-two-p318-five-p268-one-p248-eight-p245-three.wav,6,RX81,7,0.0,0.0,8.0,91.58892582949886,mgb_normalisation,91.58892582949886,90.34149293193902,2,3.0,False,1.1263060569763184
,2024-07-25 14:26:03,sub_120,3,distance,cathedral,spatial_unmasking,5,135,0,0,_three_,talker-p248_sex-f_text-_three_.wav,p248,f,5,7,8.0,7.0,RX81,6,0.0,0.0,7.0,86.34149293193902,babble-reversed_n13_p256-eight-p318-five-p307-four-p245-three-p268-one-p284-nine.wav,6,RX81,7,0.0,0.0,8.0,91.58892582949886,mgb_normalisation,91.58892582949886,90.34149293193902,3,3.0,True,1.0624885559082031
,2024-07-25 14:26:07,sub_120,3,distance,cathedral,spatial_unmasking,5,136,0,0,_one_,talker-p248_sex-f_text-_one_.wav,p248,f,5,8,8.0,7.0,RX81,6,0.0,0.0,7.0,86.34149293193902,babble-reversed_n13_p229-one-p318-nine-p256-four-p284-eight-p268-five-p245-two.wav,6,RX81,7,0.0,0.0,8.0,91.58892582949886,mgb_normalisation,91.58892582949886,90.34149293193902,1,1.0,True,1.0000150203704834
,2024-07-25 14:26:10,sub_120,3,distance,cathedral,spatial_unmasking,5,137,0,0,_three_,talker-p248_sex-f_text-_three_.wav,p248,f,5,9,8.0,7.0,RX81,6,0.0,0.0,7.0,84.341492931939,babble-reversed_n13_p229-five-p256-three-p318-nine-p248-two-p284-four-p268-one.wav,6,RX81,7,0.0,0.0,8.0,91.58892582949888,mgb_normalisation,91.58892582949886,90.34149293193902,3,3.0,True,0.9373736381530762
,2024-07-25 14:26:14,sub_120,3,distance,cathedral,spatial_unmasking,5,138,0,0,_nine_,talker-p248_sex-f_text-_nine_.wav,p248,f,5,10,8.0,7.0,RX81,6,0.0,0.0,7.0,84.341492931939,babble-reversed_n13_p229-three-p256-nine-p318-five-p248-one-p245-eight-p284-two.wav,6,RX81,7,0.0,0.0,8.0,91.58892582949888,mgb_normalisation,91.58892582949886,90.34149293193902,9,9.0,True,1.4999866485595703
,2024-07-25 14:26:18,sub_120,3,distance,cathedral,spatial_unmasking,5,139,0,0,_five_,talker-p248_sex-f_text-_five_.wav,p248,f,5,11,8.0,7.0,RX81,6,0.0,0.0,7.0,82.341492931939,babble-reversed_n13_p229-five-p318-two-p307-eight-p268-three-p248-four-p245-one.wav,6,RX81,7,0.0,0.0,8.0,91.58892582949888,mgb_normalisation,91.58892582949886,90.34149293193902,5,5.0,True,1.1874895095825195
,2024-07-25 14:26:21,sub_120,3,distance,cathedral,spatial_unmasking,5,140,0,0,_five_,talker-p248_sex-f_text-_five_.wav,p248,f,5,12,8.0,7.0,RX81,6,0.0,0.0,7.0,82.341492931939,babble-reversed_n13_p256-two-p307-five-p318-nine-p248-eight-p245-four-p284-one.wav,6,RX81,7,0.0,0.0,8.0,91.58892582949888,mgb_normalisation,91.58892582949886,90.34149293193902,5,5.0,True,0.9338068962097168
,2024-07-25 14:26:34,sub_120,3,distance,cathedral,spatial_unmasking,5,141,0,0,_eight_,talker-p248_sex-f_text-_eight_.wav,p248,f,5,13,8.0,7.0,RX81,6,0.0,0.0,7.0,80.34149293193903,babble-reversed_n13_p229-five-p256-one-p318-three-p248-nine-p268-four-p284-eight.wav,6,RX81,7,0.0,0.0,8.0,91.58892582949886,mgb_normalisation,91.58892582949886,90.34149293193902,8,9.0,False,10.36054801940918
,2024-07-25 14:26:37,sub_120,3,distance,cathedral,spatial_unmasking,5,142,0,0,_five_,talker-p248_sex-f_text-_five_.wav,p248,f,5,14,8.0,7.0,RX81,6,0.0,0.0,7.0,81.341492931939,babble-reversed_n13_p229-three-p307-one-p318-two-p245-eight-p268-five-p284-four.wav,6,RX81,7,0.0,0.0,8.0,91.58892582949888,mgb_normalisation,91.58892582949886,90.34149293193902,5,5.0,True,1.1874892711639404
,2024-07-25 14:26:41,sub_120,3,distance,cathedral,spatial_unmasking,5,143,0,0,_one_,talker-p248_sex-f_text-_one_.wav,p248,f,5,15,8.0,7.0,RX81,6,0.0,0.0,7.0,81.34149293193902,babble-reversed_n13_p229-two-p256-three-p318-eight-p284-five-p268-four-p245-one.wav,6,RX81,7,0.0,0.0,8.0,91.58892582949888,mgb_normalisation,91.58892582949886,90.34149293193902,1,1.0,True,1.50445818901062
,2024-07-25 14:26:46,sub_120,3,distance,cathedral,spatial_unmasking,5,144,0,0,_eight_,talker-p248_sex-f_text-_eight_.wav,p248,f,5,16,8.0,7.0,RX81,6,0.0,0.0,7.0,80.34149293193903,babble-reversed_n13_p229-one-p318-nine-p256-four-p284-eight-p268-five-p245-two.wav,6,RX81,7,0.0,0.0,8.0,91.58892582949886,mgb_normalisation,91.58892582949886,90.34149293193902,8,3.0,False,2.5627779960632324
,2024-07-25 14:26:50,sub_120,3,distance,cathedral,spatial_unmasking,5,145,0,0,_nine_,talker-p248_sex-f_text-_nine_.wav,p248,f,5,17,8.0,7.0,RX81,6,0.0,0.0,7.0,81.34149293193902,babble-reversed_n13_p229-nine-p318-one-p307-two-p248-eight-p245-five-p284-four.wav,6,RX81,7,0.0,0.0,8.0,91.58892582949886,mgb_normalisation,91.58892582949886,90.34149293193902,9,9.0,True,1.0587594509124756
,2024-07-25 14:26:53,sub_120,3,distance,cathedral,spatial_unmasking,5,146,0,0,_five_,talker-p248_sex-f_text-_five_.wav,p248,f,5,18,8.0,7.0,RX81,6,0.0,0.0,7.0,81.341492931939,babble-reversed_n13_p307-two-p229-one-p256-five-p248-nine-p284-three-p268-eight.wav,6,RX81,7,0.0,0.0,8.0,91.58892582949888,mgb_normalisation,91.58892582949886,90.34149293193902,5,5.0,True,1.1874885559082031
,2024-07-25 14:26:57,sub_120,3,distance,cathedral,spatial_unmasking,5,147,0,0,_four_,talker-p248_sex-f_text-_four_.wav,p248,f,5,19,8.0,7.0,RX81,6,0.0,0.0,7.0,80.341492931939,babble-reversed_n13_p256-five-p307-nine-p318-three-p284-eight-p268-one-p248-two.wav,6,RX81,7,0.0,0.0,8.0,91.58892582949886,mgb_normalisation,91.58892582949886,90.34149293193902,4,3.0,False,1.249988317489624
,2024-07-25 14:27:03,sub_120,3,distance,cathedral,spatial_unmasking,5,148,0,0,_two_,talker-p248_sex-f_text-_two_.wav,p248,f,5,20,8.0,7.0,RX81,6,0.0,0.0,7.0,81.34149293193902,babble-reversed_n13_p256-four-p229-two-p318-five-p268-one-p248-eight-p245-three.wav,6,RX81,7,0.0,0.0,8.0,91.58892582949886,mgb_normalisation,91.58892582949886,90.34149293193902,2,2.0,True,3.752254724502564
,2024-07-25 14:27:07,sub_120,3,distance,cathedral,spatial_unmasking,5,149,0,0,_four_,talker-p248_sex-f_text-_four_.wav,p248,f,5,21,8.0,7.0,RX81,6,0.0,0.0,7.0,81.341492931939,babble-reversed_n13_p256-three-p318-one-p307-two-p284-nine-p268-four-p245-eight.wav,6,RX81,7,0.0,0.0,8.0,91.58892582949888,mgb_normalisation,91.58892582949886,90.34149293193902,4,9.0,False,1.1874887943267822
,2024-07-25 14:27:10,sub_120,3,distance,cathedral,spatial_unmasking,5,150,0,0,_five_,talker-p248_sex-f_text-_five_.wav,p248,f,5,22,8.0,7.0,RX81,6,0.0,0.0,7.0,82.341492931939,babble-reversed_n13_p256-four-p307-eight-p318-two-p248-three-p284-nine-p268-one.wav,6,RX81,7,0.0,0.0,8.0,91.58892582949888,mgb_normalisation,91.58892582949886,90.34149293193902,5,5.0,True,1.4383039474487305
,2024-07-25 14:27:14,sub_120,3,distance,cathedral,spatial_unmasking,5,151,0,0,_five_,talker-p248_sex-f_text-_five_.wav,p248,f,5,23,8.0,7.0,RX81,6,0.0,0.0,7.0,82.341492931939,babble-reversed_n13_p318-five-p256-nine-p307-two-p245-eight-p248-one-p284-four.wav,6,RX81,7,0.0,0.0,8.0,91.58892582949888,mgb_normalisation,91.58892582949886,90.34149293193902,5,5.0,True,0.8124663829803467
,2024-07-25 14:27:17,sub_120,3,distance,cathedral,spatial_unmasking,5,152,0,0,_one_,talker-p248_sex-f_text-_one_.wav,p248,f,5,24,8.0,7.0,RX81,6,0.0,0.0,7.0,81.34149293193902,babble-reversed_n13_p318-nine-p307-eight-p229-two-p284-one-p248-three-p245-five.wav,6,RX81,7,0.0,0.0,8.0,91.58892582949886,mgb_normalisation,91.58892582949886,90.34149293193902,1,3.0,False,1.3749845027923584
,2024-07-25 14:27:21,sub_120,3,distance,cathedral,spatial_unmasking,5,153,0,0,_nine_,talker-p248_sex-f_text-_nine_.wav,p248,f,5,25,8.0,7.0,RX81,6,0.0,0.0,7.0,82.34149293193902,babble-reversed_n13_p256-eight-p318-two-p307-five-p245-four-p268-nine-p284-one.wav,6,RX81,7,0.0,0.0,8.0,91.58892582949888,mgb_normalisation,91.58892582949886,90.34149293193902,9,9.0,True,1.3165433406829834
,2024-07-25 14:27:25,sub_120,3,distance,cathedral,spatial_unmasking,5,154,0,0,_six_,talker-p248_sex-f_text-_six_.wav,p248,f,5,26,8.0,7.0,RX81,6,0.0,0.0,7.0,82.34149293193902,babble-reversed_n13_p229-two-p256-three-p318-eight-p284-five-p268-four-p245-one.wav,6,RX81,7,0.0,0.0,8.0,91.58892582949888,mgb_normalisation,91.58892582949886,90.34149293193902,6,6.0,True,1.2458360195159912
,2024-07-25 14:27:28,sub_120,3,distance,cathedral,spatial_unmasking,5,155,0,0,_two_,talker-p248_sex-f_text-_two_.wav,p248,f,5,27,8.0,7.0,RX81,6,0.0,0.0,7.0,81.34149293193902,babble-reversed_n13_p256-nine-p307-four-p229-one-p284-three-p248-two-p245-five.wav,6,RX81,7,0.0,0.0,8.0,91.58892582949888,mgb_normalisation,91.58892582949886,90.34149293193902,2,3.0,False,0.9374914169311525
,2024-07-25 14:27:31,sub_120,3,distance,cathedral,spatial_unmasking,5,156,0,0,_three_,talker-p248_sex-f_text-_three_.wav,p248,f,5,28,8.0,7.0,RX81,6,0.0,0.0,7.0,82.34149293193902,babble-reversed_n13_p229-five-p256-three-p318-nine-p248-two-p284-four-p268-one.wav,6,RX81,7,0.0,0.0,8.0,91.58892582949888,mgb_normalisation,91.58892582949886,90.34149293193902,3,3.0,True,0.8749914169311523
,2024-07-25 14:27:37,sub_120,3,distance,cathedral,spatial_unmasking,5,157,0,0,_four_,talker-p248_sex-f_text-_four_.wav,p248,f,5,29,8.0,7.0,RX81,6,0.0,0.0,7.0,82.34149293193902,babble-reversed_n13_p318-three-p229-one-p256-eight-p245-five-p248-four-p284-nine.wav,6,RX81,7,0.0,0.0,8.0,91.58892582949888,mgb_normalisation,91.58892582949886,90.34149293193902,4,4.0,True,3.125124931335449
,2024-07-25 14:29:46,sub_120,3,distance,cathedral,spatial_unmasking,6,158,0,0,_five_,talker-p248_sex-f_text-_five_.wav,p248,f,5,1,4.0,7.0,RX81,6,0.0,0.0,7.0,92.34149293193902,babble-reversed_n13_p229-three-p256-one-p307-two-p284-eight-p268-five-p248-nine.wav,2,RX81,3,0.0,0.0,4.0,87.57049330475357,mgb_normalisation,87.57049330475357,90.34149293193902,5,5.0,True,1.3103933334350586
,2024-07-25 14:29:51,sub_120,3,distance,cathedral,spatial_unmasking,6,159,0,0,_two_,talker-p248_sex-f_text-_two_.wav,p248,f,5,2,4.0,7.0,RX81,6,0.0,0.0,7.0,88.34149293193903,babble-reversed_n13_p256-five-p229-one-p318-three-p248-nine-p284-eight-p268-two.wav,2,RX81,3,0.0,0.0,4.0,87.57049330475357,mgb_normalisation,87.57049330475357,90.34149293193902,2,2.0,True,2.063697099685669
,2024-07-25 14:29:57,sub_120,3,distance,cathedral,spatial_unmasking,6,160,0,0,_four_,talker-p248_sex-f_text-_four_.wav,p248,f,5,3,4.0,7.0,RX81,6,0.0,0.0,7.0,84.341492931939,babble-reversed_n13_p256-five-p307-nine-p318-three-p284-eight-p268-one-p248-two.wav,2,RX81,3,0.0,0.0,4.0,87.57049330475357,mgb_normalisation,87.57049330475357,90.34149293193902,4,4.0,True,3.438353538513184
,2024-07-25 14:30:00,sub_120,3,distance,cathedral,spatial_unmasking,6,161,0,0,_five_,talker-p248_sex-f_text-_five_.wav,p248,f,5,4,4.0,7.0,RX81,6,0.0,0.0,7.0,80.341492931939,babble-reversed_n13_p256-four-p229-two-p318-five-p268-one-p248-eight-p245-three.wav,2,RX81,3,0.0,0.0,4.0,87.57049330475355,mgb_normalisation,87.57049330475357,90.34149293193902,5,5.0,True,0.9369404315948486
,2024-07-25 14:30:04,sub_120,3,distance,cathedral,spatial_unmasking,6,162,0,0,_eight_,talker-p248_sex-f_text-_eight_.wav,p248,f,5,5,4.0,7.0,RX81,6,0.0,0.0,7.0,76.34149293193902,babble-reversed_n13_p229-three-p256-nine-p318-five-p248-one-p245-eight-p284-two.wav,2,RX81,3,0.0,0.0,4.0,87.57049330475357,mgb_normalisation,87.57049330475357,90.34149293193902,8,9.0,False,1.4374878406524658
,2024-07-25 14:30:11,sub_120,3,distance,cathedral,spatial_unmasking,6,163,0,0,_three_,talker-p248_sex-f_text-_three_.wav,p248,f,5,6,4.0,7.0,RX81,6,0.0,0.0,7.0,78.34149293193902,babble-reversed_n13_p256-two-p307-five-p318-nine-p248-eight-p245-four-p284-one.wav,2,RX81,3,0.0,0.0,4.0,87.57049330475357,mgb_normalisation,87.57049330475357,90.34149293193902,3,3.0,True,4.74985408782959
,2024-07-25 14:30:15,sub_120,3,distance,cathedral,spatial_unmasking,6,164,0,0,_six_,talker-p248_sex-f_text-_six_.wav,p248,f,5,7,4.0,7.0,RX81,6,0.0,0.0,7.0,78.34149293193902,babble-reversed_n13_p256-three-p318-two-p229-nine-p248-four-p284-one-p268-eight.wav,2,RX81,3,0.0,0.0,4.0,87.57049330475355,mgb_normalisation,87.57049330475357,90.34149293193902,6,3.0,False,1.3137812614440918
,2024-07-25 14:30:18,sub_120,3,distance,cathedral,spatial_unmasking,6,165,0,0,_one_,talker-p248_sex-f_text-_one_.wav,p248,f,5,8,4.0,7.0,RX81,6,0.0,0.0,7.0,80.34149293193903,babble-reversed_n13_p229-five-p256-three-p318-nine-p248-two-p284-four-p268-one.wav,2,RX81,3,0.0,0.0,4.0,87.57049330475357,mgb_normalisation,87.57049330475357,90.34149293193902,1,1.0,True,1.0625436305999756
,2024-07-25 14:30:22,sub_120,3,distance,cathedral,spatial_unmasking,6,166,0,0,_two_,talker-p248_sex-f_text-_two_.wav,p248,f,5,9,4.0,7.0,RX81,6,0.0,0.0,7.0,80.34149293193903,babble-reversed_n13_p256-three-p318-one-p307-two-p284-nine-p268-four-p245-eight.wav,2,RX81,3,0.0,0.0,4.0,87.57049330475357,mgb_normalisation,87.57049330475357,90.34149293193902,2,3.0,False,1.4908113479614258
,2024-07-25 14:30:26,sub_120,3,distance,cathedral,spatial_unmasking,6,167,0,0,_six_,talker-p248_sex-f_text-_six_.wav,p248,f,5,10,4.0,7.0,RX81,6,0.0,0.0,7.0,82.34149293193902,babble-reversed_n13_p229-three-p256-one-p307-two-p284-eight-p268-five-p248-nine.wav,2,RX81,3,0.0,0.0,4.0,87.57049330475357,mgb_normalisation,87.57049330475357,90.34149293193902,6,6.0,True,1.438830852508545
,2024-07-25 14:30:29,sub_120,3,distance,cathedral,spatial_unmasking,6,168,0,0,_one_,talker-p248_sex-f_text-_one_.wav,p248,f,5,11,4.0,7.0,RX81,6,0.0,0.0,7.0,82.34149293193902,babble-reversed_n13_p307-one-p318-five-p229-four-p268-eight-p284-two-p245-three.wav,2,RX81,3,0.0,0.0,4.0,87.57049330475355,mgb_normalisation,87.57049330475357,90.34149293193902,1,1.0,True,1.187488079071045
,2024-07-25 14:30:33,sub_120,3,distance,cathedral,spatial_unmasking,6,169,0,0,_three_,talker-p248_sex-f_text-_three_.wav,p248,f,5,12,4.0,7.0,RX81,6,0.0,0.0,7.0,80.341492931939,babble-reversed_n13_p256-four-p229-two-p318-five-p268-one-p248-eight-p245-three.wav,2,RX81,3,0.0,0.0,4.0,87.57049330475355,mgb_normalisation,87.57049330475357,90.34149293193902,3,3.0,True,0.8749921321868896
,2024-07-25 14:30:36,sub_120,3,distance,cathedral,spatial_unmasking,6,170,0,0,_five_,talker-p248_sex-f_text-_five_.wav,p248,f,5,13,4.0,7.0,RX81,6,0.0,0.0,7.0,80.341492931939,babble-reversed_n13_p229-one-p318-nine-p256-four-p284-eight-p268-five-p245-two.wav,2,RX81,3,0.0,0.0,4.0,87.57049330475357,mgb_normalisation,87.57049330475357,90.34149293193902,5,5.0,True,1.1285860538482666
,2024-07-25 14:30:47,sub_120,3,distance,cathedral,spatial_unmasking,6,171,0,0,_two_,talker-p248_sex-f_text-_two_.wav,p248,f,5,14,4.0,7.0,RX81,6,0.0,0.0,7.0,78.34149293193902,babble-reversed_n13_p318-nine-p256-five-p307-eight-p268-three-p248-one-p245-four.wav,2,RX81,3,0.0,0.0,4.0,87.57049330475357,mgb_normalisation,87.57049330475357,90.34149293193902,2,6.0,False,8.18844985961914
,2024-07-25 14:30:51,sub_120,3,distance,cathedral,spatial_unmasking,6,172,0,0,_five_,talker-p248_sex-f_text-_five_.wav,p248,f,5,15,4.0,7.0,RX81,6,0.0,0.0,7.0,79.341492931939,babble-reversed_n13_p256-four-p307-eight-p318-two-p248-three-p284-nine-p268-one.wav,2,RX81,3,0.0,0.0,4.0,87.57049330475357,mgb_normalisation,87.57049330475357,90.34149293193902,5,9.0,False,1.50136399269104
,2024-07-25 14:30:57,sub_120,3,distance,cathedral,spatial_unmasking,6,173,0,0,_two_,talker-p248_sex-f_text-_two_.wav,p248,f,5,16,4.0,7.0,RX81,6,0.0,0.0,7.0,80.34149293193903,babble-reversed_n13_p256-four-p307-eight-p318-two-p248-three-p284-nine-p268-one.wav,2,RX81,3,0.0,0.0,4.0,87.57049330475357,mgb_normalisation,87.57049330475357,90.34149293193902,2,9.0,False,3.6872944831848153
,2024-07-25 14:31:00,sub_120,3,distance,cathedral,spatial_unmasking,6,174,0,0,_nine_,talker-p248_sex-f_text-_nine_.wav,p248,f,5,17,4.0,7.0,RX81,6,0.0,0.0,7.0,81.34149293193902,babble-reversed_n13_p307-one-p318-five-p229-four-p268-eight-p284-two-p245-three.wav,2,RX81,3,0.0,0.0,4.0,87.57049330475355,mgb_normalisation,87.57049330475357,90.34149293193902,9,9.0,True,1.184758186340332
,2024-07-25 14:31:04,sub_120,3,distance,cathedral,spatial_unmasking,6,175,0,0,_five_,talker-p248_sex-f_text-_five_.wav,p248,f,5,18,4.0,7.0,RX81,6,0.0,0.0,7.0,81.341492931939,babble-reversed_n13_p256-five-p229-one-p318-three-p248-nine-p284-eight-p268-two.wav,2,RX81,3,0.0,0.0,4.0,87.57049330475357,mgb_normalisation,87.57049330475357,90.34149293193902,5,5.0,True,1.124989032745361
,2024-07-25 14:31:07,sub_120,3,distance,cathedral,spatial_unmasking,6,176,0,0,_six_,talker-p248_sex-f_text-_six_.wav,p248,f,5,19,4.0,7.0,RX81,6,0.0,0.0,7.0,80.34149293193903,babble-reversed_n13_p256-five-p307-nine-p318-three-p284-eight-p268-one-p248-two.wav,2,RX81,3,0.0,0.0,4.0,87.57049330475357,mgb_normalisation,87.57049330475357,90.34149293193902,6,6.0,True,1.1249887943267822
,2024-07-25 14:31:13,sub_120,3,distance,cathedral,spatial_unmasking,6,177,0,0,_two_,talker-p248_sex-f_text-_two_.wav,p248,f,5,20,4.0,7.0,RX81,6,0.0,0.0,7.0,80.34149293193903,babble-reversed_n13_p307-five-p229-three-p318-nine-p245-four-p268-eight-p284-two.wav,2,RX81,3,0.0,0.0,4.0,87.57049330475355,mgb_normalisation,87.57049330475357,90.34149293193902,2,2.0,True,3.611832618713379
,2024-07-25 14:31:17,sub_120,3,distance,cathedral,spatial_unmasking,6,178,0,0,_one_,talker-p248_sex-f_text-_one_.wav,p248,f,5,21,4.0,7.0,RX81,6,0.0,0.0,7.0,79.34149293193902,babble-reversed_n13_p229-three-p307-one-p318-two-p245-eight-p268-five-p284-four.wav,2,RX81,3,0.0,0.0,4.0,87.57049330475357,mgb_normalisation,87.57049330475357,90.34149293193902,1,1.0,True,0.9374914169311525
,2024-07-25 14:31:20,sub_120,3,distance,cathedral,spatial_unmasking,6,179,0,0,_six_,talker-p248_sex-f_text-_six_.wav,p248,f,5,22,4.0,7.0,RX81,6,0.0,0.0,7.0,79.34149293193902,babble-reversed_n13_p256-three-p318-one-p307-two-p284-nine-p268-four-p245-eight.wav,2,RX81,3,0.0,0.0,4.0,87.57049330475357,mgb_normalisation,87.57049330475357,90.34149293193902,6,3.0,False,1.119722604751587
,2024-07-25 14:31:25,sub_120,3,distance,cathedral,spatial_unmasking,6,180,0,0,_five_,talker-p248_sex-f_text-_five_.wav,p248,f,5,23,4.0,7.0,RX81,6,0.0,0.0,7.0,80.341492931939,babble-reversed_n13_p256-eight-p229-three-p307-nine-p245-five-p248-four-p268-two.wav,2,RX81,3,0.0,0.0,4.0,87.57049330475355,mgb_normalisation,87.57049330475357,90.34149293193902,5,5.0,True,1.9374816417694087
,2024-07-25 14:31:28,sub_120,3,distance,cathedral,spatial_unmasking,6,181,0,0,_nine_,talker-p248_sex-f_text-_nine_.wav,p248,f,5,24,4.0,7.0,RX81,6,0.0,0.0,7.0,80.341492931939,babble-reversed_n13_p318-five-p229-four-p256-eight-p284-one-p245-three-p248-two.wav,2,RX81,3,0.0,0.0,4.0,87.57049330475357,mgb_normalisation,87.57049330475357,90.34149293193902,9,9.0,True,1.124989032745361
,2024-07-25 14:31:31,sub_120,3,distance,cathedral,spatial_unmasking,6,182,0,0,_five_,talker-p248_sex-f_text-_five_.wav,p248,f,5,25,4.0,7.0,RX81,6,0.0,0.0,7.0,79.341492931939,babble-reversed_n13_p318-five-p256-nine-p307-two-p245-eight-p248-one-p284-four.wav,2,RX81,3,0.0,0.0,4.0,87.57049330475357,mgb_normalisation,87.57049330475357,90.34149293193902,5,5.0,True,0.812680721282959
,2024-07-25 14:31:34,sub_120,3,distance,cathedral,spatial_unmasking,6,183,0,0,_five_,talker-p248_sex-f_text-_five_.wav,p248,f,5,26,4.0,7.0,RX81,6,0.0,0.0,7.0,79.341492931939,babble-reversed_n13_p256-four-p229-two-p318-five-p268-one-p248-eight-p245-three.wav,2,RX81,3,0.0,0.0,4.0,87.57049330475355,mgb_normalisation,87.57049330475357,90.34149293193902,5,5.0,True,0.687493085861206
,2024-07-25 14:31:38,sub_120,3,distance,cathedral,spatial_unmasking,6,184,0,0,_one_,talker-p248_sex-f_text-_one_.wav,p248,f,5,27,4.0,7.0,RX81,6,0.0,0.0,7.0,78.34149293193902,babble-reversed_n13_p318-five-p256-nine-p307-eight-p248-two-p245-four-p284-three.wav,2,RX81,3,0.0,0.0,4.0,87.57049330475357,mgb_normalisation,87.57049330475357,90.34149293193902,1,2.0,False,1.6249842643737793
,2024-07-25 14:31:42,sub_120,3,distance,cathedral,spatial_unmasking,6,185,0,0,_five_,talker-p248_sex-f_text-_five_.wav,p248,f,5,28,4.0,7.0,RX81,6,0.0,0.0,7.0,79.341492931939,babble-reversed_n13_p256-five-p229-one-p318-three-p248-nine-p284-eight-p268-two.wav,2,RX81,3,0.0,0.0,4.0,87.57049330475357,mgb_normalisation,87.57049330475357,90.34149293193902,5,5.0,True,0.9374918937683104
,2024-07-25 14:31:48,sub_120,3,distance,cathedral,spatial_unmasking,6,186,0,0,_four_,talker-p248_sex-f_text-_four_.wav,p248,f,5,29,4.0,7.0,RX81,6,0.0,0.0,7.0,79.341492931939,babble-reversed_n13_p307-two-p256-four-p318-three-p284-eight-p248-five-p245-nine.wav,2,RX81,3,0.0,0.0,4.0,87.57049330475357,mgb_normalisation,87.57049330475357,90.34149293193902,4,9.0,False,4.0625879764556885
,2024-07-25 14:31:54,sub_120,3,distance,cathedral,spatial_unmasking,6,187,0,0,_two_,talker-p248_sex-f_text-_two_.wav,p248,f,5,30,4.0,7.0,RX81,6,0.0,0.0,7.0,80.34149293193903,babble-reversed_n13_p229-three-p256-nine-p318-five-p248-one-p245-eight-p284-two.wav,2,RX81,3,0.0,0.0,4.0,87.57049330475357,mgb_normalisation,87.57049330475357,90.34149293193902,2,2.0,True,3.3124682903289795
,2024-07-25 14:31:58,sub_120,3,distance,cathedral,spatial_unmasking,6,188,0,0,_one_,talker-p248_sex-f_text-_one_.wav,p248,f,5,31,4.0,7.0,RX81,6,0.0,0.0,7.0,80.34149293193903,babble-reversed_n13_p307-nine-p229-one-p256-eight-p248-four-p284-two-p268-three.wav,2,RX81,3,0.0,0.0,4.0,87.57049330475357,mgb_normalisation,87.57049330475357,90.34149293193902,1,3.0,False,1.4374871253967283
,2024-07-25 14:32:02,sub_120,3,distance,cathedral,spatial_unmasking,6,189,0,0,_nine_,talker-p248_sex-f_text-_nine_.wav,p248,f,5,32,4.0,7.0,RX81,6,0.0,0.0,7.0,81.34149293193902,babble-reversed_n13_p229-one-p318-nine-p256-four-p284-eight-p268-five-p245-two.wav,2,RX81,3,0.0,0.0,4.0,87.57049330475357,mgb_normalisation,87.57049330475357,90.34149293193902,9,3.0,False,1.5648388862609863
,2024-07-25 14:32:06,sub_120,3,distance,cathedral,spatial_unmasking,6,190,0,0,_nine_,talker-p248_sex-f_text-_nine_.wav,p248,f,5,33,4.0,7.0,RX81,6,0.0,0.0,7.0,82.34149293193902,babble-reversed_n13_p229-one-p318-eight-p256-three-p268-two-p245-five-p248-nine.wav,2,RX81,3,0.0,0.0,4.0,87.57049330475355,mgb_normalisation,87.57049330475357,90.34149293193902,9,9.0,True,1.246659755706787
,2024-07-25 14:32:09,sub_120,3,distance,cathedral,spatial_unmasking,6,191,0,0,_six_,talker-p248_sex-f_text-_six_.wav,p248,f,5,34,4.0,7.0,RX81,6,0.0,0.0,7.0,82.34149293193902,babble-reversed_n13_p318-five-p256-nine-p307-eight-p248-two-p245-four-p284-three.wav,2,RX81,3,0.0,0.0,4.0,87.57049330475357,mgb_normalisation,87.57049330475357,90.34149293193902,6,2.0,False,1.124989032745361
,2024-07-25 14:32:15,sub_120,3,distance,cathedral,spatial_unmasking,6,192,0,0,_nine_,talker-p248_sex-f_text-_nine_.wav,p248,f,5,35,4.0,7.0,RX81,6,0.0,0.0,7.0,83.34149293193902,babble-reversed_n13_p256-three-p318-two-p229-nine-p248-four-p284-one-p268-eight.wav,2,RX81,3,0.0,0.0,4.0,87.57049330475355,mgb_normalisation,87.57049330475357,90.34149293193902,9,3.0,False,3.626026391983032
,2024-07-25 14:32:22,sub_120,3,distance,cathedral,spatial_unmasking,6,193,0,0,_four_,talker-p248_sex-f_text-_four_.wav,p248,f,5,36,4.0,7.0,RX81,6,0.0,0.0,7.0,84.341492931939,babble-reversed_n13_p318-three-p307-one-p256-five-p248-nine-p245-two-p284-eight.wav,2,RX81,3,0.0,0.0,4.0,87.57049330475357,mgb_normalisation,87.57049330475357,90.34149293193902,4,4.0,True,4.062288284301758
,2024-07-25 14:32:25,sub_120,3,distance,cathedral,spatial_unmasking,6,194,0,0,_nine_,talker-p248_sex-f_text-_nine_.wav,p248,f,5,37,4.0,7.0,RX81,6,0.0,0.0,7.0,84.341492931939,babble-reversed_n13_p229-one-p318-eight-p256-three-p268-nine-p248-five-p284-four.wav,2,RX81,3,0.0,0.0,4.0,87.57049330475357,mgb_normalisation,87.57049330475357,90.34149293193902,9,9.0,True,1.1866562366485596
,2024-07-25 14:32:30,sub_120,3,distance,cathedral,spatial_unmasking,6,195,0,0,_four_,talker-p248_sex-f_text-_four_.wav,p248,f,5,38,4.0,7.0,RX81,6,0.0,0.0,7.0,83.34149293193902,babble-reversed_n13_p307-four-p318-three-p256-eight-p284-two-p245-nine-p248-five.wav,2,RX81,3,0.0,0.0,4.0,87.57049330475355,mgb_normalisation,87.57049330475357,90.34149293193902,4,4.0,True,1.9999167919158936
,2024-07-25 14:32:33,sub_120,3,distance,cathedral,spatial_unmasking,6,196,0,0,_eight_,talker-p248_sex-f_text-_eight_.wav,p248,f,5,39,4.0,7.0,RX81,6,0.0,0.0,7.0,83.34149293193902,babble-reversed_n13_p318-five-p229-four-p256-eight-p284-one-p245-three-p248-two.wav,2,RX81,3,0.0,0.0,4.0,87.57049330475357,mgb_normalisation,87.57049330475357,90.34149293193902,8,3.0,False,1.4999866485595703
,2024-07-25 14:32:38,sub_120,3,distance,cathedral,spatial_unmasking,6,197,0,0,_eight_,talker-p248_sex-f_text-_eight_.wav,p248,f,5,40,4.0,7.0,RX81,6,0.0,0.0,7.0,84.34149293193903,babble-reversed_n13_p307-nine-p229-one-p256-eight-p248-four-p284-two-p268-three.wav,2,RX81,3,0.0,0.0,4.0,87.57049330475357,mgb_normalisation,87.57049330475357,90.34149293193902,8,3.0,False,1.8124823570251465
,2024-07-25 14:32:41,sub_120,3,distance,cathedral,spatial_unmasking,6,198,0,0,_four_,talker-p248_sex-f_text-_four_.wav,p248,f,5,41,4.0,7.0,RX81,6,0.0,0.0,7.0,85.341492931939,babble-reversed_n13_p318-one-p307-two-p256-eight-p284-three-p248-five-p245-four.wav,2,RX81,3,0.0,0.0,4.0,87.57049330475357,mgb_normalisation,87.57049330475357,90.34149293193902,4,4.0,True,1.424123764038086
,2024-07-25 14:32:45,sub_120,3,distance,cathedral,spatial_unmasking,6,199,0,0,_six_,talker-p248_sex-f_text-_six_.wav,p248,f,5,42,4.0,7.0,RX81,6,0.0,0.0,7.0,85.34149293193903,babble-reversed_n13_p229-nine-p318-one-p307-two-p248-eight-p245-five-p284-four.wav,2,RX81,3,0.0,0.0,4.0,87.57049330475357,mgb_normalisation,87.57049330475357,90.34149293193902,6,6.0,True,1.1876931190490725
,2024-07-25 14:32:48,sub_120,3,distance,cathedral,spatial_unmasking,6,200,0,0,_nine_,talker-p248_sex-f_text-_nine_.wav,p248,f,5,43,4.0,7.0,RX81,6,0.0,0.0,7.0,84.341492931939,babble-reversed_n13_p307-five-p229-three-p318-nine-p245-four-p268-eight-p284-two.wav,2,RX81,3,0.0,0.0,4.0,87.57049330475355,mgb_normalisation,87.57049330475357,90.34149293193902,9,9.0,True,0.8750467300415039
,2024-07-25 14:32:52,sub_120,3,distance,cathedral,spatial_unmasking,6,201,0,0,_five_,talker-p248_sex-f_text-_five_.wav,p248,f,5,44,4.0,7.0,RX81,6,0.0,0.0,7.0,84.341492931939,babble-reversed_n13_p229-two-p318-eight-p256-three-p268-one-p248-nine-p284-five.wav,2,RX81,3,0.0,0.0,4.0,87.57049330475355,mgb_normalisation,87.57049330475357,90.34149293193902,5,5.0,True,0.8749911785125732
,2024-07-25 14:32:55,sub_120,3,distance,cathedral,spatial_unmasking,6,202,0,0,_one_,talker-p248_sex-f_text-_one_.wav,p248,f,5,45,4.0,7.0,RX81,6,0.0,0.0,7.0,83.34149293193903,babble-reversed_n13_p256-eight-p318-two-p307-five-p245-four-p268-nine-p284-one.wav,2,RX81,3,0.0,0.0,4.0,87.57049330475357,mgb_normalisation,87.57049330475357,90.34149293193902,1,1.0,True,1.3777751922607422
,2024-07-25 14:32:59,sub_120,3,distance,cathedral,spatial_unmasking,6,203,0,0,_six_,talker-p248_sex-f_text-_six_.wav,p248,f,5,46,4.0,7.0,RX81,6,0.0,0.0,7.0,83.34149293193902,babble-reversed_n13_p256-eight-p318-two-p307-five-p245-four-p268-nine-p284-one.wav,2,RX81,3,0.0,0.0,4.0,87.57049330475357,mgb_normalisation,87.57049330475357,90.34149293193902,6,6.0,True,1.437486171722412
,2024-07-25 14:33:03,sub_120,3,distance,cathedral,spatial_unmasking,6,204,0,0,_six_,talker-p248_sex-f_text-_six_.wav,p248,f,5,47,4.0,7.0,RX81,6,0.0,0.0,7.0,82.34149293193902,babble-reversed_n13_p318-five-p229-four-p256-eight-p284-one-p245-three-p248-two.wav,2,RX81,3,0.0,0.0,4.0,87.57049330475357,mgb_normalisation,87.57049330475357,90.34149293193902,6,6.0,True,0.8749406337738037
,2024-07-25 14:33:06,sub_120,3,distance,cathedral,spatial_unmasking,6,205,0,0,_six_,talker-p248_sex-f_text-_six_.wav,p248,f,5,48,4.0,7.0,RX81,6,0.0,0.0,7.0,82.34149293193902,babble-reversed_n13_p318-five-p229-three-p256-four-p268-eight-p248-one-p245-nine.wav,2,RX81,3,0.0,0.0,4.0,87.57049330475357,mgb_normalisation,87.57049330475357,90.34149293193902,6,6.0,True,0.7497901916503906
,2024-07-25 14:33:09,sub_120,3,distance,cathedral,spatial_unmasking,6,206,0,0,_six_,talker-p248_sex-f_text-_six_.wav,p248,f,5,49,4.0,7.0,RX81,6,0.0,0.0,7.0,81.34149293193902,babble-reversed_n13_p256-four-p229-eight-p307-five-p248-three-p245-one-p284-two.wav,2,RX81,3,0.0,0.0,4.0,87.57049330475355,mgb_normalisation,87.57049330475357,90.34149293193902,6,6.0,True,0.8124752044677734
,2024-07-25 14:33:12,sub_120,3,distance,cathedral,spatial_unmasking,6,207,0,0,_nine_,talker-p248_sex-f_text-_nine_.wav,p248,f,5,50,4.0,7.0,RX81,6,0.0,0.0,7.0,81.34149293193902,babble-reversed_n13_p318-five-p229-four-p256-eight-p284-one-p245-three-p248-two.wav,2,RX81,3,0.0,0.0,4.0,87.57049330475357,mgb_normalisation,87.57049330475357,90.34149293193902,9,9.0,True,0.937490940093994
,2024-07-25 14:33:17,sub_120,3,distance,cathedral,spatial_unmasking,6,208,0,0,_two_,talker-p248_sex-f_text-_two_.wav,p248,f,5,51,4.0,7.0,RX81,6,0.0,0.0,7.0,80.34149293193903,babble-reversed_n13_p229-eight-p256-nine-p318-four-p245-three-p268-five-p284-two.wav,2,RX81,3,0.0,0.0,4.0,87.57049330475355,mgb_normalisation,87.57049330475357,90.34149293193902,2,3.0,False,2.234338521957397
,2024-07-25 14:33:23,sub_120,3,distance,cathedral,spatial_unmasking,6,209,0,0,_nine_,talker-p248_sex-f_text-_nine_.wav,p248,f,5,52,4.0,7.0,RX81,6,0.0,0.0,7.0,81.34149293193902,babble-reversed_n13_p256-four-p307-eight-p318-two-p248-three-p284-nine-p268-one.wav,2,RX81,3,0.0,0.0,4.0,87.57049330475357,mgb_normalisation,87.57049330475357,90.34149293193902,9,3.0,False,3.376084566116333
,2024-07-25 14:33:28,sub_120,3,distance,cathedral,spatial_unmasking,6,210,0,0,_two_,talker-p248_sex-f_text-_two_.wav,p248,f,5,53,4.0,7.0,RX81,6,0.0,0.0,7.0,82.34149293193902,babble-reversed_n13_p318-nine-p256-five-p307-eight-p268-three-p248-one-p245-four.wav,2,RX81,3,0.0,0.0,4.0,87.57049330475357,mgb_normalisation,87.57049330475357,90.34149293193902,2,2.0,True,2.438223123550415
,2024-07-25 14:33:32,sub_120,3,distance,cathedral,spatial_unmasking,6,211,0,0,_two_,talker-p248_sex-f_text-_two_.wav,p248,f,5,54,4.0,7.0,RX81,6,0.0,0.0,7.0,82.34149293193902,babble-reversed_n13_p256-nine-p307-four-p229-one-p284-three-p248-two-p245-five.wav,2,RX81,3,0.0,0.0,4.0,87.57049330475357,mgb_normalisation,87.57049330475357,90.34149293193902,2,3.0,False,2.1122663021087646
,2024-07-25 14:33:38,sub_120,3,distance,cathedral,spatial_unmasking,6,212,0,0,_eight_,talker-p248_sex-f_text-_eight_.wav,p248,f,5,55,4.0,7.0,RX81,6,0.0,0.0,7.0,83.34149293193902,babble-reversed_n13_p229-nine-p256-four-p318-three-p268-eight-p248-two-p284-five.wav,2,RX81,3,0.0,0.0,4.0,87.57049330475357,mgb_normalisation,87.57049330475357,90.34149293193902,8,2.0,False,3.749789476394653
,2024-07-25 14:33:42,sub_120,3,distance,cathedral,spatial_unmasking,6,213,0,0,_nine_,talker-p248_sex-f_text-_nine_.wav,p248,f,5,56,4.0,7.0,RX81,6,0.0,0.0,7.0,84.341492931939,babble-reversed_n13_p318-nine-p256-five-p307-eight-p268-three-p248-one-p245-four.wav,2,RX81,3,0.0,0.0,4.0,87.57049330475357,mgb_normalisation,87.57049330475357,90.34149293193902,9,9.0,True,1.3156335353851318
,2024-07-25 14:33:49,sub_120,3,distance,cathedral,spatial_unmasking,6,214,0,0,_four_,talker-p248_sex-f_text-_four_.wav,p248,f,5,57,4.0,7.0,RX81,6,0.0,0.0,7.0,84.341492931939,babble-reversed_n13_p318-nine-p307-eight-p229-two-p284-one-p248-three-p245-five.wav,2,RX81,3,0.0,0.0,4.0,87.57049330475357,mgb_normalisation,87.57049330475357,90.34149293193902,4,4.0,True,4.625071287155151
,2024-07-25 14:34:55,sub_120,3,distance,cathedral,spatial_unmasking,7,215,0,0,_five_,talker-p248_sex-f_text-_five_.wav,p248,f,5,1,7.0,7.0,RX81,6,0.0,0.0,7.0,92.34149293193902,babble-reversed_n13_p229-five-p318-two-p307-eight-p268-three-p248-four-p245-one.wav,5,RX81,6,0.0,0.0,7.0,90.34149293193904,mgb_normalisation,90.34149293193902,90.34149293193902,5,5.0,True,1.1249840259552002
,2024-07-25 14:34:58,sub_120,3,distance,cathedral,spatial_unmasking,7,216,0,0,_three_,talker-p248_sex-f_text-_three_.wav,p248,f,5,2,7.0,7.0,RX81,6,0.0,0.0,7.0,88.34149293193902,babble-reversed_n13_p256-four-p229-eight-p307-five-p248-three-p245-one-p284-two.wav,5,RX81,6,0.0,0.0,7.0,90.341492931939,mgb_normalisation,90.34149293193902,90.34149293193902,3,3.0,True,0.999990463256836
,2024-07-25 14:35:01,sub_120,3,distance,cathedral,spatial_unmasking,7,217,0,0,_three_,talker-p248_sex-f_text-_three_.wav,p248,f,5,3,7.0,7.0,RX81,6,0.0,0.0,7.0,84.341492931939,babble-reversed_n13_p229-three-p256-one-p307-two-p284-eight-p268-five-p248-nine.wav,5,RX81,6,0.0,0.0,7.0,90.34149293193904,mgb_normalisation,90.34149293193902,90.34149293193902,3,3.0,True,0.9325129985809326
,2024-07-25 14:35:09,sub_120,3,distance,cathedral,spatial_unmasking,7,218,0,0,_two_,talker-p248_sex-f_text-_two_.wav,p248,f,5,4,7.0,7.0,RX81,6,0.0,0.0,7.0,80.34149293193903,babble-reversed_n13_p307-two-p256-four-p318-three-p284-eight-p248-five-p245-nine.wav,5,RX81,6,0.0,0.0,7.0,90.34149293193904,mgb_normalisation,90.34149293193902,90.34149293193902,2,9.0,False,5.126243114471436
,2024-07-25 14:35:13,sub_120,3,distance,cathedral,spatial_unmasking,7,219,0,0,_eight_,talker-p248_sex-f_text-_eight_.wav,p248,f,5,5,7.0,7.0,RX81,6,0.0,0.0,7.0,82.34149293193902,babble-reversed_n13_p229-nine-p307-five-p256-two-p248-three-p245-one-p268-eight.wav,5,RX81,6,0.0,0.0,7.0,90.34149293193904,mgb_normalisation,90.34149293193902,90.34149293193902,8,3.0,False,1.997802972793579
,2024-07-25 14:35:16,sub_120,3,distance,cathedral,spatial_unmasking,7,220,0,0,_three_,talker-p248_sex-f_text-_three_.wav,p248,f,5,6,7.0,7.0,RX81,6,0.0,0.0,7.0,84.341492931939,babble-reversed_n13_p307-nine-p318-two-p256-one-p245-three-p268-four-p248-eight.wav,5,RX81,6,0.0,0.0,7.0,90.341492931939,mgb_normalisation,90.34149293193902,90.34149293193902,3,3.0,True,0.940453290939331
,2024-07-25 14:35:20,sub_120,3,distance,cathedral,spatial_unmasking,7,221,0,0,_nine_,talker-p248_sex-f_text-_nine_.wav,p248,f,5,7,7.0,7.0,RX81,6,0.0,0.0,7.0,84.341492931939,babble-reversed_n13_p307-two-p256-four-p318-three-p284-eight-p248-five-p245-nine.wav,5,RX81,6,0.0,0.0,7.0,90.34149293193904,mgb_normalisation,90.34149293193902,90.34149293193902,9,9.0,True,1.6861698627471924
,2024-07-25 14:35:24,sub_120,3,distance,cathedral,spatial_unmasking,7,222,0,0,_four_,talker-p248_sex-f_text-_four_.wav,p248,f,5,8,7.0,7.0,RX81,6,0.0,0.0,7.0,82.34149293193902,babble-reversed_n13_p318-one-p307-two-p256-eight-p284-three-p248-five-p245-four.wav,5,RX81,6,0.0,0.0,7.0,90.34149293193904,mgb_normalisation,90.34149293193902,90.34149293193902,4,4.0,True,1.6874845027923584
,2024-07-25 14:35:27,sub_120,3,distance,cathedral,spatial_unmasking,7,223,0,0,_five_,talker-p248_sex-f_text-_five_.wav,p248,f,5,9,7.0,7.0,RX81,6,0.0,0.0,7.0,82.341492931939,babble-reversed_n13_p256-nine-p307-four-p229-one-p284-three-p248-two-p245-five.wav,5,RX81,6,0.0,0.0,7.0,90.34149293193904,mgb_normalisation,90.34149293193902,90.34149293193902,5,5.0,True,0.937490940093994
,2024-07-25 14:35:35,sub_120,3,distance,cathedral,spatial_unmasking,7,224,0,0,_two_,talker-p248_sex-f_text-_two_.wav,p248,f,5,10,7.0,7.0,RX81,6,0.0,0.0,7.0,80.34149293193903,babble-reversed_n13_p229-two-p318-eight-p256-three-p268-one-p248-nine-p284-five.wav,5,RX81,6,0.0,0.0,7.0,90.341492931939,mgb_normalisation,90.34149293193902,90.34149293193902,2,5.0,False,5.795220851898193
,2024-07-25 14:35:39,sub_120,3,distance,cathedral,spatial_unmasking,7,225,0,0,_nine_,talker-p248_sex-f_text-_nine_.wav,p248,f,5,11,7.0,7.0,RX81,6,0.0,0.0,7.0,81.34149293193902,babble-reversed_n13_p256-two-p307-five-p318-nine-p248-eight-p245-four-p284-one.wav,5,RX81,6,0.0,0.0,7.0,90.34149293193904,mgb_normalisation,90.34149293193902,90.34149293193902,9,9.0,True,0.8750424385070801
,2024-07-25 14:35:42,sub_120,3,distance,cathedral,spatial_unmasking,7,226,0,0,_nine_,talker-p248_sex-f_text-_nine_.wav,p248,f,5,12,7.0,7.0,RX81,6,0.0,0.0,7.0,81.34149293193902,babble-reversed_n13_p318-five-p229-four-p256-eight-p284-one-p245-three-p248-two.wav,5,RX81,6,0.0,0.0,7.0,90.34149293193904,mgb_normalisation,90.34149293193902,90.34149293193902,9,9.0,True,0.7406811714172363
,2024-07-25 14:35:46,sub_120,3,distance,cathedral,spatial_unmasking,7,227,0,0,_three_,talker-p248_sex-f_text-_three_.wav,p248,f,5,13,7.0,7.0,RX81,6,0.0,0.0,7.0,80.341492931939,babble-reversed_n13_p229-nine-p256-four-p318-three-p268-eight-p248-two-p284-five.wav,5,RX81,6,0.0,0.0,7.0,90.34149293193904,mgb_normalisation,90.34149293193902,90.34149293193902,3,3.0,True,1.622668981552124
,2024-07-25 14:35:49,sub_120,3,distance,cathedral,spatial_unmasking,7,228,0,0,_nine_,talker-p248_sex-f_text-_nine_.wav,p248,f,5,14,7.0,7.0,RX81,6,0.0,0.0,7.0,80.341492931939,babble-reversed_n13_p256-four-p229-eight-p307-five-p248-three-p245-one-p284-two.wav,5,RX81,6,0.0,0.0,7.0,90.341492931939,mgb_normalisation,90.34149293193902,90.34149293193902,9,9.0,True,1.2499868869781494
,2024-07-25 14:35:53,sub_120,3,distance,cathedral,spatial_unmasking,7,229,0,0,_one_,talker-p248_sex-f_text-_one_.wav,p248,f,5,15,7.0,7.0,RX81,6,0.0,0.0,7.0,79.34149293193902,babble-reversed_n13_p256-three-p318-two-p229-nine-p248-four-p284-one-p268-eight.wav,5,RX81,6,0.0,0.0,7.0,90.341492931939,mgb_normalisation,90.34149293193902,90.34149293193902,1,3.0,False,1.999981164932251
,2024-07-25 14:36:01,sub_120,3,distance,cathedral,spatial_unmasking,7,230,0,0,_eight_,talker-p248_sex-f_text-_eight_.wav,p248,f,5,16,7.0,7.0,RX81,6,0.0,0.0,7.0,80.34149293193903,babble-reversed_n13_p229-eight-p256-nine-p318-four-p245-three-p268-five-p284-two.wav,5,RX81,6,0.0,0.0,7.0,90.341492931939,mgb_normalisation,90.34149293193902,90.34149293193902,8,2.0,False,4.867401599884033
,2024-07-25 14:36:04,sub_120,3,distance,cathedral,spatial_unmasking,7,231,0,0,_nine_,talker-p248_sex-f_text-_nine_.wav,p248,f,5,17,7.0,7.0,RX81,6,0.0,0.0,7.0,81.34149293193902,babble-reversed_n13_p256-nine-p307-four-p229-one-p284-three-p248-two-p245-five.wav,5,RX81,6,0.0,0.0,7.0,90.34149293193904,mgb_normalisation,90.34149293193902,90.34149293193902,9,3.0,False,0.9999914169311525
,2024-07-25 14:36:07,sub_120,3,distance,cathedral,spatial_unmasking,7,232,0,0,_three_,talker-p248_sex-f_text-_three_.wav,p248,f,5,18,7.0,7.0,RX81,6,0.0,0.0,7.0,82.34149293193902,babble-reversed_n13_p256-three-p318-two-p229-nine-p248-four-p284-one-p268-eight.wav,5,RX81,6,0.0,0.0,7.0,90.341492931939,mgb_normalisation,90.34149293193902,90.34149293193902,3,3.0,True,0.9999878406524658
,2024-07-25 14:36:12,sub_120,3,distance,cathedral,spatial_unmasking,7,233,0,0,_eight_,talker-p248_sex-f_text-_eight_.wav,p248,f,5,19,7.0,7.0,RX81,6,0.0,0.0,7.0,82.34149293193902,babble-reversed_n13_p256-five-p307-nine-p318-three-p284-eight-p268-one-p248-two.wav,5,RX81,6,0.0,0.0,7.0,90.34149293193904,mgb_normalisation,90.34149293193902,90.34149293193902,8,2.0,False,2.562317132949829
,2024-07-25 14:36:16,sub_120,3,distance,cathedral,spatial_unmasking,7,234,0,0,_nine_,talker-p248_sex-f_text-_nine_.wav,p248,f,5,20,7.0,7.0,RX81,6,0.0,0.0,7.0,83.34149293193902,babble-reversed_n13_p229-two-p256-three-p318-eight-p284-five-p268-four-p245-one.wav,5,RX81,6,0.0,0.0,7.0,90.34149293193904,mgb_normalisation,90.34149293193902,90.34149293193902,9,9.0,True,1.3079347610473633
,2024-07-25 14:36:19,sub_120,3,distance,cathedral,spatial_unmasking,7,235,0,0,_three_,talker-p248_sex-f_text-_three_.wav,p248,f,5,21,7.0,7.0,RX81,6,0.0,0.0,7.0,83.34149293193902,babble-reversed_n13_p229-five-p318-two-p307-eight-p268-three-p248-four-p245-one.wav,5,RX81,6,0.0,0.0,7.0,90.34149293193904,mgb_normalisation,90.34149293193902,90.34149293193902,3,3.0,True,1.312489032745361
,2024-07-25 14:36:23,sub_120,3,distance,cathedral,spatial_unmasking,7,236,0,0,_five_,talker-p248_sex-f_text-_five_.wav,p248,f,5,22,7.0,7.0,RX81,6,0.0,0.0,7.0,82.341492931939,babble-reversed_n13_p318-three-p307-one-p256-five-p248-nine-p245-two-p284-eight.wav,5,RX81,6,0.0,0.0,7.0,90.34149293193904,mgb_normalisation,90.34149293193902,90.34149293193902,5,5.0,True,1.1249887943267822
,2024-07-25 14:36:35,sub_120,3,distance,cathedral,spatial_unmasking,7,237,0,0,_two_,talker-p248_sex-f_text-_two_.wav,p248,f,5,23,7.0,7.0,RX81,6,0.0,0.0,7.0,82.34149293193902,babble-reversed_n13_p307-five-p229-two-p318-four-p248-three-p245-nine-p268-eight.wav,5,RX81,6,0.0,0.0,7.0,90.341492931939,mgb_normalisation,90.34149293193902,90.34149293193902,2,6.0,False,10.064069271087646
,2024-07-25 14:36:39,sub_120,3,distance,cathedral,spatial_unmasking,7,238,0,0,_three_,talker-p248_sex-f_text-_three_.wav,p248,f,5,24,7.0,7.0,RX81,6,0.0,0.0,7.0,83.34149293193902,babble-reversed_n13_p256-two-p307-five-p318-nine-p248-eight-p245-four-p284-one.wav,5,RX81,6,0.0,0.0,7.0,90.34149293193904,mgb_normalisation,90.34149293193902,90.34149293193902,3,3.0,True,1.3124852180480957
,2024-07-25 14:36:42,sub_120,3,distance,cathedral,spatial_unmasking,7,239,0,0,_four_,talker-p248_sex-f_text-_four_.wav,p248,f,5,25,7.0,7.0,RX81,6,0.0,0.0,7.0,83.34149293193902,babble-reversed_n13_p229-eight-p256-nine-p318-four-p245-three-p268-five-p284-two.wav,5,RX81,6,0.0,0.0,7.0,90.341492931939,mgb_normalisation,90.34149293193902,90.34149293193902,4,4.0,True,1.1250412464141846
,2024-07-25 14:36:45,sub_120,3,distance,cathedral,spatial_unmasking,7,240,0,0,_five_,talker-p248_sex-f_text-_five_.wav,p248,f,5,26,7.0,7.0,RX81,6,0.0,0.0,7.0,82.341492931939,babble-reversed_n13_p256-nine-p307-four-p229-one-p284-three-p248-two-p245-five.wav,5,RX81,6,0.0,0.0,7.0,90.34149293193904,mgb_normalisation,90.34149293193902,90.34149293193902,5,5.0,True,0.8747291564941406
,2024-07-25 14:36:49,sub_120,3,distance,cathedral,spatial_unmasking,7,241,0,0,_one_,talker-p248_sex-f_text-_one_.wav,p248,f,5,27,7.0,7.0,RX81,6,0.0,0.0,7.0,82.34149293193902,babble-reversed_n13_p318-five-p256-nine-p307-eight-p248-two-p245-four-p284-three.wav,5,RX81,6,0.0,0.0,7.0,90.34149293193904,mgb_normalisation,90.34149293193902,90.34149293193902,1,1.0,True,1.6874849796295166
,2024-07-25 14:36:54,sub_120,3,distance,cathedral,spatial_unmasking,7,242,0,0,_two_,talker-p248_sex-f_text-_two_.wav,p248,f,5,28,7.0,7.0,RX81,6,0.0,0.0,7.0,81.34149293193902,babble-reversed_n13_p307-five-p229-three-p318-nine-p245-four-p268-eight-p284-two.wav,5,RX81,6,0.0,0.0,7.0,90.341492931939,mgb_normalisation,90.34149293193902,90.34149293193902,2,2.0,True,2.499976634979248
,2024-07-25 14:36:59,sub_120,3,distance,cathedral,spatial_unmasking,7,243,0,0,_one_,talker-p248_sex-f_text-_one_.wav,p248,f,5,29,7.0,7.0,RX81,6,0.0,0.0,7.0,81.34149293193902,babble-reversed_n13_p256-four-p307-eight-p318-two-p248-three-p284-nine-p268-one.wav,5,RX81,6,0.0,0.0,7.0,90.34149293193904,mgb_normalisation,90.34149293193902,90.34149293193902,1,9.0,False,2.437464714050293
,2024-07-25 14:37:03,sub_120,3,distance,cathedral,spatial_unmasking,7,244,0,0,_three_,talker-p248_sex-f_text-_three_.wav,p248,f,5,30,7.0,7.0,RX81,6,0.0,0.0,7.0,82.34149293193902,babble-reversed_n13_p307-two-p229-one-p256-five-p248-nine-p284-three-p268-eight.wav,5,RX81,6,0.0,0.0,7.0,90.34149293193904,mgb_normalisation,90.34149293193902,90.34149293193902,3,3.0,True,1.3749380111694336
,2024-07-25 14:37:06,sub_120,3,distance,cathedral,spatial_unmasking,7,245,0,0,_nine_,talker-p248_sex-f_text-_nine_.wav,p248,f,5,31,7.0,7.0,RX81,6,0.0,0.0,7.0,82.34149293193902,babble-reversed_n13_p229-nine-p318-one-p307-two-p248-eight-p245-five-p284-four.wav,5,RX81,6,0.0,0.0,7.0,90.34149293193904,mgb_normalisation,90.34149293193902,90.34149293193902,9,9.0,True,1.187363862991333
,2024-07-25 14:37:12,sub_120,3,distance,cathedral,spatial_unmasking,7,246,0,0,_eight_,talker-p248_sex-f_text-_eight_.wav,p248,f,5,32,7.0,7.0,RX81,6,0.0,0.0,7.0,81.34149293193902,babble-reversed_n13_p318-five-p229-three-p256-four-p268-eight-p248-one-p245-nine.wav,5,RX81,6,0.0,0.0,7.0,90.34149293193904,mgb_normalisation,90.34149293193902,90.34149293193902,8,4.0,False,3.4383134841918945
,2024-07-25 14:37:16,sub_120,3,distance,cathedral,spatial_unmasking,7,247,0,0,_one_,talker-p248_sex-f_text-_one_.wav,p248,f,5,33,7.0,7.0,RX81,6,0.0,0.0,7.0,82.34149293193902,babble-reversed_n13_p229-nine-p318-one-p307-two-p248-eight-p245-five-p284-four.wav,5,RX81,6,0.0,0.0,7.0,90.34149293193904,mgb_normalisation,90.34149293193902,90.34149293193902,1,9.0,False,1.3722748756408691
,2024-07-25 14:37:19,sub_120,3,distance,cathedral,spatial_unmasking,7,248,0,0,_three_,talker-p248_sex-f_text-_three_.wav,p248,f,5,34,7.0,7.0,RX81,6,0.0,0.0,7.0,83.34149293193902,babble-reversed_n13_p229-nine-p318-one-p307-two-p248-eight-p245-five-p284-four.wav,5,RX81,6,0.0,0.0,7.0,90.34149293193904,mgb_normalisation,90.34149293193902,90.34149293193902,3,3.0,True,1.0624709129333496
,2024-07-25 14:37:22,sub_120,3,distance,cathedral,spatial_unmasking,7,249,0,0,_one_,talker-p248_sex-f_text-_one_.wav,p248,f,5,35,7.0,7.0,RX81,6,0.0,0.0,7.0,83.34149293193903,babble-reversed_n13_p229-one-p318-eight-p256-three-p268-nine-p248-five-p284-four.wav,5,RX81,6,0.0,0.0,7.0,90.341492931939,mgb_normalisation,90.34149293193902,90.34149293193902,1,1.0,True,0.8124792575836182
