event_id,timestamp,subject_id,session_index,plane,setup,task,block,trial_index,headpose_offset_azi,headpose_offset_ele,target_number,target_filename,target_talker,target_sex,target_speaker_id,step_number:,distance_masker,distance_target,target_speaker_proc,target_speaker_chan,target_speaker_azi,target_speaker_ele,target_speaker_dist,target_stim_level,masker_filename,masker_speaker_id,masker_speaker_proc,masker_speaker_chan,masker_speaker_azi,masker_speaker_ele,masker_speaker_dist,masker_stim_level,normalisation_method,normalisation_level_masker,normalisation_level_target,played_number,resp_number,is_correct,reaction_time
,2024-07-18 16:18:37,sub_116,3,distance,cathedral,spatial_unmasking,1,0,0,0,_nine_,talker-p284_sex-f_text-_nine_.wav,p284,f,5,1,6.0,7.0,RX81,6,0.0,0.0,7.0,92.34149293193902,babble-reversed_n13_p307-two-p229-one-p256-five-p248-nine-p284-three-p268-eight.wav,4,RX81,5,0.0,0.0,6.0,89.313683184021,mgb_normalisation,89.31368318402099,90.34149293193902,9,9.0,True,1.3749427795410156
,2024-07-18 16:18:40,sub_116,3,distance,cathedral,spatial_unmasking,1,1,0,0,_four_,talker-p284_sex-f_text-_four_.wav,p284,f,5,2,6.0,7.0,RX81,6,0.0,0.0,7.0,88.34149293193902,babble-reversed_n13_p229-nine-p318-one-p307-two-p248-eight-p245-five-p284-four.wav,4,RX81,5,0.0,0.0,6.0,89.31368318402099,mgb_normalisation,89.31368318402099,90.34149293193902,4,4.0,True,1.2610621452331543
,2024-07-18 16:18:43,sub_116,3,distance,cathedral,spatial_unmasking,1,2,0,0,_six_,talker-p284_sex-f_text-_six_.wav,p284,f,5,3,6.0,7.0,RX81,6,0.0,0.0,7.0,84.341492931939,babble-reversed_n13_p256-four-p307-eight-p318-two-p248-three-p284-nine-p268-one.wav,4,RX81,5,0.0,0.0,6.0,89.313683184021,mgb_normalisation,89.31368318402099,90.34149293193902,6,6.0,True,0.7499573230743408
,2024-07-18 16:18:47,sub_116,3,distance,cathedral,spatial_unmasking,1,3,0,0,_six_,talker-p284_sex-f_text-_six_.wav,p284,f,5,4,6.0,7.0,RX81,6,0.0,0.0,7.0,80.341492931939,babble-reversed_n13_p307-five-p229-two-p318-four-p248-three-p245-nine-p268-eight.wav,4,RX81,5,0.0,0.0,6.0,89.31368318402099,mgb_normalisation,89.31368318402099,90.34149293193902,6,6.0,True,0.749936580657959
,2024-07-18 16:18:51,sub_116,3,distance,cathedral,spatial_unmasking,1,4,0,0,_four_,talker-p284_sex-f_text-_four_.wav,p284,f,5,5,6.0,7.0,RX81,6,0.0,0.0,7.0,76.34149293193902,babble-reversed_n13_p229-two-p256-three-p318-eight-p284-five-p268-four-p245-one.wav,4,RX81,5,0.0,0.0,6.0,89.31368318402099,mgb_normalisation,89.31368318402099,90.34149293193902,4,3.0,False,2.327467918395996
,2024-07-18 16:18:55,sub_116,3,distance,cathedral,spatial_unmasking,1,5,0,0,_eight_,talker-p284_sex-f_text-_eight_.wav,p284,f,5,6,6.0,7.0,RX81,6,0.0,0.0,7.0,78.341492931939,babble-reversed_n13_p229-five-p256-three-p318-nine-p248-two-p284-four-p268-one.wav,4,RX81,5,0.0,0.0,6.0,89.313683184021,mgb_normalisation,89.31368318402099,90.34149293193902,8,8.0,True,1.3291070461273191
,2024-07-18 16:18:58,sub_116,3,distance,cathedral,spatial_unmasking,1,6,0,0,_eight_,talker-p284_sex-f_text-_eight_.wav,p284,f,5,7,6.0,7.0,RX81,6,0.0,0.0,7.0,78.341492931939,babble-reversed_n13_p318-five-p229-four-p256-eight-p284-one-p245-three-p248-two.wav,4,RX81,5,0.0,0.0,6.0,89.31368318402099,mgb_normalisation,89.31368318402099,90.34149293193902,8,8.0,True,0.7499568462371826
,2024-07-18 16:19:01,sub_116,3,distance,cathedral,spatial_unmasking,1,7,0,0,_six_,talker-p284_sex-f_text-_six_.wav,p284,f,5,8,6.0,7.0,RX81,6,0.0,0.0,7.0,76.34149293193902,babble-reversed_n13_p307-five-p229-three-p318-nine-p245-four-p268-eight-p284-two.wav,4,RX81,5,0.0,0.0,6.0,89.31368318402099,mgb_normalisation,89.31368318402099,90.34149293193902,6,6.0,True,0.9374258518218994
,2024-07-18 16:19:06,sub_116,3,distance,cathedral,spatial_unmasking,1,8,0,0,_eight_,talker-p284_sex-f_text-_eight_.wav,p284,f,5,9,6.0,7.0,RX81,6,0.0,0.0,7.0,76.34149293193902,babble-reversed_n13_p256-eight-p318-two-p307-five-p245-four-p268-nine-p284-one.wav,4,RX81,5,0.0,0.0,6.0,89.31368318402099,mgb_normalisation,89.31368318402099,90.34149293193902,8,9.0,False,2.125938415527344
,2024-07-18 16:19:10,sub_116,3,distance,cathedral,spatial_unmasking,1,9,0,0,_six_,talker-p284_sex-f_text-_six_.wav,p284,f,5,10,6.0,7.0,RX81,6,0.0,0.0,7.0,77.341492931939,babble-reversed_n13_p229-two-p318-eight-p256-three-p268-one-p248-nine-p284-five.wav,4,RX81,5,0.0,0.0,6.0,89.31368318402099,mgb_normalisation,89.31368318402099,90.34149293193902,6,6.0,True,2.140709161758423
,2024-07-18 16:19:14,sub_116,3,distance,cathedral,spatial_unmasking,1,10,0,0,_one_,talker-p284_sex-f_text-_one_.wav,p284,f,5,11,6.0,7.0,RX81,6,0.0,0.0,7.0,77.34149293193902,babble-reversed_n13_p229-five-p318-two-p307-eight-p268-three-p248-four-p245-one.wav,4,RX81,5,0.0,0.0,6.0,89.313683184021,mgb_normalisation,89.31368318402099,90.34149293193902,1,9.0,False,1.820005178451538
,2024-07-18 16:19:18,sub_116,3,distance,cathedral,spatial_unmasking,1,11,0,0,_one_,talker-p284_sex-f_text-_one_.wav,p284,f,5,12,6.0,7.0,RX81,6,0.0,0.0,7.0,78.34149293193902,babble-reversed_n13_p307-five-p229-three-p318-nine-p245-four-p268-eight-p284-two.wav,4,RX81,5,0.0,0.0,6.0,89.31368318402099,mgb_normalisation,89.31368318402099,90.34149293193902,1,1.0,True,1.3124024868011477
,2024-07-18 16:19:21,sub_116,3,distance,cathedral,spatial_unmasking,1,12,0,0,_three_,talker-p284_sex-f_text-_three_.wav,p284,f,5,13,6.0,7.0,RX81,6,0.0,0.0,7.0,78.34149293193902,babble-reversed_n13_p307-nine-p318-two-p256-one-p245-three-p268-four-p248-eight.wav,4,RX81,5,0.0,0.0,6.0,89.31368318402099,mgb_normalisation,89.31368318402099,90.34149293193902,3,3.0,True,1.062436580657959
,2024-07-18 16:19:24,sub_116,3,distance,cathedral,spatial_unmasking,1,13,0,0,_two_,talker-p284_sex-f_text-_two_.wav,p284,f,5,14,6.0,7.0,RX81,6,0.0,0.0,7.0,77.34149293193902,babble-reversed_n13_p318-nine-p256-five-p307-eight-p268-three-p248-one-p245-four.wav,4,RX81,5,0.0,0.0,6.0,89.31368318402099,mgb_normalisation,89.31368318402099,90.34149293193902,2,2.0,True,0.6945834159851074
,2024-07-18 16:19:27,sub_116,3,distance,cathedral,spatial_unmasking,1,14,0,0,_five_,talker-p284_sex-f_text-_five_.wav,p284,f,5,15,6.0,7.0,RX81,6,0.0,0.0,7.0,77.34149293193902,babble-reversed_n13_p229-two-p256-three-p318-eight-p284-five-p268-four-p245-one.wav,4,RX81,5,0.0,0.0,6.0,89.31368318402099,mgb_normalisation,89.31368318402099,90.34149293193902,5,5.0,True,0.7499570846557617
,2024-07-18 16:19:31,sub_116,3,distance,cathedral,spatial_unmasking,1,15,0,0,_one_,talker-p284_sex-f_text-_one_.wav,p284,f,5,16,6.0,7.0,RX81,6,0.0,0.0,7.0,76.34149293193902,babble-reversed_n13_p318-three-p307-one-p256-five-p248-nine-p245-two-p284-eight.wav,4,RX81,5,0.0,0.0,6.0,89.31368318402099,mgb_normalisation,89.31368318402099,90.34149293193902,1,9.0,False,1.439216375350952
,2024-07-18 16:19:35,sub_116,3,distance,cathedral,spatial_unmasking,1,16,0,0,_three_,talker-p284_sex-f_text-_three_.wav,p284,f,5,17,6.0,7.0,RX81,6,0.0,0.0,7.0,77.34149293193903,babble-reversed_n13_p229-five-p318-three-p307-two-p245-four-p284-nine-p248-eight.wav,4,RX81,5,0.0,0.0,6.0,89.31368318402099,mgb_normalisation,89.31368318402099,90.34149293193902,3,3.0,True,1.0713491439819336
,2024-07-18 16:19:38,sub_116,3,distance,cathedral,spatial_unmasking,1,17,0,0,_five_,talker-p284_sex-f_text-_five_.wav,p284,f,5,18,6.0,7.0,RX81,6,0.0,0.0,7.0,77.34149293193902,babble-reversed_n13_p307-nine-p318-two-p256-one-p245-three-p268-four-p248-eight.wav,4,RX81,5,0.0,0.0,6.0,89.31368318402099,mgb_normalisation,89.31368318402099,90.34149293193902,5,5.0,True,0.6874406337738037
,2024-07-18 16:19:41,sub_116,3,distance,cathedral,spatial_unmasking,1,18,0,0,_one_,talker-p284_sex-f_text-_one_.wav,p284,f,5,19,6.0,7.0,RX81,6,0.0,0.0,7.0,76.34149293193902,babble-reversed_n13_p229-nine-p307-five-p256-two-p248-three-p245-one-p268-eight.wav,4,RX81,5,0.0,0.0,6.0,89.31368318402099,mgb_normalisation,89.31368318402099,90.34149293193902,1,1.0,True,0.8749701976776123
,2024-07-18 16:19:45,sub_116,3,distance,cathedral,spatial_unmasking,1,19,0,0,_four_,talker-p284_sex-f_text-_four_.wav,p284,f,5,20,6.0,7.0,RX81,6,0.0,0.0,7.0,76.34149293193902,babble-reversed_n13_p307-five-p229-three-p318-nine-p245-four-p268-eight-p284-two.wav,4,RX81,5,0.0,0.0,6.0,89.31368318402099,mgb_normalisation,89.31368318402099,90.34149293193902,4,3.0,False,2.1403684616088867
,2024-07-18 16:19:50,sub_116,3,distance,cathedral,spatial_unmasking,1,20,0,0,_four_,talker-p284_sex-f_text-_four_.wav,p284,f,5,21,6.0,7.0,RX81,6,0.0,0.0,7.0,77.341492931939,babble-reversed_n13_p229-five-p256-three-p318-nine-p248-two-p284-four-p268-one.wav,4,RX81,5,0.0,0.0,6.0,89.313683184021,mgb_normalisation,89.31368318402099,90.34149293193902,4,4.0,True,2.188408613204956
,2024-07-18 16:19:54,sub_116,3,distance,cathedral,spatial_unmasking,1,21,0,0,_eight_,talker-p284_sex-f_text-_eight_.wav,p284,f,5,22,6.0,7.0,RX81,6,0.0,0.0,7.0,77.341492931939,babble-reversed_n13_p229-three-p256-nine-p318-five-p248-one-p245-eight-p284-two.wav,4,RX81,5,0.0,0.0,6.0,89.31368318402099,mgb_normalisation,89.31368318402099,90.34149293193902,8,9.0,False,1.499915599822998
,2024-07-18 16:19:57,sub_116,3,distance,cathedral,spatial_unmasking,1,22,0,0,_three_,talker-p284_sex-f_text-_three_.wav,p284,f,5,23,6.0,7.0,RX81,6,0.0,0.0,7.0,78.34149293193902,babble-reversed_n13_p256-five-p307-nine-p318-three-p284-eight-p268-one-p248-two.wav,4,RX81,5,0.0,0.0,6.0,89.31368318402099,mgb_normalisation,89.31368318402099,90.34149293193902,3,3.0,True,1.1249566078186035
,2024-07-18 16:20:01,sub_116,3,distance,cathedral,spatial_unmasking,1,23,0,0,_nine_,talker-p284_sex-f_text-_nine_.wav,p284,f,5,24,6.0,7.0,RX81,6,0.0,0.0,7.0,78.34149293193902,babble-reversed_n13_p318-nine-p307-eight-p229-two-p284-one-p248-three-p245-five.wav,4,RX81,5,0.0,0.0,6.0,89.31368318402099,mgb_normalisation,89.31368318402099,90.34149293193902,9,9.0,True,1.317253351211548
,2024-07-18 16:20:04,sub_116,3,distance,cathedral,spatial_unmasking,1,24,0,0,_five_,talker-p284_sex-f_text-_five_.wav,p284,f,5,25,6.0,7.0,RX81,6,0.0,0.0,7.0,77.34149293193902,babble-reversed_n13_p318-nine-p256-five-p307-eight-p268-three-p248-one-p245-four.wav,4,RX81,5,0.0,0.0,6.0,89.31368318402099,mgb_normalisation,89.31368318402099,90.34149293193902,5,5.0,True,1.002697467803955
,2024-07-18 16:20:08,sub_116,3,distance,cathedral,spatial_unmasking,1,25,0,0,_eight_,talker-p284_sex-f_text-_eight_.wav,p284,f,5,26,6.0,7.0,RX81,6,0.0,0.0,7.0,77.341492931939,babble-reversed_n13_p307-five-p229-two-p318-four-p248-three-p245-nine-p268-eight.wav,4,RX81,5,0.0,0.0,6.0,89.31368318402099,mgb_normalisation,89.31368318402099,90.34149293193902,8,3.0,False,1.3124239444732666
,2024-07-18 16:20:11,sub_116,3,distance,cathedral,spatial_unmasking,1,26,0,0,_five_,talker-p284_sex-f_text-_five_.wav,p284,f,5,27,6.0,7.0,RX81,6,0.0,0.0,7.0,78.34149293193902,babble-reversed_n13_p229-two-p307-five-p318-four-p284-one-p248-nine-p268-eight.wav,4,RX81,5,0.0,0.0,6.0,89.31368318402099,mgb_normalisation,89.31368318402099,90.34149293193902,5,5.0,True,0.9374470710754396
,2024-07-18 16:20:16,sub_116,3,distance,cathedral,spatial_unmasking,1,27,0,0,_two_,talker-p284_sex-f_text-_two_.wav,p284,f,5,28,6.0,7.0,RX81,6,0.0,0.0,7.0,78.34149293193902,babble-reversed_n13_p256-nine-p307-four-p229-one-p284-three-p248-two-p245-five.wav,4,RX81,5,0.0,0.0,6.0,89.31368318402099,mgb_normalisation,89.31368318402099,90.34149293193902,2,3.0,False,2.329172134399414
,2024-07-18 16:20:19,sub_116,3,distance,cathedral,spatial_unmasking,1,28,0,0,_eight_,talker-p284_sex-f_text-_eight_.wav,p284,f,5,29,6.0,7.0,RX81,6,0.0,0.0,7.0,79.341492931939,babble-reversed_n13_p229-five-p256-one-p318-three-p248-nine-p268-four-p284-eight.wav,4,RX81,5,0.0,0.0,6.0,89.31368318402099,mgb_normalisation,89.31368318402099,90.34149293193902,8,8.0,True,1.0669782161712646
,2024-07-18 16:20:22,sub_116,3,distance,cathedral,spatial_unmasking,1,29,0,0,_nine_,talker-p284_sex-f_text-_nine_.wav,p284,f,5,30,6.0,7.0,RX81,6,0.0,0.0,7.0,79.341492931939,babble-reversed_n13_p307-one-p318-five-p229-four-p268-eight-p284-two-p245-three.wav,4,RX81,5,0.0,0.0,6.0,89.31368318402099,mgb_normalisation,89.31368318402099,90.34149293193902,9,9.0,True,0.7499759197235107
,2024-07-18 16:20:26,sub_116,3,distance,cathedral,spatial_unmasking,1,30,0,0,_four_,talker-p284_sex-f_text-_four_.wav,p284,f,5,31,6.0,7.0,RX81,6,0.0,0.0,7.0,78.341492931939,babble-reversed_n13_p256-four-p229-eight-p307-five-p248-three-p245-one-p284-two.wav,4,RX81,5,0.0,0.0,6.0,89.31368318402099,mgb_normalisation,89.31368318402099,90.34149293193902,4,3.0,False,1.1800713539123535
,2024-07-18 16:20:29,sub_116,3,distance,cathedral,spatial_unmasking,1,31,0,0,_eight_,talker-p284_sex-f_text-_eight_.wav,p284,f,5,32,6.0,7.0,RX81,6,0.0,0.0,7.0,79.341492931939,babble-reversed_n13_p256-four-p307-eight-p318-two-p248-three-p284-nine-p268-one.wav,4,RX81,5,0.0,0.0,6.0,89.313683184021,mgb_normalisation,89.31368318402099,90.34149293193902,8,4.0,False,1.003784418106079
,2024-07-18 16:20:33,sub_116,3,distance,cathedral,spatial_unmasking,1,32,0,0,_four_,talker-p284_sex-f_text-_four_.wav,p284,f,5,33,6.0,7.0,RX81,6,0.0,0.0,7.0,80.341492931939,babble-reversed_n13_p318-nine-p256-five-p307-eight-p268-three-p248-one-p245-four.wav,4,RX81,5,0.0,0.0,6.0,89.31368318402099,mgb_normalisation,89.31368318402099,90.34149293193902,4,3.0,False,0.9999425411224364
,2024-07-18 16:20:36,sub_116,3,distance,cathedral,spatial_unmasking,1,33,0,0,_nine_,talker-p284_sex-f_text-_nine_.wav,p284,f,5,34,6.0,7.0,RX81,6,0.0,0.0,7.0,81.341492931939,babble-reversed_n13_p229-three-p256-one-p307-two-p284-eight-p268-five-p248-nine.wav,4,RX81,5,0.0,0.0,6.0,89.31368318402099,mgb_normalisation,89.31368318402099,90.34149293193902,9,9.0,True,0.8749504089355469
,2024-07-18 16:20:39,sub_116,3,distance,cathedral,spatial_unmasking,1,34,0,0,_two_,talker-p284_sex-f_text-_two_.wav,p284,f,5,35,6.0,7.0,RX81,6,0.0,0.0,7.0,81.34149293193902,babble-reversed_n13_p256-nine-p307-four-p229-one-p284-three-p248-two-p245-five.wav,4,RX81,5,0.0,0.0,6.0,89.31368318402099,mgb_normalisation,89.31368318402099,90.34149293193902,2,2.0,True,0.8766241073608398
,2024-07-18 16:21:30,sub_116,3,distance,cathedral,spatial_unmasking,2,35,0,0,_two_,talker-p284_sex-f_text-_two_.wav,p284,f,5,1,4.0,7.0,RX81,6,0.0,0.0,7.0,92.34149293193902,babble-reversed_n13_p318-nine-p307-eight-p229-two-p284-one-p248-three-p245-five.wav,2,RX81,3,0.0,0.0,4.0,87.57049330475357,mgb_normalisation,87.57049330475357,90.34149293193902,2,2.0,True,1.3282406330108645
,2024-07-18 16:21:33,sub_116,3,distance,cathedral,spatial_unmasking,2,36,0,0,_two_,talker-p284_sex-f_text-_two_.wav,p284,f,5,2,4.0,7.0,RX81,6,0.0,0.0,7.0,88.34149293193902,babble-reversed_n13_p256-nine-p307-four-p229-one-p284-three-p248-two-p245-five.wav,2,RX81,3,0.0,0.0,4.0,87.57049330475357,mgb_normalisation,87.57049330475357,90.34149293193902,2,2.0,True,0.7499547004699707
,2024-07-18 16:21:37,sub_116,3,distance,cathedral,spatial_unmasking,2,37,0,0,_two_,talker-p284_sex-f_text-_two_.wav,p284,f,5,3,4.0,7.0,RX81,6,0.0,0.0,7.0,84.34149293193903,babble-reversed_n13_p256-three-p318-one-p307-two-p284-nine-p268-four-p245-eight.wav,2,RX81,3,0.0,0.0,4.0,87.57049330475357,mgb_normalisation,87.57049330475357,90.34149293193902,2,2.0,True,1.1874051094055176
,2024-07-18 16:21:41,sub_116,3,distance,cathedral,spatial_unmasking,2,38,0,0,_four_,talker-p284_sex-f_text-_four_.wav,p284,f,5,4,4.0,7.0,RX81,6,0.0,0.0,7.0,80.341492931939,babble-reversed_n13_p256-five-p307-nine-p318-three-p284-eight-p268-one-p248-two.wav,2,RX81,3,0.0,0.0,4.0,87.57049330475357,mgb_normalisation,87.57049330475357,90.34149293193902,4,4.0,True,1.888615369796753
,2024-07-18 16:21:45,sub_116,3,distance,cathedral,spatial_unmasking,2,39,0,0,_two_,talker-p284_sex-f_text-_two_.wav,p284,f,5,5,4.0,7.0,RX81,6,0.0,0.0,7.0,76.34149293193902,babble-reversed_n13_p229-nine-p318-one-p307-two-p248-eight-p245-five-p284-four.wav,2,RX81,3,0.0,0.0,4.0,87.57049330475357,mgb_normalisation,87.57049330475357,90.34149293193902,2,2.0,True,0.9431085586547852
,2024-07-18 16:21:49,sub_116,3,distance,cathedral,spatial_unmasking,2,40,0,0,_six_,talker-p284_sex-f_text-_six_.wav,p284,f,5,6,4.0,7.0,RX81,6,0.0,0.0,7.0,72.341492931939,babble-reversed_n13_p256-eight-p318-two-p307-five-p245-four-p268-nine-p284-one.wav,2,RX81,3,0.0,0.0,4.0,87.57049330475357,mgb_normalisation,87.57049330475357,90.34149293193902,6,4.0,False,2.1248669624328613
,2024-07-18 16:21:53,sub_116,3,distance,cathedral,spatial_unmasking,2,41,0,0,_nine_,talker-p284_sex-f_text-_nine_.wav,p284,f,5,7,4.0,7.0,RX81,6,0.0,0.0,7.0,74.341492931939,babble-reversed_n13_p318-five-p256-nine-p307-eight-p248-two-p245-four-p284-three.wav,2,RX81,3,0.0,0.0,4.0,87.57049330475357,mgb_normalisation,87.57049330475357,90.34149293193902,9,4.0,False,2.1248695850372314
,2024-07-18 16:21:57,sub_116,3,distance,cathedral,spatial_unmasking,2,42,0,0,_three_,talker-p284_sex-f_text-_three_.wav,p284,f,5,8,4.0,7.0,RX81,6,0.0,0.0,7.0,76.34149293193902,babble-reversed_n13_p307-four-p318-three-p256-eight-p284-two-p245-nine-p248-five.wav,2,RX81,3,0.0,0.0,4.0,87.57049330475355,mgb_normalisation,87.57049330475357,90.34149293193902,3,3.0,True,0.9999184608459472
,2024-07-18 16:22:00,sub_116,3,distance,cathedral,spatial_unmasking,2,43,0,0,_eight_,talker-p284_sex-f_text-_eight_.wav,p284,f,5,9,4.0,7.0,RX81,6,0.0,0.0,7.0,76.34149293193902,babble-reversed_n13_p256-three-p318-one-p307-two-p284-nine-p268-four-p245-eight.wav,2,RX81,3,0.0,0.0,4.0,87.57049330475357,mgb_normalisation,87.57049330475357,90.34149293193902,8,5.0,False,0.9524416923522948
,2024-07-18 16:22:04,sub_116,3,distance,cathedral,spatial_unmasking,2,44,0,0,_eight_,talker-p284_sex-f_text-_eight_.wav,p284,f,5,10,4.0,7.0,RX81,6,0.0,0.0,7.0,78.341492931939,babble-reversed_n13_p318-five-p229-four-p256-eight-p284-one-p245-three-p248-two.wav,2,RX81,3,0.0,0.0,4.0,87.57049330475357,mgb_normalisation,87.57049330475357,90.34149293193902,8,8.0,True,1.124950647354126
,2024-07-18 16:22:09,sub_116,3,distance,cathedral,spatial_unmasking,2,45,0,0,_eight_,talker-p284_sex-f_text-_eight_.wav,p284,f,5,11,4.0,7.0,RX81,6,0.0,0.0,7.0,78.341492931939,babble-reversed_n13_p307-nine-p318-two-p256-one-p245-three-p268-four-p248-eight.wav,2,RX81,3,0.0,0.0,4.0,87.57049330475355,mgb_normalisation,87.57049330475357,90.34149293193902,8,8.0,True,2.6248159408569336
,2024-07-18 16:22:13,sub_116,3,distance,cathedral,spatial_unmasking,2,46,0,0,_eight_,talker-p284_sex-f_text-_eight_.wav,p284,f,5,12,4.0,7.0,RX81,6,0.0,0.0,7.0,76.34149293193902,babble-reversed_n13_p229-three-p256-nine-p318-five-p248-one-p245-eight-p284-two.wav,2,RX81,3,0.0,0.0,4.0,87.57049330475357,mgb_normalisation,87.57049330475357,90.34149293193902,8,9.0,False,1.9373810291290283
,2024-07-18 16:22:17,sub_116,3,distance,cathedral,spatial_unmasking,2,47,0,0,_two_,talker-p284_sex-f_text-_two_.wav,p284,f,5,13,4.0,7.0,RX81,6,0.0,0.0,7.0,77.34149293193902,babble-reversed_n13_p229-two-p307-five-p318-four-p284-one-p248-nine-p268-eight.wav,2,RX81,3,0.0,0.0,4.0,87.57049330475357,mgb_normalisation,87.57049330475357,90.34149293193902,2,9.0,False,1.374913215637207
,2024-07-18 16:22:20,sub_116,3,distance,cathedral,spatial_unmasking,2,48,0,0,_five_,talker-p284_sex-f_text-_five_.wav,p284,f,5,14,4.0,7.0,RX81,6,0.0,0.0,7.0,78.34149293193902,babble-reversed_n13_p229-two-p318-eight-p256-three-p268-one-p248-nine-p284-five.wav,2,RX81,3,0.0,0.0,4.0,87.57049330475355,mgb_normalisation,87.57049330475357,90.34149293193902,5,5.0,True,1.0104804039001465
,2024-07-18 16:22:25,sub_116,3,distance,cathedral,spatial_unmasking,2,49,0,0,_six_,talker-p284_sex-f_text-_six_.wav,p284,f,5,15,4.0,7.0,RX81,6,0.0,0.0,7.0,78.34149293193902,babble-reversed_n13_p318-three-p229-one-p256-eight-p245-five-p248-four-p284-nine.wav,2,RX81,3,0.0,0.0,4.0,87.57049330475357,mgb_normalisation,87.57049330475357,90.34149293193902,6,4.0,False,2.576001167297364
,2024-07-18 16:22:28,sub_116,3,distance,cathedral,spatial_unmasking,2,50,0,0,_nine_,talker-p284_sex-f_text-_nine_.wav,p284,f,5,16,4.0,7.0,RX81,6,0.0,0.0,7.0,79.341492931939,babble-reversed_n13_p256-eight-p318-five-p307-four-p245-three-p268-one-p284-nine.wav,2,RX81,3,0.0,0.0,4.0,87.57049330475355,mgb_normalisation,87.57049330475357,90.34149293193902,9,9.0,True,0.9999392032623292
,2024-07-18 16:22:33,sub_116,3,distance,cathedral,spatial_unmasking,2,51,0,0,_four_,talker-p284_sex-f_text-_four_.wav,p284,f,5,17,4.0,7.0,RX81,6,0.0,0.0,7.0,79.341492931939,babble-reversed_n13_p318-five-p256-nine-p307-two-p245-eight-p248-one-p284-four.wav,2,RX81,3,0.0,0.0,4.0,87.57049330475357,mgb_normalisation,87.57049330475357,90.34149293193902,4,5.0,False,2.687335968017578
,2024-07-18 16:22:37,sub_116,3,distance,cathedral,spatial_unmasking,2,52,0,0,_six_,talker-p284_sex-f_text-_six_.wav,p284,f,5,18,4.0,7.0,RX81,6,0.0,0.0,7.0,80.341492931939,babble-reversed_n13_p229-two-p256-three-p318-eight-p284-five-p268-four-p245-one.wav,2,RX81,3,0.0,0.0,4.0,87.57049330475357,mgb_normalisation,87.57049330475357,90.34149293193902,6,6.0,True,0.9374423027038574
,2024-07-18 16:22:40,sub_116,3,distance,cathedral,spatial_unmasking,2,53,0,0,_nine_,talker-p284_sex-f_text-_nine_.wav,p284,f,5,19,4.0,7.0,RX81,6,0.0,0.0,7.0,80.341492931939,babble-reversed_n13_p307-one-p318-five-p229-four-p268-eight-p284-two-p245-three.wav,2,RX81,3,0.0,0.0,4.0,87.57049330475355,mgb_normalisation,87.57049330475357,90.34149293193902,9,9.0,True,0.7523539066314697
,2024-07-18 16:22:44,sub_116,3,distance,cathedral,spatial_unmasking,2,54,0,0,_four_,talker-p284_sex-f_text-_four_.wav,p284,f,5,20,4.0,7.0,RX81,6,0.0,0.0,7.0,79.341492931939,babble-reversed_n13_p318-five-p256-nine-p307-eight-p248-two-p245-four-p284-three.wav,2,RX81,3,0.0,0.0,4.0,87.57049330475357,mgb_normalisation,87.57049330475357,90.34149293193902,4,9.0,False,1.874885082244873
,2024-07-18 16:22:47,sub_116,3,distance,cathedral,spatial_unmasking,2,55,0,0,_one_,talker-p284_sex-f_text-_one_.wav,p284,f,5,21,4.0,7.0,RX81,6,0.0,0.0,7.0,80.34149293193903,babble-reversed_n13_p307-two-p229-one-p256-five-p248-nine-p284-three-p268-eight.wav,2,RX81,3,0.0,0.0,4.0,87.57049330475357,mgb_normalisation,87.57049330475357,90.34149293193902,1,5.0,False,1.187427282333374
,2024-07-18 16:22:51,sub_116,3,distance,cathedral,spatial_unmasking,2,56,0,0,_eight_,talker-p284_sex-f_text-_eight_.wav,p284,f,5,22,4.0,7.0,RX81,6,0.0,0.0,7.0,81.341492931939,babble-reversed_n13_p229-nine-p256-four-p318-three-p268-eight-p248-two-p284-five.wav,2,RX81,3,0.0,0.0,4.0,87.57049330475357,mgb_normalisation,87.57049330475357,90.34149293193902,8,8.0,True,0.9970197677612304
,2024-07-18 16:22:54,sub_116,3,distance,cathedral,spatial_unmasking,2,57,0,0,_six_,talker-p284_sex-f_text-_six_.wav,p284,f,5,23,4.0,7.0,RX81,6,0.0,0.0,7.0,81.341492931939,babble-reversed_n13_p256-four-p229-two-p318-five-p268-one-p248-eight-p245-three.wav,2,RX81,3,0.0,0.0,4.0,87.57049330475355,mgb_normalisation,87.57049330475357,90.34149293193902,6,6.0,True,0.749974250793457
,2024-07-18 16:22:57,sub_116,3,distance,cathedral,spatial_unmasking,2,58,0,0,_eight_,talker-p284_sex-f_text-_eight_.wav,p284,f,5,24,4.0,7.0,RX81,6,0.0,0.0,7.0,80.341492931939,babble-reversed_n13_p229-one-p318-eight-p256-three-p268-nine-p248-five-p284-four.wav,2,RX81,3,0.0,0.0,4.0,87.57049330475357,mgb_normalisation,87.57049330475357,90.34149293193902,8,8.0,True,0.8124504089355469
,2024-07-18 16:23:00,sub_116,3,distance,cathedral,spatial_unmasking,2,59,0,0,_five_,talker-p284_sex-f_text-_five_.wav,p284,f,5,25,4.0,7.0,RX81,6,0.0,0.0,7.0,80.34149293193903,babble-reversed_n13_p256-two-p307-five-p318-nine-p248-eight-p245-four-p284-one.wav,2,RX81,3,0.0,0.0,4.0,87.57049330475357,mgb_normalisation,87.57049330475357,90.34149293193902,5,5.0,True,0.6996259689331055
,2024-07-18 16:23:04,sub_116,3,distance,cathedral,spatial_unmasking,2,60,0,0,_four_,talker-p284_sex-f_text-_four_.wav,p284,f,5,26,4.0,7.0,RX81,6,0.0,0.0,7.0,79.341492931939,babble-reversed_n13_p307-two-p256-four-p318-three-p284-eight-p248-five-p245-nine.wav,2,RX81,3,0.0,0.0,4.0,87.57049330475357,mgb_normalisation,87.57049330475357,90.34149293193902,4,5.0,False,1.1249334812164309
,2024-07-18 16:23:08,sub_116,3,distance,cathedral,spatial_unmasking,2,61,0,0,_four_,talker-p284_sex-f_text-_four_.wav,p284,f,5,27,4.0,7.0,RX81,6,0.0,0.0,7.0,80.341492931939,babble-reversed_n13_p318-three-p307-one-p256-five-p248-nine-p245-two-p284-eight.wav,2,RX81,3,0.0,0.0,4.0,87.57049330475357,mgb_normalisation,87.57049330475357,90.34149293193902,4,3.0,False,1.6873960494995115
,2024-07-18 16:23:11,sub_116,3,distance,cathedral,spatial_unmasking,2,62,0,0,_one_,talker-p284_sex-f_text-_one_.wav,p284,f,5,28,4.0,7.0,RX81,6,0.0,0.0,7.0,81.34149293193902,babble-reversed_n13_p256-eight-p229-three-p307-nine-p245-five-p248-four-p268-two.wav,2,RX81,3,0.0,0.0,4.0,87.57049330475355,mgb_normalisation,87.57049330475357,90.34149293193902,1,1.0,True,0.9932668209075928
,2024-07-18 16:23:14,sub_116,3,distance,cathedral,spatial_unmasking,2,63,0,0,_two_,talker-p284_sex-f_text-_two_.wav,p284,f,5,29,4.0,7.0,RX81,6,0.0,0.0,7.0,81.34149293193902,babble-reversed_n13_p229-five-p256-one-p318-three-p248-nine-p268-four-p284-eight.wav,2,RX81,3,0.0,0.0,4.0,87.57049330475355,mgb_normalisation,87.57049330475357,90.34149293193902,2,2.0,True,0.9999387264251708
,2024-07-18 16:23:17,sub_116,3,distance,cathedral,spatial_unmasking,2,64,0,0,_eight_,talker-p284_sex-f_text-_eight_.wav,p284,f,5,30,4.0,7.0,RX81,6,0.0,0.0,7.0,80.341492931939,babble-reversed_n13_p229-three-p256-nine-p318-five-p248-one-p245-eight-p284-two.wav,2,RX81,3,0.0,0.0,4.0,87.57049330475357,mgb_normalisation,87.57049330475357,90.34149293193902,8,8.0,True,0.8749463558197021
,2024-07-18 16:23:21,sub_116,3,distance,cathedral,spatial_unmasking,2,65,0,0,_one_,talker-p284_sex-f_text-_one_.wav,p284,f,5,31,4.0,7.0,RX81,6,0.0,0.0,7.0,80.34149293193903,babble-reversed_n13_p318-nine-p307-eight-p229-two-p284-one-p248-three-p245-five.wav,2,RX81,3,0.0,0.0,4.0,87.57049330475357,mgb_normalisation,87.57049330475357,90.34149293193902,1,1.0,True,1.009739637374878
,2024-07-18 16:23:26,sub_116,3,distance,cathedral,spatial_unmasking,2,66,0,0,_eight_,talker-p284_sex-f_text-_eight_.wav,p284,f,5,32,4.0,7.0,RX81,6,0.0,0.0,7.0,79.341492931939,babble-reversed_n13_p318-nine-p307-eight-p229-two-p284-one-p248-three-p245-five.wav,2,RX81,3,0.0,0.0,4.0,87.57049330475357,mgb_normalisation,87.57049330475357,90.34149293193902,8,1.0,False,2.766589403152466
,2024-07-18 16:23:29,sub_116,3,distance,cathedral,spatial_unmasking,2,67,0,0,_six_,talker-p284_sex-f_text-_six_.wav,p284,f,5,33,4.0,7.0,RX81,6,0.0,0.0,7.0,80.341492931939,babble-reversed_n13_p229-five-p318-two-p307-eight-p268-three-p248-four-p245-one.wav,2,RX81,3,0.0,0.0,4.0,87.57049330475357,mgb_normalisation,87.57049330475357,90.34149293193902,6,6.0,True,0.8749680519104004
,2024-07-18 16:23:32,sub_116,3,distance,cathedral,spatial_unmasking,2,68,0,0,_nine_,talker-p284_sex-f_text-_nine_.wav,p284,f,5,34,4.0,7.0,RX81,6,0.0,0.0,7.0,80.341492931939,babble-reversed_n13_p256-eight-p229-three-p307-nine-p245-five-p248-four-p268-two.wav,2,RX81,3,0.0,0.0,4.0,87.57049330475355,mgb_normalisation,87.57049330475357,90.34149293193902,9,9.0,True,0.6874334812164307
,2024-07-18 16:23:35,sub_116,3,distance,cathedral,spatial_unmasking,2,69,0,0,_two_,talker-p284_sex-f_text-_two_.wav,p284,f,5,35,4.0,7.0,RX81,6,0.0,0.0,7.0,79.34149293193902,babble-reversed_n13_p256-two-p307-five-p318-nine-p248-eight-p245-four-p284-one.wav,2,RX81,3,0.0,0.0,4.0,87.57049330475357,mgb_normalisation,87.57049330475357,90.34149293193902,2,2.0,True,0.8227181434631348
,2024-07-18 16:23:38,sub_116,3,distance,cathedral,spatial_unmasking,2,70,0,0,_two_,talker-p284_sex-f_text-_two_.wav,p284,f,5,36,4.0,7.0,RX81,6,0.0,0.0,7.0,79.34149293193902,babble-reversed_n13_p307-nine-p318-two-p256-one-p245-three-p268-four-p248-eight.wav,2,RX81,3,0.0,0.0,4.0,87.57049330475355,mgb_normalisation,87.57049330475357,90.34149293193902,2,2.0,True,0.6249616146087646
,2024-07-18 16:23:43,sub_116,3,distance,cathedral,spatial_unmasking,2,71,0,0,_four_,talker-p284_sex-f_text-_four_.wav,p284,f,5,37,4.0,7.0,RX81,6,0.0,0.0,7.0,78.341492931939,babble-reversed_n13_p307-two-p229-one-p256-five-p248-nine-p284-three-p268-eight.wav,2,RX81,3,0.0,0.0,4.0,87.57049330475357,mgb_normalisation,87.57049330475357,90.34149293193902,4,3.0,False,2.0623953342437744
,2024-07-18 16:23:47,sub_116,3,distance,cathedral,spatial_unmasking,2,72,0,0,_two_,talker-p284_sex-f_text-_two_.wav,p284,f,5,38,4.0,7.0,RX81,6,0.0,0.0,7.0,79.34149293193902,babble-reversed_n13_p307-one-p318-five-p229-four-p268-eight-p284-two-p245-three.wav,2,RX81,3,0.0,0.0,4.0,87.57049330475355,mgb_normalisation,87.57049330475357,90.34149293193902,2,2.0,True,1.441256046295166
,2024-07-18 16:23:50,sub_116,3,distance,cathedral,spatial_unmasking,2,73,0,0,_eight_,talker-p284_sex-f_text-_eight_.wav,p284,f,5,39,4.0,7.0,RX81,6,0.0,0.0,7.0,79.341492931939,babble-reversed_n13_p307-two-p256-four-p318-three-p284-eight-p248-five-p245-nine.wav,2,RX81,3,0.0,0.0,4.0,87.57049330475357,mgb_normalisation,87.57049330475357,90.34149293193902,8,8.0,True,1.1966159343719482
,2024-07-18 16:24:41,sub_116,3,distance,cathedral,spatial_unmasking,3,74,0,0,_nine_,talker-p284_sex-f_text-_nine_.wav,p284,f,5,1,8.0,7.0,RX81,6,0.0,0.0,7.0,92.34149293193902,babble-reversed_n13_p256-two-p307-five-p318-nine-p248-eight-p245-four-p284-one.wav,6,RX81,7,0.0,0.0,8.0,91.58892582949888,mgb_normalisation,91.58892582949886,90.34149293193902,9,9.0,True,1.316340684890747
,2024-07-18 16:24:45,sub_116,3,distance,cathedral,spatial_unmasking,3,75,0,0,_two_,talker-p284_sex-f_text-_two_.wav,p284,f,5,2,8.0,7.0,RX81,6,0.0,0.0,7.0,88.34149293193902,babble-reversed_n13_p229-nine-p318-one-p307-two-p248-eight-p245-five-p284-four.wav,6,RX81,7,0.0,0.0,8.0,91.58892582949886,mgb_normalisation,91.58892582949886,90.34149293193902,2,2.0,True,0.94250750541687
,2024-07-18 16:24:48,sub_116,3,distance,cathedral,spatial_unmasking,3,76,0,0,_eight_,talker-p284_sex-f_text-_eight_.wav,p284,f,5,3,8.0,7.0,RX81,6,0.0,0.0,7.0,84.341492931939,babble-reversed_n13_p229-five-p318-two-p307-eight-p268-three-p248-four-p245-one.wav,6,RX81,7,0.0,0.0,8.0,91.58892582949888,mgb_normalisation,91.58892582949886,90.34149293193902,8,8.0,True,1.1249513626098633
,2024-07-18 16:24:51,sub_116,3,distance,cathedral,spatial_unmasking,3,77,0,0,_four_,talker-p284_sex-f_text-_four_.wav,p284,f,5,4,8.0,7.0,RX81,6,0.0,0.0,7.0,80.341492931939,babble-reversed_n13_p256-four-p307-eight-p318-two-p248-three-p284-nine-p268-one.wav,6,RX81,7,0.0,0.0,8.0,91.58892582949888,mgb_normalisation,91.58892582949886,90.34149293193902,4,9.0,False,0.687457799911499
,2024-07-18 16:24:54,sub_116,3,distance,cathedral,spatial_unmasking,3,78,0,0,_eight_,talker-p284_sex-f_text-_eight_.wav,p284,f,5,5,8.0,7.0,RX81,6,0.0,0.0,7.0,82.341492931939,babble-reversed_n13_p318-five-p256-nine-p307-two-p245-eight-p248-one-p284-four.wav,6,RX81,7,0.0,0.0,8.0,91.58892582949888,mgb_normalisation,91.58892582949886,90.34149293193902,8,8.0,True,0.6249597072601318
,2024-07-18 16:24:57,sub_116,3,distance,cathedral,spatial_unmasking,3,79,0,0,_one_,talker-p284_sex-f_text-_one_.wav,p284,f,5,6,8.0,7.0,RX81,6,0.0,0.0,7.0,82.34149293193902,babble-reversed_n13_p256-four-p307-eight-p318-two-p248-three-p284-nine-p268-one.wav,6,RX81,7,0.0,0.0,8.0,91.58892582949888,mgb_normalisation,91.58892582949886,90.34149293193902,1,9.0,False,0.8124701976776123
,2024-07-18 16:25:00,sub_116,3,distance,cathedral,spatial_unmasking,3,80,0,0,_nine_,talker-p284_sex-f_text-_nine_.wav,p284,f,5,7,8.0,7.0,RX81,6,0.0,0.0,7.0,84.341492931939,babble-reversed_n13_p256-four-p229-eight-p307-five-p248-three-p245-one-p284-two.wav,6,RX81,7,0.0,0.0,8.0,91.58892582949886,mgb_normalisation,91.58892582949886,90.34149293193902,9,9.0,True,0.6356408596038818
,2024-07-18 16:25:03,sub_116,3,distance,cathedral,spatial_unmasking,3,81,0,0,_eight_,talker-p284_sex-f_text-_eight_.wav,p284,f,5,8,8.0,7.0,RX81,6,0.0,0.0,7.0,84.341492931939,babble-reversed_n13_p256-eight-p318-five-p307-four-p245-three-p268-one-p284-nine.wav,6,RX81,7,0.0,0.0,8.0,91.58892582949886,mgb_normalisation,91.58892582949886,90.34149293193902,8,8.0,True,0.6874806880950928
,2024-07-18 16:25:07,sub_116,3,distance,cathedral,spatial_unmasking,3,82,0,0,_eight_,talker-p284_sex-f_text-_eight_.wav,p284,f,5,9,8.0,7.0,RX81,6,0.0,0.0,7.0,82.341492931939,babble-reversed_n13_p256-four-p307-eight-p318-two-p248-three-p284-nine-p268-one.wav,6,RX81,7,0.0,0.0,8.0,91.58892582949888,mgb_normalisation,91.58892582949886,90.34149293193902,8,8.0,True,1.0624351501464844
,2024-07-18 16:25:10,sub_116,3,distance,cathedral,spatial_unmasking,3,83,0,0,_one_,talker-p284_sex-f_text-_one_.wav,p284,f,5,10,8.0,7.0,RX81,6,0.0,0.0,7.0,82.34149293193902,babble-reversed_n13_p318-five-p256-nine-p307-eight-p248-two-p245-four-p284-three.wav,6,RX81,7,0.0,0.0,8.0,91.58892582949886,mgb_normalisation,91.58892582949886,90.34149293193902,1,9.0,False,1.2655057907104492
,2024-07-18 16:25:14,sub_116,3,distance,cathedral,spatial_unmasking,3,84,0,0,_eight_,talker-p284_sex-f_text-_eight_.wav,p284,f,5,11,8.0,7.0,RX81,6,0.0,0.0,7.0,83.34149293193902,babble-reversed_n13_p229-two-p318-eight-p256-three-p268-one-p248-nine-p284-five.wav,6,RX81,7,0.0,0.0,8.0,91.58892582949886,mgb_normalisation,91.58892582949886,90.34149293193902,8,8.0,True,0.9374425411224364
,2024-07-18 16:25:17,sub_116,3,distance,cathedral,spatial_unmasking,3,85,0,0,_one_,talker-p284_sex-f_text-_one_.wav,p284,f,5,12,8.0,7.0,RX81,6,0.0,0.0,7.0,83.34149293193902,babble-reversed_n13_p229-two-p318-eight-p256-three-p268-one-p248-nine-p284-five.wav,6,RX81,7,0.0,0.0,8.0,91.58892582949886,mgb_normalisation,91.58892582949886,90.34149293193902,1,1.0,True,1.0624327659606934
,2024-07-18 16:25:20,sub_116,3,distance,cathedral,spatial_unmasking,3,86,0,0,_five_,talker-p284_sex-f_text-_five_.wav,p284,f,5,13,8.0,7.0,RX81,6,0.0,0.0,7.0,82.34149293193902,babble-reversed_n13_p318-five-p256-nine-p307-eight-p248-two-p245-four-p284-three.wav,6,RX81,7,0.0,0.0,8.0,91.58892582949886,mgb_normalisation,91.58892582949886,90.34149293193902,5,5.0,True,0.9514625072479248
,2024-07-18 16:25:25,sub_116,3,distance,cathedral,spatial_unmasking,3,87,0,0,_four_,talker-p284_sex-f_text-_four_.wav,p284,f,5,14,8.0,7.0,RX81,6,0.0,0.0,7.0,82.341492931939,babble-reversed_n13_p229-five-p256-one-p318-three-p248-nine-p268-four-p284-eight.wav,6,RX81,7,0.0,0.0,8.0,91.58892582949886,mgb_normalisation,91.58892582949886,90.34149293193902,4,4.0,True,1.7503678798675537
,2024-07-18 16:25:28,sub_116,3,distance,cathedral,spatial_unmasking,3,88,0,0,_nine_,talker-p284_sex-f_text-_nine_.wav,p284,f,5,15,8.0,7.0,RX81,6,0.0,0.0,7.0,81.341492931939,babble-reversed_n13_p307-two-p229-one-p256-five-p248-nine-p284-three-p268-eight.wav,6,RX81,7,0.0,0.0,8.0,91.58892582949888,mgb_normalisation,91.58892582949886,90.34149293193902,9,9.0,True,1.0624139308929443
,2024-07-18 16:25:31,sub_116,3,distance,cathedral,spatial_unmasking,3,89,0,0,_three_,talker-p284_sex-f_text-_three_.wav,p284,f,5,16,8.0,7.0,RX81,6,0.0,0.0,7.0,81.34149293193902,babble-reversed_n13_p229-eight-p256-nine-p318-four-p245-three-p268-five-p284-two.wav,6,RX81,7,0.0,0.0,8.0,91.58892582949886,mgb_normalisation,91.58892582949886,90.34149293193902,3,3.0,True,0.9391984939575196
,2024-07-18 16:25:34,sub_116,3,distance,cathedral,spatial_unmasking,3,90,0,0,_nine_,talker-p284_sex-f_text-_nine_.wav,p284,f,5,17,8.0,7.0,RX81,6,0.0,0.0,7.0,80.341492931939,babble-reversed_n13_p229-two-p318-eight-p256-three-p268-one-p248-nine-p284-five.wav,6,RX81,7,0.0,0.0,8.0,91.58892582949886,mgb_normalisation,91.58892582949886,90.34149293193902,9,9.0,True,0.8749258518218994
,2024-07-18 16:25:38,sub_116,3,distance,cathedral,spatial_unmasking,3,91,0,0,_three_,talker-p284_sex-f_text-_three_.wav,p284,f,5,18,8.0,7.0,RX81,6,0.0,0.0,7.0,80.34149293193903,babble-reversed_n13_p256-eight-p318-five-p307-four-p245-three-p268-one-p284-nine.wav,6,RX81,7,0.0,0.0,8.0,91.58892582949886,mgb_normalisation,91.58892582949886,90.34149293193902,3,3.0,True,0.9374628067016602
,2024-07-18 16:25:41,sub_116,3,distance,cathedral,spatial_unmasking,3,92,0,0,_nine_,talker-p284_sex-f_text-_nine_.wav,p284,f,5,19,8.0,7.0,RX81,6,0.0,0.0,7.0,79.341492931939,babble-reversed_n13_p256-five-p229-one-p318-three-p248-nine-p284-eight-p268-two.wav,6,RX81,7,0.0,0.0,8.0,91.58892582949888,mgb_normalisation,91.58892582949886,90.34149293193902,9,9.0,True,1.0681962966918943
,2024-07-18 16:25:44,sub_116,3,distance,cathedral,spatial_unmasking,3,93,0,0,_eight_,talker-p284_sex-f_text-_eight_.wav,p284,f,5,20,8.0,7.0,RX81,6,0.0,0.0,7.0,79.341492931939,babble-reversed_n13_p256-four-p229-eight-p307-five-p248-three-p245-one-p284-two.wav,6,RX81,7,0.0,0.0,8.0,91.58892582949886,mgb_normalisation,91.58892582949886,90.34149293193902,8,8.0,True,0.9999189376831056
,2024-07-18 16:25:48,sub_116,3,distance,cathedral,spatial_unmasking,3,94,0,0,_four_,talker-p284_sex-f_text-_four_.wav,p284,f,5,21,8.0,7.0,RX81,6,0.0,0.0,7.0,78.341492931939,babble-reversed_n13_p229-five-p318-three-p307-two-p245-four-p284-nine-p248-eight.wav,6,RX81,7,0.0,0.0,8.0,91.58892582949886,mgb_normalisation,91.58892582949886,90.34149293193902,4,9.0,False,1.3124208450317385
,2024-07-18 16:25:52,sub_116,3,distance,cathedral,spatial_unmasking,3,95,0,0,_four_,talker-p284_sex-f_text-_four_.wav,p284,f,5,22,8.0,7.0,RX81,6,0.0,0.0,7.0,79.341492931939,babble-reversed_n13_p256-two-p307-five-p318-nine-p248-eight-p245-four-p284-one.wav,6,RX81,7,0.0,0.0,8.0,91.58892582949888,mgb_normalisation,91.58892582949886,90.34149293193902,4,3.0,False,1.249922275543213
,2024-07-18 16:25:55,sub_116,3,distance,cathedral,spatial_unmasking,3,96,0,0,_three_,talker-p284_sex-f_text-_three_.wav,p284,f,5,23,8.0,7.0,RX81,6,0.0,0.0,7.0,80.34149293193903,babble-reversed_n13_p307-two-p256-four-p318-three-p284-eight-p248-five-p245-nine.wav,6,RX81,7,0.0,0.0,8.0,91.58892582949888,mgb_normalisation,91.58892582949886,90.34149293193902,3,3.0,True,0.9437263011932372
,2024-07-18 16:25:58,sub_116,3,distance,cathedral,spatial_unmasking,3,97,0,0,_five_,talker-p284_sex-f_text-_five_.wav,p284,f,5,24,8.0,7.0,RX81,6,0.0,0.0,7.0,80.34149293193903,babble-reversed_n13_p256-eight-p318-five-p307-four-p245-three-p268-one-p284-nine.wav,6,RX81,7,0.0,0.0,8.0,91.58892582949886,mgb_normalisation,91.58892582949886,90.34149293193902,5,5.0,True,0.9374425411224364
,2024-07-18 16:26:02,sub_116,3,distance,cathedral,spatial_unmasking,3,98,0,0,_one_,talker-p284_sex-f_text-_one_.wav,p284,f,5,25,8.0,7.0,RX81,6,0.0,0.0,7.0,79.34149293193902,babble-reversed_n13_p307-nine-p318-two-p256-one-p245-three-p268-four-p248-eight.wav,6,RX81,7,0.0,0.0,8.0,91.58892582949886,mgb_normalisation,91.58892582949886,90.34149293193902,1,5.0,False,0.9999406337738036
,2024-07-18 16:26:05,sub_116,3,distance,cathedral,spatial_unmasking,3,99,0,0,_four_,talker-p284_sex-f_text-_four_.wav,p284,f,5,26,8.0,7.0,RX81,6,0.0,0.0,7.0,80.341492931939,babble-reversed_n13_p229-two-p307-five-p318-four-p284-one-p248-nine-p268-eight.wav,6,RX81,7,0.0,0.0,8.0,91.58892582949888,mgb_normalisation,91.58892582949886,90.34149293193902,4,9.0,False,0.879342794418335
,2024-07-18 16:26:08,sub_116,3,distance,cathedral,spatial_unmasking,3,100,0,0,_eight_,talker-p284_sex-f_text-_eight_.wav,p284,f,5,27,8.0,7.0,RX81,6,0.0,0.0,7.0,81.341492931939,babble-reversed_n13_p229-one-p318-eight-p256-three-p268-nine-p248-five-p284-four.wav,6,RX81,7,0.0,0.0,8.0,91.58892582949886,mgb_normalisation,91.58892582949886,90.34149293193902,8,8.0,True,0.8749465942382812
,2024-07-18 16:26:12,sub_116,3,distance,cathedral,spatial_unmasking,3,101,0,0,_four_,talker-p284_sex-f_text-_four_.wav,p284,f,5,28,8.0,7.0,RX81,6,0.0,0.0,7.0,81.341492931939,babble-reversed_n13_p256-four-p229-eight-p307-five-p248-three-p245-one-p284-two.wav,6,RX81,7,0.0,0.0,8.0,91.58892582949886,mgb_normalisation,91.58892582949886,90.34149293193902,4,3.0,False,1.1900818347930908
,2024-07-18 16:26:15,sub_116,3,distance,cathedral,spatial_unmasking,3,102,0,0,_four_,talker-p284_sex-f_text-_four_.wav,p284,f,5,29,8.0,7.0,RX81,6,0.0,0.0,7.0,82.341492931939,babble-reversed_n13_p256-eight-p229-three-p307-nine-p245-five-p248-four-p268-two.wav,6,RX81,7,0.0,0.0,8.0,91.58892582949886,mgb_normalisation,91.58892582949886,90.34149293193902,4,3.0,False,1.2574462890625
,2024-07-18 16:26:19,sub_116,3,distance,cathedral,spatial_unmasking,3,103,0,0,_nine_,talker-p284_sex-f_text-_nine_.wav,p284,f,5,30,8.0,7.0,RX81,6,0.0,0.0,7.0,83.34149293193902,babble-reversed_n13_p256-four-p307-eight-p318-two-p248-three-p284-nine-p268-one.wav,6,RX81,7,0.0,0.0,8.0,91.58892582949888,mgb_normalisation,91.58892582949886,90.34149293193902,9,9.0,True,0.9374406337738036
,2024-07-18 16:26:22,sub_116,3,distance,cathedral,spatial_unmasking,3,104,0,0,_nine_,talker-p284_sex-f_text-_nine_.wav,p284,f,5,31,8.0,7.0,RX81,6,0.0,0.0,7.0,83.34149293193902,babble-reversed_n13_p307-two-p256-four-p318-three-p284-eight-p248-five-p245-nine.wav,6,RX81,7,0.0,0.0,8.0,91.58892582949888,mgb_normalisation,91.58892582949886,90.34149293193902,9,9.0,True,0.9999191761016846
,2024-07-18 16:26:25,sub_116,3,distance,cathedral,spatial_unmasking,3,105,0,0,_three_,talker-p284_sex-f_text-_three_.wav,p284,f,5,32,8.0,7.0,RX81,6,0.0,0.0,7.0,82.34149293193902,babble-reversed_n13_p229-five-p256-one-p318-three-p248-nine-p268-four-p284-eight.wav,6,RX81,7,0.0,0.0,8.0,91.58892582949886,mgb_normalisation,91.58892582949886,90.34149293193902,3,3.0,True,1.072998285293579
,2024-07-18 16:26:29,sub_116,3,distance,cathedral,spatial_unmasking,3,106,0,0,_five_,talker-p284_sex-f_text-_five_.wav,p284,f,5,33,8.0,7.0,RX81,6,0.0,0.0,7.0,82.34149293193902,babble-reversed_n13_p229-one-p318-eight-p256-three-p268-two-p245-five-p248-nine.wav,6,RX81,7,0.0,0.0,8.0,91.58892582949886,mgb_normalisation,91.58892582949886,90.34149293193902,5,5.0,True,0.9374594688415528
,2024-07-18 16:26:32,sub_116,3,distance,cathedral,spatial_unmasking,3,107,0,0,_eight_,talker-p284_sex-f_text-_eight_.wav,p284,f,5,34,8.0,7.0,RX81,6,0.0,0.0,7.0,81.341492931939,babble-reversed_n13_p256-three-p318-one-p307-two-p284-nine-p268-four-p245-eight.wav,6,RX81,7,0.0,0.0,8.0,91.58892582949888,mgb_normalisation,91.58892582949886,90.34149293193902,8,9.0,False,0.8749668598175049
,2024-07-18 16:26:35,sub_116,3,distance,cathedral,spatial_unmasking,3,108,0,0,_four_,talker-p284_sex-f_text-_four_.wav,p284,f,5,35,8.0,7.0,RX81,6,0.0,0.0,7.0,82.341492931939,babble-reversed_n13_p318-three-p307-one-p256-five-p248-nine-p245-two-p284-eight.wav,6,RX81,7,0.0,0.0,8.0,91.58892582949888,mgb_normalisation,91.58892582949886,90.34149293193902,4,3.0,False,1.0048868656158447
,2024-07-18 16:26:38,sub_116,3,distance,cathedral,spatial_unmasking,3,109,0,0,_nine_,talker-p284_sex-f_text-_nine_.wav,p284,f,5,36,8.0,7.0,RX81,6,0.0,0.0,7.0,83.34149293193902,babble-reversed_n13_p307-four-p318-three-p256-eight-p284-two-p245-nine-p248-five.wav,6,RX81,7,0.0,0.0,8.0,91.58892582949886,mgb_normalisation,91.58892582949886,90.34149293193902,9,9.0,True,0.7499542236328125
,2024-07-18 16:26:42,sub_116,3,distance,cathedral,spatial_unmasking,3,110,0,0,_eight_,talker-p284_sex-f_text-_eight_.wav,p284,f,5,37,8.0,7.0,RX81,6,0.0,0.0,7.0,83.34149293193902,babble-reversed_n13_p229-five-p318-two-p307-eight-p268-three-p248-four-p245-one.wav,6,RX81,7,0.0,0.0,8.0,91.58892582949888,mgb_normalisation,91.58892582949886,90.34149293193902,8,8.0,True,1.1874074935913086
,2024-07-18 16:26:46,sub_116,3,distance,cathedral,spatial_unmasking,3,111,0,0,_four_,talker-p284_sex-f_text-_four_.wav,p284,f,5,38,8.0,7.0,RX81,6,0.0,0.0,7.0,82.341492931939,babble-reversed_n13_p318-five-p256-nine-p307-two-p245-eight-p248-one-p284-four.wav,6,RX81,7,0.0,0.0,8.0,91.58892582949888,mgb_normalisation,91.58892582949886,90.34149293193902,4,4.0,True,1.5634312629699707
,2024-07-18 16:26:49,sub_116,3,distance,cathedral,spatial_unmasking,3,112,0,0,_one_,talker-p284_sex-f_text-_one_.wav,p284,f,5,39,8.0,7.0,RX81,6,0.0,0.0,7.0,82.34149293193902,babble-reversed_n13_p307-two-p229-one-p256-five-p248-nine-p284-three-p268-eight.wav,6,RX81,7,0.0,0.0,8.0,91.58892582949888,mgb_normalisation,91.58892582949886,90.34149293193902,1,5.0,False,1.3124184608459473
,2024-07-18 16:26:53,sub_116,3,distance,cathedral,spatial_unmasking,3,113,0,0,_eight_,talker-p284_sex-f_text-_eight_.wav,p284,f,5,40,8.0,7.0,RX81,6,0.0,0.0,7.0,83.34149293193902,babble-reversed_n13_p229-nine-p256-four-p318-three-p268-eight-p248-two-p284-five.wav,6,RX81,7,0.0,0.0,8.0,91.58892582949888,mgb_normalisation,91.58892582949886,90.34149293193902,8,8.0,True,0.874945878982544
,2024-07-18 16:26:56,sub_116,3,distance,cathedral,spatial_unmasking,3,114,0,0,_six_,talker-p284_sex-f_text-_six_.wav,p284,f,5,41,8.0,7.0,RX81,6,0.0,0.0,7.0,83.34149293193902,babble-reversed_n13_p229-one-p318-eight-p256-three-p268-nine-p248-five-p284-four.wav,6,RX81,7,0.0,0.0,8.0,91.58892582949886,mgb_normalisation,91.58892582949886,90.34149293193902,6,6.0,True,0.8722524642944336
,2024-07-18 16:28:27,sub_116,3,distance,cathedral,spatial_unmasking,4,115,0,0,_three_,talker-p284_sex-f_text-_three_.wav,p284,f,5,1,12.0,7.0,RX81,6,0.0,0.0,7.0,92.34149293193902,babble-reversed_n13_p256-eight-p318-two-p307-five-p245-four-p268-nine-p284-one.wav,10,RX81,11,0.0,0.0,12.0,93.00003341222718,mgb_normalisation,93.00003341222715,90.34149293193902,3,3.0,True,1.5778074264526367
,2024-07-18 16:28:30,sub_116,3,distance,cathedral,spatial_unmasking,4,116,0,0,_two_,talker-p284_sex-f_text-_two_.wav,p284,f,5,2,12.0,7.0,RX81,6,0.0,0.0,7.0,88.34149293193902,babble-reversed_n13_p307-nine-p229-one-p256-eight-p248-four-p284-two-p268-three.wav,10,RX81,11,0.0,0.0,12.0,93.00003341222718,mgb_normalisation,93.00003341222715,90.34149293193902,2,2.0,True,1.0638177394866943
,2024-07-18 16:28:33,sub_116,3,distance,cathedral,spatial_unmasking,4,117,0,0,_one_,talker-p284_sex-f_text-_one_.wav,p284,f,5,3,12.0,7.0,RX81,6,0.0,0.0,7.0,84.341492931939,babble-reversed_n13_p229-five-p318-two-p307-eight-p268-three-p248-four-p245-one.wav,10,RX81,11,0.0,0.0,12.0,93.00003341222718,mgb_normalisation,93.00003341222715,90.34149293193902,1,1.0,True,0.9999394416809082
,2024-07-18 16:28:38,sub_116,3,distance,cathedral,spatial_unmasking,4,118,0,0,_four_,talker-p284_sex-f_text-_four_.wav,p284,f,5,4,12.0,7.0,RX81,6,0.0,0.0,7.0,80.341492931939,babble-reversed_n13_p229-one-p318-eight-p256-three-p268-nine-p248-five-p284-four.wav,10,RX81,11,0.0,0.0,12.0,93.00003341222715,mgb_normalisation,93.00003341222715,90.34149293193902,4,6.0,False,2.690781116485596
,2024-07-18 16:28:49,sub_116,3,distance,cathedral,spatial_unmasking,4,119,0,0,_four_,talker-p284_sex-f_text-_four_.wav,p284,f,5,5,12.0,7.0,RX81,6,0.0,0.0,7.0,82.341492931939,babble-reversed_n13_p256-three-p318-one-p307-two-p284-nine-p268-four-p245-eight.wav,10,RX81,11,0.0,0.0,12.0,93.00003341222718,mgb_normalisation,93.00003341222715,90.34149293193902,4,9.0,False,8.204632043838501
,2024-07-18 16:28:53,sub_116,3,distance,cathedral,spatial_unmasking,4,120,0,0,_three_,talker-p284_sex-f_text-_three_.wav,p284,f,5,6,12.0,7.0,RX81,6,0.0,0.0,7.0,84.34149293193903,babble-reversed_n13_p318-five-p256-nine-p307-eight-p248-two-p245-four-p284-three.wav,10,RX81,11,0.0,0.0,12.0,93.00003341222718,mgb_normalisation,93.00003341222715,90.34149293193902,3,3.0,True,1.2499220371246338
,2024-07-18 16:28:56,sub_116,3,distance,cathedral,spatial_unmasking,4,121,0,0,_two_,talker-p284_sex-f_text-_two_.wav,p284,f,5,7,12.0,7.0,RX81,6,0.0,0.0,7.0,84.34149293193903,babble-reversed_n13_p318-three-p307-one-p256-five-p248-nine-p245-two-p284-eight.wav,10,RX81,11,0.0,0.0,12.0,93.00003341222718,mgb_normalisation,93.00003341222715,90.34149293193902,2,2.0,True,1.1390924453735352
,2024-07-18 16:29:00,sub_116,3,distance,cathedral,spatial_unmasking,4,122,0,0,_three_,talker-p284_sex-f_text-_three_.wav,p284,f,5,8,12.0,7.0,RX81,6,0.0,0.0,7.0,82.34149293193902,babble-reversed_n13_p318-five-p256-nine-p307-two-p245-eight-p248-one-p284-four.wav,10,RX81,11,0.0,0.0,12.0,93.00003341222718,mgb_normalisation,93.00003341222715,90.34149293193902,3,3.0,True,1.124910831451416
,2024-07-18 16:29:03,sub_116,3,distance,cathedral,spatial_unmasking,4,123,0,0,_two_,talker-p284_sex-f_text-_two_.wav,p284,f,5,9,12.0,7.0,RX81,6,0.0,0.0,7.0,82.34149293193902,babble-reversed_n13_p256-three-p318-one-p307-two-p284-nine-p268-four-p245-eight.wav,10,RX81,11,0.0,0.0,12.0,93.00003341222718,mgb_normalisation,93.00003341222715,90.34149293193902,2,2.0,True,0.8749463558197021
,2024-07-18 16:29:06,sub_116,3,distance,cathedral,spatial_unmasking,4,124,0,0,_four_,talker-p284_sex-f_text-_four_.wav,p284,f,5,10,12.0,7.0,RX81,6,0.0,0.0,7.0,80.341492931939,babble-reversed_n13_p318-three-p307-one-p256-five-p248-nine-p245-two-p284-eight.wav,10,RX81,11,0.0,0.0,12.0,93.00003341222718,mgb_normalisation,93.00003341222715,90.34149293193902,4,3.0,False,0.9498910903930664
,2024-07-18 16:29:09,sub_116,3,distance,cathedral,spatial_unmasking,4,125,0,0,_nine_,talker-p284_sex-f_text-_nine_.wav,p284,f,5,11,12.0,7.0,RX81,6,0.0,0.0,7.0,81.341492931939,babble-reversed_n13_p229-eight-p256-nine-p318-four-p245-three-p268-five-p284-two.wav,10,RX81,11,0.0,0.0,12.0,93.00003341222715,mgb_normalisation,93.00003341222715,90.34149293193902,9,9.0,True,0.8749446868896484
,2024-07-18 16:29:13,sub_116,3,distance,cathedral,spatial_unmasking,4,126,0,0,_four_,talker-p284_sex-f_text-_four_.wav,p284,f,5,12,12.0,7.0,RX81,6,0.0,0.0,7.0,81.341492931939,babble-reversed_n13_p318-five-p256-nine-p307-two-p245-eight-p248-one-p284-four.wav,10,RX81,11,0.0,0.0,12.0,93.00003341222718,mgb_normalisation,93.00003341222715,90.34149293193902,4,5.0,False,1.499906301498413
,2024-07-18 16:29:16,sub_116,3,distance,cathedral,spatial_unmasking,4,127,0,0,_nine_,talker-p284_sex-f_text-_nine_.wav,p284,f,5,13,12.0,7.0,RX81,6,0.0,0.0,7.0,82.34149293193902,babble-reversed_n13_p256-three-p318-two-p229-nine-p248-four-p284-one-p268-eight.wav,10,RX81,11,0.0,0.0,12.0,93.00003341222715,mgb_normalisation,93.00003341222715,90.34149293193902,9,9.0,True,0.8806395530700684
,2024-07-18 16:29:20,sub_116,3,distance,cathedral,spatial_unmasking,4,128,0,0,_nine_,talker-p284_sex-f_text-_nine_.wav,p284,f,5,14,12.0,7.0,RX81,6,0.0,0.0,7.0,82.34149293193902,babble-reversed_n13_p256-four-p307-eight-p318-two-p248-three-p284-nine-p268-one.wav,10,RX81,11,0.0,0.0,12.0,93.00003341222718,mgb_normalisation,93.00003341222715,90.34149293193902,9,9.0,True,0.9374406337738036
,2024-07-18 16:29:23,sub_116,3,distance,cathedral,spatial_unmasking,4,129,0,0,_one_,talker-p284_sex-f_text-_one_.wav,p284,f,5,15,12.0,7.0,RX81,6,0.0,0.0,7.0,81.34149293193902,babble-reversed_n13_p307-five-p229-three-p318-nine-p245-four-p268-eight-p284-two.wav,10,RX81,11,0.0,0.0,12.0,93.00003341222715,mgb_normalisation,93.00003341222715,90.34149293193902,1,1.0,True,1.0624349117279053
,2024-07-18 16:29:27,sub_116,3,distance,cathedral,spatial_unmasking,4,130,0,0,_four_,talker-p284_sex-f_text-_four_.wav,p284,f,5,16,12.0,7.0,RX81,6,0.0,0.0,7.0,81.341492931939,babble-reversed_n13_p256-eight-p318-two-p307-five-p245-four-p268-nine-p284-one.wav,10,RX81,11,0.0,0.0,12.0,93.00003341222718,mgb_normalisation,93.00003341222715,90.34149293193902,4,4.0,True,1.2571380138397217
,2024-07-18 16:29:30,sub_116,3,distance,cathedral,spatial_unmasking,4,131,0,0,_eight_,talker-p284_sex-f_text-_eight_.wav,p284,f,5,17,12.0,7.0,RX81,6,0.0,0.0,7.0,80.341492931939,babble-reversed_n13_p229-nine-p318-one-p307-two-p248-eight-p245-five-p284-four.wav,10,RX81,11,0.0,0.0,12.0,93.00003341222718,mgb_normalisation,93.00003341222715,90.34149293193902,8,8.0,True,1.063680648803711
,2024-07-18 16:29:37,sub_116,3,distance,cathedral,spatial_unmasking,4,132,0,0,_four_,talker-p284_sex-f_text-_four_.wav,p284,f,5,18,12.0,7.0,RX81,6,0.0,0.0,7.0,80.341492931939,babble-reversed_n13_p318-five-p256-nine-p307-eight-p248-two-p245-four-p284-three.wav,10,RX81,11,0.0,0.0,12.0,93.00003341222718,mgb_normalisation,93.00003341222715,90.34149293193902,4,5.0,False,4.077976226806641
,2024-07-18 16:29:40,sub_116,3,distance,cathedral,spatial_unmasking,4,133,0,0,_five_,talker-p284_sex-f_text-_five_.wav,p284,f,5,19,12.0,7.0,RX81,6,0.0,0.0,7.0,81.34149293193902,babble-reversed_n13_p307-four-p318-three-p256-eight-p284-two-p245-nine-p248-five.wav,10,RX81,11,0.0,0.0,12.0,93.00003341222715,mgb_normalisation,93.00003341222715,90.34149293193902,5,5.0,True,1.123506784439087
,2024-07-18 16:29:43,sub_116,3,distance,cathedral,spatial_unmasking,4,134,0,0,_nine_,talker-p284_sex-f_text-_nine_.wav,p284,f,5,20,12.0,7.0,RX81,6,0.0,0.0,7.0,81.341492931939,babble-reversed_n13_p318-nine-p256-five-p307-eight-p268-three-p248-one-p245-four.wav,10,RX81,11,0.0,0.0,12.0,93.00003341222718,mgb_normalisation,93.00003341222715,90.34149293193902,9,9.0,True,0.9999585151672364
,2024-07-18 16:29:47,sub_116,3,distance,cathedral,spatial_unmasking,4,135,0,0,_five_,talker-p284_sex-f_text-_five_.wav,p284,f,5,21,12.0,7.0,RX81,6,0.0,0.0,7.0,80.34149293193903,babble-reversed_n13_p229-five-p318-three-p307-two-p245-four-p284-nine-p248-eight.wav,10,RX81,11,0.0,0.0,12.0,93.00003341222715,mgb_normalisation,93.00003341222715,90.34149293193902,5,5.0,True,1.065941333770752
,2024-07-18 16:29:50,sub_116,3,distance,cathedral,spatial_unmasking,4,136,0,0,_nine_,talker-p284_sex-f_text-_nine_.wav,p284,f,5,22,12.0,7.0,RX81,6,0.0,0.0,7.0,80.341492931939,babble-reversed_n13_p318-nine-p307-eight-p229-two-p284-one-p248-three-p245-five.wav,10,RX81,11,0.0,0.0,12.0,93.00003341222718,mgb_normalisation,93.00003341222715,90.34149293193902,9,9.0,True,0.9376814365386964
,2024-07-18 16:29:53,sub_116,3,distance,cathedral,spatial_unmasking,4,137,0,0,_six_,talker-p284_sex-f_text-_six_.wav,p284,f,5,23,12.0,7.0,RX81,6,0.0,0.0,7.0,79.341492931939,babble-reversed_n13_p229-three-p307-one-p318-two-p245-eight-p268-five-p284-four.wav,10,RX81,11,0.0,0.0,12.0,93.00003341222718,mgb_normalisation,93.00003341222715,90.34149293193902,6,6.0,True,1.0624125003814695
,2024-07-18 16:29:57,sub_116,3,distance,cathedral,spatial_unmasking,4,138,0,0,_nine_,talker-p284_sex-f_text-_nine_.wav,p284,f,5,24,12.0,7.0,RX81,6,0.0,0.0,7.0,79.341492931939,babble-reversed_n13_p229-nine-p256-four-p318-three-p268-eight-p248-two-p284-five.wav,10,RX81,11,0.0,0.0,12.0,93.00003341222718,mgb_normalisation,93.00003341222715,90.34149293193902,9,9.0,True,0.9391887187957764
,2024-07-18 16:30:00,sub_116,3,distance,cathedral,spatial_unmasking,4,139,0,0,_four_,talker-p284_sex-f_text-_four_.wav,p284,f,5,25,12.0,7.0,RX81,6,0.0,0.0,7.0,78.341492931939,babble-reversed_n13_p256-eight-p229-three-p307-nine-p245-five-p248-four-p268-two.wav,10,RX81,11,0.0,0.0,12.0,93.00003341222715,mgb_normalisation,93.00003341222715,90.34149293193902,4,4.0,True,1.0020947456359863
,2024-07-18 16:30:04,sub_116,3,distance,cathedral,spatial_unmasking,4,140,0,0,_six_,talker-p284_sex-f_text-_six_.wav,p284,f,5,26,12.0,7.0,RX81,6,0.0,0.0,7.0,78.34149293193902,babble-reversed_n13_p229-two-p318-eight-p256-three-p268-one-p248-nine-p284-five.wav,10,RX81,11,0.0,0.0,12.0,93.00003341222715,mgb_normalisation,93.00003341222715,90.34149293193902,6,6.0,True,1.0624353885650637
,2024-07-18 16:30:07,sub_116,3,distance,cathedral,spatial_unmasking,4,141,0,0,_eight_,talker-p284_sex-f_text-_eight_.wav,p284,f,5,27,12.0,7.0,RX81,6,0.0,0.0,7.0,77.341492931939,babble-reversed_n13_p229-two-p307-five-p318-four-p284-one-p248-nine-p268-eight.wav,10,RX81,11,0.0,0.0,12.0,93.00003341222718,mgb_normalisation,93.00003341222715,90.34149293193902,8,9.0,False,1.1267402172088623
,2024-07-18 16:30:10,sub_116,3,distance,cathedral,spatial_unmasking,4,142,0,0,_six_,talker-p284_sex-f_text-_six_.wav,p284,f,5,28,12.0,7.0,RX81,6,0.0,0.0,7.0,78.34149293193902,babble-reversed_n13_p256-three-p318-two-p229-nine-p248-four-p284-one-p268-eight.wav,10,RX81,11,0.0,0.0,12.0,93.00003341222715,mgb_normalisation,93.00003341222715,90.34149293193902,6,6.0,True,1.006171703338623
,2024-07-18 16:30:14,sub_116,3,distance,cathedral,spatial_unmasking,4,143,0,0,_five_,talker-p284_sex-f_text-_five_.wav,p284,f,5,29,12.0,7.0,RX81,6,0.0,0.0,7.0,78.34149293193902,babble-reversed_n13_p229-eight-p256-nine-p318-four-p245-three-p268-five-p284-two.wav,10,RX81,11,0.0,0.0,12.0,93.00003341222715,mgb_normalisation,93.00003341222715,90.34149293193902,5,5.0,True,1.0624356269836426
,2024-07-18 16:30:17,sub_116,3,distance,cathedral,spatial_unmasking,4,144,0,0,_two_,talker-p284_sex-f_text-_two_.wav,p284,f,5,30,12.0,7.0,RX81,6,0.0,0.0,7.0,77.34149293193902,babble-reversed_n13_p307-two-p229-one-p256-five-p248-nine-p284-three-p268-eight.wav,10,RX81,11,0.0,0.0,12.0,93.00003341222718,mgb_normalisation,93.00003341222715,90.34149293193902,2,3.0,False,1.187425136566162
,2024-07-18 16:30:21,sub_116,3,distance,cathedral,spatial_unmasking,4,145,0,0,_four_,talker-p284_sex-f_text-_four_.wav,p284,f,5,31,12.0,7.0,RX81,6,0.0,0.0,7.0,78.341492931939,babble-reversed_n13_p229-nine-p318-one-p307-two-p248-eight-p245-five-p284-four.wav,10,RX81,11,0.0,0.0,12.0,93.00003341222718,mgb_normalisation,93.00003341222715,90.34149293193902,4,4.0,True,1.3282907009124756
,2024-07-18 16:30:24,sub_116,3,distance,cathedral,spatial_unmasking,4,146,0,0,_five_,talker-p284_sex-f_text-_five_.wav,p284,f,5,32,12.0,7.0,RX81,6,0.0,0.0,7.0,78.34149293193902,babble-reversed_n13_p318-three-p307-one-p256-five-p248-nine-p245-two-p284-eight.wav,10,RX81,11,0.0,0.0,12.0,93.00003341222718,mgb_normalisation,93.00003341222715,90.34149293193902,5,5.0,True,1.0624547004699707
,2024-07-18 16:30:28,sub_116,3,distance,cathedral,spatial_unmasking,4,147,0,0,_six_,talker-p284_sex-f_text-_six_.wav,p284,f,5,33,12.0,7.0,RX81,6,0.0,0.0,7.0,77.341492931939,babble-reversed_n13_p229-five-p256-three-p318-nine-p248-two-p284-four-p268-one.wav,10,RX81,11,0.0,0.0,12.0,93.00003341222718,mgb_normalisation,93.00003341222715,90.34149293193902,6,6.0,True,1.187427043914795
,2024-07-18 16:30:32,sub_116,3,distance,cathedral,spatial_unmasking,4,148,0,0,_six_,talker-p284_sex-f_text-_six_.wav,p284,f,5,34,12.0,7.0,RX81,6,0.0,0.0,7.0,77.341492931939,babble-reversed_n13_p229-nine-p318-one-p307-two-p248-eight-p245-five-p284-four.wav,10,RX81,11,0.0,0.0,12.0,93.00003341222718,mgb_normalisation,93.00003341222715,90.34149293193902,6,6.0,True,1.134357452392578
,2024-07-18 16:30:35,sub_116,3,distance,cathedral,spatial_unmasking,4,149,0,0,_five_,talker-p284_sex-f_text-_five_.wav,p284,f,5,35,12.0,7.0,RX81,6,0.0,0.0,7.0,76.34149293193902,babble-reversed_n13_p318-five-p229-four-p256-eight-p284-one-p245-three-p248-two.wav,10,RX81,11,0.0,0.0,12.0,93.00003341222718,mgb_normalisation,93.00003341222715,90.34149293193902,5,5.0,True,1.1883792877197266
,2024-07-18 16:30:39,sub_116,3,distance,cathedral,spatial_unmasking,4,150,0,0,_nine_,talker-p284_sex-f_text-_nine_.wav,p284,f,5,36,12.0,7.0,RX81,6,0.0,0.0,7.0,76.34149293193902,babble-reversed_n13_p256-four-p307-eight-p318-two-p248-three-p284-nine-p268-one.wav,10,RX81,11,0.0,0.0,12.0,93.00003341222718,mgb_normalisation,93.00003341222715,90.34149293193902,9,9.0,True,1.1874289512634275
,2024-07-18 16:30:42,sub_116,3,distance,cathedral,spatial_unmasking,4,151,0,0,_three_,talker-p284_sex-f_text-_three_.wav,p284,f,5,37,12.0,7.0,RX81,6,0.0,0.0,7.0,75.34149293193903,babble-reversed_n13_p229-two-p307-five-p318-four-p284-one-p248-nine-p268-eight.wav,10,RX81,11,0.0,0.0,12.0,93.00003341222718,mgb_normalisation,93.00003341222715,90.34149293193902,3,9.0,False,1.187746524810791
,2024-07-18 16:30:46,sub_116,3,distance,cathedral,spatial_unmasking,4,152,0,0,_four_,talker-p284_sex-f_text-_four_.wav,p284,f,5,38,12.0,7.0,RX81,6,0.0,0.0,7.0,76.34149293193902,babble-reversed_n13_p256-eight-p318-five-p307-four-p245-three-p268-one-p284-nine.wav,10,RX81,11,0.0,0.0,12.0,93.00003341222715,mgb_normalisation,93.00003341222715,90.34149293193902,4,4.0,True,1.2629868984222412
,2024-07-18 16:30:49,sub_116,3,distance,cathedral,spatial_unmasking,4,153,0,0,_six_,talker-p284_sex-f_text-_six_.wav,p284,f,5,39,12.0,7.0,RX81,6,0.0,0.0,7.0,76.34149293193902,babble-reversed_n13_p229-three-p256-one-p307-two-p284-eight-p268-five-p248-nine.wav,10,RX81,11,0.0,0.0,12.0,93.00003341222718,mgb_normalisation,93.00003341222715,90.34149293193902,6,6.0,True,1.1249334812164309
,2024-07-18 16:31:56,sub_116,3,distance,cathedral,spatial_unmasking,5,154,0,0,_four_,talker-p284_sex-f_text-_four_.wav,p284,f,5,1,10.0,7.0,RX81,6,0.0,0.0,7.0,92.34149293193902,babble-reversed_n13_p229-five-p256-three-p318-nine-p248-two-p284-four-p268-one.wav,8,RX81,9,0.0,0.0,10.0,92.0152836843556,mgb_normalisation,92.0152836843556,90.34149293193902,4,4.0,True,3.641445159912109
,2024-07-18 16:32:00,sub_116,3,distance,cathedral,spatial_unmasking,5,155,0,0,_four_,talker-p284_sex-f_text-_four_.wav,p284,f,5,2,10.0,7.0,RX81,6,0.0,0.0,7.0,88.34149293193902,babble-reversed_n13_p307-four-p318-three-p256-eight-p284-two-p245-nine-p248-five.wav,8,RX81,9,0.0,0.0,10.0,92.0152836843556,mgb_normalisation,92.0152836843556,90.34149293193902,4,5.0,False,1.6281516551971436
,2024-07-18 16:32:05,sub_116,3,distance,cathedral,spatial_unmasking,5,156,0,0,_four_,talker-p284_sex-f_text-_four_.wav,p284,f,5,3,10.0,7.0,RX81,6,0.0,0.0,7.0,90.341492931939,babble-reversed_n13_p307-nine-p318-two-p256-one-p245-three-p268-four-p248-eight.wav,8,RX81,9,0.0,0.0,10.0,92.0152836843556,mgb_normalisation,92.0152836843556,90.34149293193902,4,2.0,False,2.6248273849487305
,2024-07-18 16:32:09,sub_116,3,distance,cathedral,spatial_unmasking,5,157,0,0,_three_,talker-p284_sex-f_text-_three_.wav,p284,f,5,4,10.0,7.0,RX81,6,0.0,0.0,7.0,92.34149293193902,babble-reversed_n13_p307-four-p318-three-p256-eight-p284-two-p245-nine-p248-five.wav,8,RX81,9,0.0,0.0,10.0,92.0152836843556,mgb_normalisation,92.0152836843556,90.34149293193902,3,3.0,True,1.1874055862426758
,2024-07-18 16:32:12,sub_116,3,distance,cathedral,spatial_unmasking,5,158,0,0,_two_,talker-p284_sex-f_text-_two_.wav,p284,f,5,5,10.0,7.0,RX81,6,0.0,0.0,7.0,92.34149293193902,babble-reversed_n13_p229-five-p318-two-p307-eight-p268-three-p248-four-p245-one.wav,8,RX81,9,0.0,0.0,10.0,92.0152836843556,mgb_normalisation,92.0152836843556,90.34149293193902,2,2.0,True,1.187427043914795
,2024-07-18 16:32:16,sub_116,3,distance,cathedral,spatial_unmasking,5,159,0,0,_two_,talker-p284_sex-f_text-_two_.wav,p284,f,5,6,10.0,7.0,RX81,6,0.0,0.0,7.0,90.34149293193904,babble-reversed_n13_p229-eight-p256-nine-p318-four-p245-three-p268-five-p284-two.wav,8,RX81,9,0.0,0.0,10.0,92.0152836843556,mgb_normalisation,92.0152836843556,90.34149293193902,2,2.0,True,1.071157693862915
,2024-07-18 16:32:19,sub_116,3,distance,cathedral,spatial_unmasking,5,160,0,0,_three_,talker-p284_sex-f_text-_three_.wav,p284,f,5,7,10.0,7.0,RX81,6,0.0,0.0,7.0,90.34149293193904,babble-reversed_n13_p318-four-p256-five-p229-three-p284-one-p245-eight-p248-nine.wav,8,RX81,9,0.0,0.0,10.0,92.0152836843556,mgb_normalisation,92.0152836843556,90.34149293193902,3,3.0,True,1.1874277591705322
,2024-07-18 16:32:23,sub_116,3,distance,cathedral,spatial_unmasking,5,161,0,0,_three_,talker-p284_sex-f_text-_three_.wav,p284,f,5,8,10.0,7.0,RX81,6,0.0,0.0,7.0,88.34149293193903,babble-reversed_n13_p256-eight-p318-five-p307-four-p245-three-p268-one-p284-nine.wav,8,RX81,9,0.0,0.0,10.0,92.0152836843556,mgb_normalisation,92.0152836843556,90.34149293193902,3,3.0,True,1.1249117851257324
,2024-07-18 16:32:26,sub_116,3,distance,cathedral,spatial_unmasking,5,162,0,0,_one_,talker-p284_sex-f_text-_one_.wav,p284,f,5,9,10.0,7.0,RX81,6,0.0,0.0,7.0,88.34149293193902,babble-reversed_n13_p229-one-p318-eight-p256-three-p268-nine-p248-five-p284-four.wav,8,RX81,9,0.0,0.0,10.0,92.0152836843556,mgb_normalisation,92.0152836843556,90.34149293193902,1,1.0,True,0.9494428634643556
,2024-07-18 16:32:30,sub_116,3,distance,cathedral,spatial_unmasking,5,163,0,0,_five_,talker-p284_sex-f_text-_five_.wav,p284,f,5,10,10.0,7.0,RX81,6,0.0,0.0,7.0,86.34149293193902,babble-reversed_n13_p318-nine-p307-eight-p229-two-p284-one-p248-three-p245-five.wav,8,RX81,9,0.0,0.0,10.0,92.0152836843556,mgb_normalisation,92.0152836843556,90.34149293193902,5,5.0,True,1.1249313354492188
,2024-07-18 16:32:33,sub_116,3,distance,cathedral,spatial_unmasking,5,164,0,0,_nine_,talker-p284_sex-f_text-_nine_.wav,p284,f,5,11,10.0,7.0,RX81,6,0.0,0.0,7.0,86.341492931939,babble-reversed_n13_p229-one-p318-eight-p256-three-p268-two-p245-five-p248-nine.wav,8,RX81,9,0.0,0.0,10.0,92.0152836843556,mgb_normalisation,92.0152836843556,90.34149293193902,9,9.0,True,1.1249313354492188
,2024-07-18 16:32:37,sub_116,3,distance,cathedral,spatial_unmasking,5,165,0,0,_six_,talker-p284_sex-f_text-_six_.wav,p284,f,5,12,10.0,7.0,RX81,6,0.0,0.0,7.0,84.341492931939,babble-reversed_n13_p229-one-p318-nine-p256-four-p284-eight-p268-five-p245-two.wav,8,RX81,9,0.0,0.0,10.0,92.0152836843556,mgb_normalisation,92.0152836843556,90.34149293193902,6,6.0,True,1.076202154159546
,2024-07-18 16:32:40,sub_116,3,distance,cathedral,spatial_unmasking,5,166,0,0,_nine_,talker-p284_sex-f_text-_nine_.wav,p284,f,5,13,10.0,7.0,RX81,6,0.0,0.0,7.0,84.341492931939,babble-reversed_n13_p318-nine-p307-eight-p229-two-p284-one-p248-three-p245-five.wav,8,RX81,9,0.0,0.0,10.0,92.0152836843556,mgb_normalisation,92.0152836843556,90.34149293193902,9,9.0,True,0.8749685287475586
,2024-07-18 16:32:43,sub_116,3,distance,cathedral,spatial_unmasking,5,167,0,0,_three_,talker-p284_sex-f_text-_three_.wav,p284,f,5,14,10.0,7.0,RX81,6,0.0,0.0,7.0,82.34149293193902,babble-reversed_n13_p307-four-p318-three-p256-eight-p284-two-p245-nine-p248-five.wav,8,RX81,9,0.0,0.0,10.0,92.0152836843556,mgb_normalisation,92.0152836843556,90.34149293193902,3,3.0,True,1.0624568462371826
,2024-07-18 16:32:47,sub_116,3,distance,cathedral,spatial_unmasking,5,168,0,0,_eight_,talker-p284_sex-f_text-_eight_.wav,p284,f,5,15,10.0,7.0,RX81,6,0.0,0.0,7.0,82.341492931939,babble-reversed_n13_p229-five-p318-three-p307-two-p245-four-p284-nine-p248-eight.wav,8,RX81,9,0.0,0.0,10.0,92.0152836843556,mgb_normalisation,92.0152836843556,90.34149293193902,8,8.0,True,1.449310302734375
,2024-07-18 16:32:50,sub_116,3,distance,cathedral,spatial_unmasking,5,169,0,0,_one_,talker-p284_sex-f_text-_one_.wav,p284,f,5,16,10.0,7.0,RX81,6,0.0,0.0,7.0,80.34149293193903,babble-reversed_n13_p256-three-p318-two-p229-nine-p248-four-p284-one-p268-eight.wav,8,RX81,9,0.0,0.0,10.0,92.0152836843556,mgb_normalisation,92.0152836843556,90.34149293193902,1,5.0,False,0.874967098236084
,2024-07-18 16:32:53,sub_116,3,distance,cathedral,spatial_unmasking,5,170,0,0,_six_,talker-p284_sex-f_text-_six_.wav,p284,f,5,17,10.0,7.0,RX81,6,0.0,0.0,7.0,81.341492931939,babble-reversed_n13_p229-five-p256-three-p318-nine-p248-two-p284-four-p268-one.wav,8,RX81,9,0.0,0.0,10.0,92.0152836843556,mgb_normalisation,92.0152836843556,90.34149293193902,6,6.0,True,0.6874580383300781
,2024-07-18 16:32:56,sub_116,3,distance,cathedral,spatial_unmasking,5,171,0,0,_four_,talker-p284_sex-f_text-_four_.wav,p284,f,5,18,10.0,7.0,RX81,6,0.0,0.0,7.0,81.341492931939,babble-reversed_n13_p256-three-p318-one-p307-two-p284-nine-p268-four-p245-eight.wav,8,RX81,9,0.0,0.0,10.0,92.0152836843556,mgb_normalisation,92.0152836843556,90.34149293193902,4,9.0,False,0.8239004611968994
,2024-07-18 16:33:00,sub_116,3,distance,cathedral,spatial_unmasking,5,172,0,0,_four_,talker-p284_sex-f_text-_four_.wav,p284,f,5,19,10.0,7.0,RX81,6,0.0,0.0,7.0,82.341492931939,babble-reversed_n13_p229-nine-p318-one-p307-two-p248-eight-p245-five-p284-four.wav,8,RX81,9,0.0,0.0,10.0,92.0152836843556,mgb_normalisation,92.0152836843556,90.34149293193902,4,4.0,True,0.937464952468872
,2024-07-18 16:33:03,sub_116,3,distance,cathedral,spatial_unmasking,5,173,0,0,_three_,talker-p284_sex-f_text-_three_.wav,p284,f,5,20,10.0,7.0,RX81,6,0.0,0.0,7.0,82.34149293193902,babble-reversed_n13_p256-five-p307-nine-p318-three-p284-eight-p268-one-p248-two.wav,8,RX81,9,0.0,0.0,10.0,92.0152836843556,mgb_normalisation,92.0152836843556,90.34149293193902,3,3.0,True,0.8749473094940186
,2024-07-18 16:33:06,sub_116,3,distance,cathedral,spatial_unmasking,5,174,0,0,_six_,talker-p284_sex-f_text-_six_.wav,p284,f,5,21,10.0,7.0,RX81,6,0.0,0.0,7.0,81.341492931939,babble-reversed_n13_p318-five-p256-nine-p307-eight-p248-two-p245-four-p284-three.wav,8,RX81,9,0.0,0.0,10.0,92.0152836843556,mgb_normalisation,92.0152836843556,90.34149293193902,6,6.0,True,0.8225357532501221
,2024-07-18 16:33:10,sub_116,3,distance,cathedral,spatial_unmasking,5,175,0,0,_one_,talker-p284_sex-f_text-_one_.wav,p284,f,5,22,10.0,7.0,RX81,6,0.0,0.0,7.0,81.34149293193902,babble-reversed_n13_p229-three-p307-one-p318-two-p245-eight-p268-five-p284-four.wav,8,RX81,9,0.0,0.0,10.0,92.0152836843556,mgb_normalisation,92.0152836843556,90.34149293193902,1,1.0,True,0.9999184608459472
,2024-07-18 16:33:13,sub_116,3,distance,cathedral,spatial_unmasking,5,176,0,0,_nine_,talker-p284_sex-f_text-_nine_.wav,p284,f,5,23,10.0,7.0,RX81,6,0.0,0.0,7.0,80.341492931939,babble-reversed_n13_p229-five-p318-three-p307-two-p245-four-p284-nine-p248-eight.wav,8,RX81,9,0.0,0.0,10.0,92.0152836843556,mgb_normalisation,92.0152836843556,90.34149293193902,9,9.0,True,0.8749442100524902
,2024-07-18 16:33:16,sub_116,3,distance,cathedral,spatial_unmasking,5,177,0,0,_five_,talker-p284_sex-f_text-_five_.wav,p284,f,5,24,10.0,7.0,RX81,6,0.0,0.0,7.0,80.34149293193903,babble-reversed_n13_p229-one-p318-eight-p256-three-p268-nine-p248-five-p284-four.wav,8,RX81,9,0.0,0.0,10.0,92.0152836843556,mgb_normalisation,92.0152836843556,90.34149293193902,5,5.0,True,0.7595870494842529
,2024-07-18 16:33:19,sub_116,3,distance,cathedral,spatial_unmasking,5,178,0,0,_three_,talker-p284_sex-f_text-_three_.wav,p284,f,5,25,10.0,7.0,RX81,6,0.0,0.0,7.0,79.34149293193903,babble-reversed_n13_p318-five-p256-nine-p307-eight-p248-two-p245-four-p284-three.wav,8,RX81,9,0.0,0.0,10.0,92.0152836843556,mgb_normalisation,92.0152836843556,90.34149293193902,3,3.0,True,0.7499539852142334
,2024-07-18 16:33:22,sub_116,3,distance,cathedral,spatial_unmasking,5,179,0,0,_three_,talker-p284_sex-f_text-_three_.wav,p284,f,5,26,10.0,7.0,RX81,6,0.0,0.0,7.0,79.34149293193903,babble-reversed_n13_p256-five-p307-nine-p318-three-p284-eight-p268-one-p248-two.wav,8,RX81,9,0.0,0.0,10.0,92.0152836843556,mgb_normalisation,92.0152836843556,90.34149293193902,3,3.0,True,0.8124492168426514
,2024-07-18 16:33:25,sub_116,3,distance,cathedral,spatial_unmasking,5,180,0,0,_one_,talker-p284_sex-f_text-_one_.wav,p284,f,5,27,10.0,7.0,RX81,6,0.0,0.0,7.0,78.34149293193902,babble-reversed_n13_p307-two-p229-one-p256-five-p248-nine-p284-three-p268-eight.wav,8,RX81,9,0.0,0.0,10.0,92.0152836843556,mgb_normalisation,92.0152836843556,90.34149293193902,1,4.0,False,1.0032391548156738
,2024-07-18 16:33:29,sub_116,3,distance,cathedral,spatial_unmasking,5,181,0,0,_four_,talker-p284_sex-f_text-_four_.wav,p284,f,5,28,10.0,7.0,RX81,6,0.0,0.0,7.0,79.341492931939,babble-reversed_n13_p229-one-p318-eight-p256-three-p268-two-p245-five-p248-nine.wav,8,RX81,9,0.0,0.0,10.0,92.0152836843556,mgb_normalisation,92.0152836843556,90.34149293193902,4,4.0,True,1.4373903274536133
,2024-07-18 16:33:32,sub_116,3,distance,cathedral,spatial_unmasking,5,182,0,0,_six_,talker-p284_sex-f_text-_six_.wav,p284,f,5,29,10.0,7.0,RX81,6,0.0,0.0,7.0,79.341492931939,babble-reversed_n13_p256-nine-p307-four-p229-one-p284-three-p248-two-p245-five.wav,8,RX81,9,0.0,0.0,10.0,92.0152836843556,mgb_normalisation,92.0152836843556,90.34149293193902,6,6.0,True,0.62493896484375
,2024-07-18 16:33:37,sub_116,3,distance,cathedral,spatial_unmasking,5,183,0,0,_four_,talker-p284_sex-f_text-_four_.wav,p284,f,5,30,10.0,7.0,RX81,6,0.0,0.0,7.0,78.341492931939,babble-reversed_n13_p256-four-p229-two-p318-five-p268-one-p248-eight-p245-three.wav,8,RX81,9,0.0,0.0,10.0,92.0152836843556,mgb_normalisation,92.0152836843556,90.34149293193902,4,3.0,False,1.9531772136688232
,2024-07-18 16:33:40,sub_116,3,distance,cathedral,spatial_unmasking,5,184,0,0,_nine_,talker-p284_sex-f_text-_nine_.wav,p284,f,5,31,10.0,7.0,RX81,6,0.0,0.0,7.0,79.341492931939,babble-reversed_n13_p229-eight-p256-nine-p318-four-p245-three-p268-five-p284-two.wav,8,RX81,9,0.0,0.0,10.0,92.0152836843556,mgb_normalisation,92.0152836843556,90.34149293193902,9,9.0,True,0.7499337196350098
,2024-07-18 16:33:43,sub_116,3,distance,cathedral,spatial_unmasking,5,185,0,0,_eight_,talker-p284_sex-f_text-_eight_.wav,p284,f,5,32,10.0,7.0,RX81,6,0.0,0.0,7.0,79.341492931939,babble-reversed_n13_p307-nine-p229-one-p256-eight-p248-four-p284-two-p268-three.wav,8,RX81,9,0.0,0.0,10.0,92.0152836843556,mgb_normalisation,92.0152836843556,90.34149293193902,8,8.0,True,1.31241774559021
,2024-07-18 16:33:46,sub_116,3,distance,cathedral,spatial_unmasking,5,186,0,0,_three_,talker-p284_sex-f_text-_three_.wav,p284,f,5,33,10.0,7.0,RX81,6,0.0,0.0,7.0,78.34149293193902,babble-reversed_n13_p229-one-p318-eight-p256-three-p268-two-p245-five-p248-nine.wav,8,RX81,9,0.0,0.0,10.0,92.0152836843556,mgb_normalisation,92.0152836843556,90.34149293193902,3,3.0,True,0.7593643665313721
,2024-07-18 16:33:50,sub_116,3,distance,cathedral,spatial_unmasking,5,187,0,0,_two_,talker-p284_sex-f_text-_two_.wav,p284,f,5,34,10.0,7.0,RX81,6,0.0,0.0,7.0,78.34149293193902,babble-reversed_n13_p307-five-p229-two-p318-four-p248-three-p245-nine-p268-eight.wav,8,RX81,9,0.0,0.0,10.0,92.0152836843556,mgb_normalisation,92.0152836843556,90.34149293193902,2,2.0,True,0.8124487400054932
,2024-07-18 16:33:53,sub_116,3,distance,cathedral,spatial_unmasking,5,188,0,0,_one_,talker-p284_sex-f_text-_one_.wav,p284,f,5,35,10.0,7.0,RX81,6,0.0,0.0,7.0,77.34149293193902,babble-reversed_n13_p256-three-p318-two-p229-nine-p248-four-p284-one-p268-eight.wav,8,RX81,9,0.0,0.0,10.0,92.0152836843556,mgb_normalisation,92.0152836843556,90.34149293193902,1,4.0,False,1.2499213218688965
,2024-07-18 16:33:57,sub_116,3,distance,cathedral,spatial_unmasking,5,189,0,0,_one_,talker-p284_sex-f_text-_one_.wav,p284,f,5,36,10.0,7.0,RX81,6,0.0,0.0,7.0,78.34149293193902,babble-reversed_n13_p256-five-p307-nine-p318-three-p284-eight-p268-one-p248-two.wav,8,RX81,9,0.0,0.0,10.0,92.0152836843556,mgb_normalisation,92.0152836843556,90.34149293193902,1,8.0,False,1.448685646057129
,2024-07-18 16:34:00,sub_116,3,distance,cathedral,spatial_unmasking,5,190,0,0,_two_,talker-p284_sex-f_text-_two_.wav,p284,f,5,37,10.0,7.0,RX81,6,0.0,0.0,7.0,79.34149293193902,babble-reversed_n13_p318-five-p229-three-p256-four-p268-eight-p248-one-p245-nine.wav,8,RX81,9,0.0,0.0,10.0,92.0152836843556,mgb_normalisation,92.0152836843556,90.34149293193902,2,2.0,True,0.9374620914459229
,2024-07-18 16:34:03,sub_116,3,distance,cathedral,spatial_unmasking,5,191,0,0,_nine_,talker-p284_sex-f_text-_nine_.wav,p284,f,5,38,10.0,7.0,RX81,6,0.0,0.0,7.0,79.341492931939,babble-reversed_n13_p229-three-p256-one-p307-two-p284-eight-p268-five-p248-nine.wav,8,RX81,9,0.0,0.0,10.0,92.0152836843556,mgb_normalisation,92.0152836843556,90.34149293193902,9,9.0,True,0.7499561309814453
,2024-07-18 16:34:06,sub_116,3,distance,cathedral,spatial_unmasking,5,192,0,0,_six_,talker-p284_sex-f_text-_six_.wav,p284,f,5,39,10.0,7.0,RX81,6,0.0,0.0,7.0,78.34149293193902,babble-reversed_n13_p307-nine-p229-one-p256-eight-p248-four-p284-two-p268-three.wav,8,RX81,9,0.0,0.0,10.0,92.0152836843556,mgb_normalisation,92.0152836843556,90.34149293193902,6,6.0,True,0.6978085041046143
,2024-07-18 16:34:10,sub_116,3,distance,cathedral,spatial_unmasking,5,193,0,0,_two_,talker-p284_sex-f_text-_two_.wav,p284,f,5,40,10.0,7.0,RX81,6,0.0,0.0,7.0,78.34149293193902,babble-reversed_n13_p229-one-p318-nine-p256-four-p284-eight-p268-five-p245-two.wav,8,RX81,9,0.0,0.0,10.0,92.0152836843556,mgb_normalisation,92.0152836843556,90.34149293193902,2,2.0,True,0.9999401569366456
,2024-07-18 16:34:13,sub_116,3,distance,cathedral,spatial_unmasking,5,194,0,0,_nine_,talker-p284_sex-f_text-_nine_.wav,p284,f,5,41,10.0,7.0,RX81,6,0.0,0.0,7.0,77.341492931939,babble-reversed_n13_p256-two-p307-five-p318-nine-p248-eight-p245-four-p284-one.wav,8,RX81,9,0.0,0.0,10.0,92.0152836843556,mgb_normalisation,92.0152836843556,90.34149293193902,9,9.0,True,0.8749260902404785
,2024-07-18 16:34:16,sub_116,3,distance,cathedral,spatial_unmasking,5,195,0,0,_eight_,talker-p284_sex-f_text-_eight_.wav,p284,f,5,42,10.0,7.0,RX81,6,0.0,0.0,7.0,77.341492931939,babble-reversed_n13_p229-one-p318-eight-p256-three-p268-two-p245-five-p248-nine.wav,8,RX81,9,0.0,0.0,10.0,92.0152836843556,mgb_normalisation,92.0152836843556,90.34149293193902,8,8.0,True,0.888495683670044
,2024-07-18 16:34:19,sub_116,3,distance,cathedral,spatial_unmasking,5,196,0,0,_eight_,talker-p284_sex-f_text-_eight_.wav,p284,f,5,43,10.0,7.0,RX81,6,0.0,0.0,7.0,76.34149293193902,babble-reversed_n13_p256-three-p318-one-p307-two-p284-nine-p268-four-p245-eight.wav,8,RX81,9,0.0,0.0,10.0,92.0152836843556,mgb_normalisation,92.0152836843556,90.34149293193902,8,9.0,False,0.7499561309814453
,2024-07-18 16:34:22,sub_116,3,distance,cathedral,spatial_unmasking,5,197,0,0,_three_,talker-p284_sex-f_text-_three_.wav,p284,f,5,44,10.0,7.0,RX81,6,0.0,0.0,7.0,77.34149293193903,babble-reversed_n13_p256-four-p229-two-p318-five-p268-one-p248-eight-p245-three.wav,8,RX81,9,0.0,0.0,10.0,92.0152836843556,mgb_normalisation,92.0152836843556,90.34149293193902,3,3.0,True,0.749974250793457
,2024-07-18 16:34:26,sub_116,3,distance,cathedral,spatial_unmasking,5,198,0,0,_eight_,talker-p284_sex-f_text-_eight_.wav,p284,f,5,45,10.0,7.0,RX81,6,0.0,0.0,7.0,77.341492931939,babble-reversed_n13_p256-eight-p318-five-p307-four-p245-three-p268-one-p284-nine.wav,8,RX81,9,0.0,0.0,10.0,92.0152836843556,mgb_normalisation,92.0152836843556,90.34149293193902,8,8.0,True,0.7519543170928955
,2024-07-18 16:35:43,sub_116,3,distance,cathedral,spatial_unmasking,6,199,0,0,_eight_,talker-p284_sex-f_text-_eight_.wav,p284,f,5,1,7.0,7.0,RX81,6,0.0,0.0,7.0,92.341492931939,babble-reversed_n13_p256-three-p318-one-p307-two-p284-nine-p268-four-p245-eight.wav,5,RX81,6,0.0,0.0,7.0,90.34149293193904,mgb_normalisation,90.34149293193902,90.34149293193902,8,8.0,True,1.3748955726623535
,2024-07-18 16:35:47,sub_116,3,distance,cathedral,spatial_unmasking,6,200,0,0,_five_,talker-p284_sex-f_text-_five_.wav,p284,f,5,2,7.0,7.0,RX81,6,0.0,0.0,7.0,88.34149293193902,babble-reversed_n13_p256-eight-p318-five-p307-four-p245-three-p268-one-p284-nine.wav,5,RX81,6,0.0,0.0,7.0,90.341492931939,mgb_normalisation,90.34149293193902,90.34149293193902,5,5.0,True,1.0761995315551758
,2024-07-18 16:35:50,sub_116,3,distance,cathedral,spatial_unmasking,6,201,0,0,_eight_,talker-p284_sex-f_text-_eight_.wav,p284,f,5,3,7.0,7.0,RX81,6,0.0,0.0,7.0,84.341492931939,babble-reversed_n13_p256-two-p307-five-p318-nine-p248-eight-p245-four-p284-one.wav,5,RX81,6,0.0,0.0,7.0,90.34149293193904,mgb_normalisation,90.34149293193902,90.34149293193902,8,8.0,True,1.124953269958496
,2024-07-18 16:35:53,sub_116,3,distance,cathedral,spatial_unmasking,6,202,0,0,_one_,talker-p284_sex-f_text-_one_.wav,p284,f,5,4,7.0,7.0,RX81,6,0.0,0.0,7.0,80.34149293193903,babble-reversed_n13_p256-eight-p318-five-p307-four-p245-three-p268-one-p284-nine.wav,5,RX81,6,0.0,0.0,7.0,90.341492931939,mgb_normalisation,90.34149293193902,90.34149293193902,1,1.0,True,1.0624339580535889
,2024-07-18 16:35:57,sub_116,3,distance,cathedral,spatial_unmasking,6,203,0,0,_three_,talker-p284_sex-f_text-_three_.wav,p284,f,5,5,7.0,7.0,RX81,6,0.0,0.0,7.0,76.34149293193902,babble-reversed_n13_p256-four-p229-eight-p307-five-p248-three-p245-one-p284-two.wav,5,RX81,6,0.0,0.0,7.0,90.341492931939,mgb_normalisation,90.34149293193902,90.34149293193902,3,3.0,True,1.249398708343506
,2024-07-18 16:36:00,sub_116,3,distance,cathedral,spatial_unmasking,6,204,0,0,_three_,talker-p284_sex-f_text-_three_.wav,p284,f,5,6,7.0,7.0,RX81,6,0.0,0.0,7.0,72.34149293193903,babble-reversed_n13_p229-one-p318-eight-p256-three-p268-nine-p248-five-p284-four.wav,5,RX81,6,0.0,0.0,7.0,90.341492931939,mgb_normalisation,90.34149293193902,90.34149293193902,3,3.0,True,1.1874470710754397
,2024-07-18 16:36:04,sub_116,3,distance,cathedral,spatial_unmasking,6,205,0,0,_five_,talker-p284_sex-f_text-_five_.wav,p284,f,5,7,7.0,7.0,RX81,6,0.0,0.0,7.0,68.34149293193902,babble-reversed_n13_p318-five-p256-nine-p307-two-p245-eight-p248-one-p284-four.wav,5,RX81,6,0.0,0.0,7.0,90.34149293193904,mgb_normalisation,90.34149293193902,90.34149293193902,5,1.0,False,1.1874496936798096
,2024-07-18 16:36:09,sub_116,3,distance,cathedral,spatial_unmasking,6,206,0,0,_four_,talker-p284_sex-f_text-_four_.wav,p284,f,5,8,7.0,7.0,RX81,6,0.0,0.0,7.0,70.341492931939,babble-reversed_n13_p229-two-p256-three-p318-eight-p284-five-p268-four-p245-one.wav,5,RX81,6,0.0,0.0,7.0,90.34149293193904,mgb_normalisation,90.34149293193902,90.34149293193902,4,5.0,False,2.4359655380249023
,2024-07-18 16:36:13,sub_116,3,distance,cathedral,spatial_unmasking,6,207,0,0,_four_,talker-p284_sex-f_text-_four_.wav,p284,f,5,9,7.0,7.0,RX81,6,0.0,0.0,7.0,72.341492931939,babble-reversed_n13_p229-one-p318-eight-p256-three-p268-nine-p248-five-p284-four.wav,5,RX81,6,0.0,0.0,7.0,90.341492931939,mgb_normalisation,90.34149293193902,90.34149293193902,4,4.0,True,2.701319932937622
,2024-07-18 16:36:17,sub_116,3,distance,cathedral,spatial_unmasking,6,208,0,0,_one_,talker-p284_sex-f_text-_one_.wav,p284,f,5,10,7.0,7.0,RX81,6,0.0,0.0,7.0,72.34149293193902,babble-reversed_n13_p256-three-p318-one-p307-two-p284-nine-p268-four-p245-eight.wav,5,RX81,6,0.0,0.0,7.0,90.34149293193904,mgb_normalisation,90.34149293193902,90.34149293193902,1,9.0,False,1.5167341232299805
,2024-07-18 16:36:21,sub_116,3,distance,cathedral,spatial_unmasking,6,209,0,0,_nine_,talker-p284_sex-f_text-_nine_.wav,p284,f,5,11,7.0,7.0,RX81,6,0.0,0.0,7.0,74.341492931939,babble-reversed_n13_p229-one-p318-nine-p256-four-p284-eight-p268-five-p245-two.wav,5,RX81,6,0.0,0.0,7.0,90.34149293193904,mgb_normalisation,90.34149293193902,90.34149293193902,9,3.0,False,1.95068907737732
,2024-07-18 16:36:26,sub_116,3,distance,cathedral,spatial_unmasking,6,210,0,0,_six_,talker-p284_sex-f_text-_six_.wav,p284,f,5,12,7.0,7.0,RX81,6,0.0,0.0,7.0,76.34149293193902,babble-reversed_n13_p307-two-p256-four-p318-three-p284-eight-p248-five-p245-nine.wav,5,RX81,6,0.0,0.0,7.0,90.34149293193904,mgb_normalisation,90.34149293193902,90.34149293193902,6,6.0,True,2.6965320110321045
,2024-07-18 16:36:31,sub_116,3,distance,cathedral,spatial_unmasking,6,211,0,0,_six_,talker-p284_sex-f_text-_six_.wav,p284,f,5,13,7.0,7.0,RX81,6,0.0,0.0,7.0,76.34149293193902,babble-reversed_n13_p229-five-p318-two-p307-eight-p268-three-p248-four-p245-one.wav,5,RX81,6,0.0,0.0,7.0,90.34149293193904,mgb_normalisation,90.34149293193902,90.34149293193902,6,6.0,True,1.8123691082000728
,2024-07-18 16:36:35,sub_116,3,distance,cathedral,spatial_unmasking,6,212,0,0,_four_,talker-p284_sex-f_text-_four_.wav,p284,f,5,14,7.0,7.0,RX81,6,0.0,0.0,7.0,74.341492931939,babble-reversed_n13_p318-five-p229-three-p256-four-p268-eight-p248-one-p245-nine.wav,5,RX81,6,0.0,0.0,7.0,90.34149293193904,mgb_normalisation,90.34149293193902,90.34149293193902,4,8.0,False,2.062372922897339
,2024-07-18 16:36:39,sub_116,3,distance,cathedral,spatial_unmasking,6,213,0,0,_six_,talker-p284_sex-f_text-_six_.wav,p284,f,5,15,7.0,7.0,RX81,6,0.0,0.0,7.0,75.34149293193902,babble-reversed_n13_p318-three-p229-one-p256-eight-p245-five-p248-four-p284-nine.wav,5,RX81,6,0.0,0.0,7.0,90.34149293193904,mgb_normalisation,90.34149293193902,90.34149293193902,6,5.0,False,2.1873655319213867
,2024-07-18 16:36:43,sub_116,3,distance,cathedral,spatial_unmasking,6,214,0,0,_six_,talker-p284_sex-f_text-_six_.wav,p284,f,5,16,7.0,7.0,RX81,6,0.0,0.0,7.0,76.34149293193902,babble-reversed_n13_p229-eight-p256-nine-p318-four-p245-three-p268-five-p284-two.wav,5,RX81,6,0.0,0.0,7.0,90.341492931939,mgb_normalisation,90.34149293193902,90.34149293193902,6,6.0,True,1.2528076171875
,2024-07-18 16:36:47,sub_116,3,distance,cathedral,spatial_unmasking,6,215,0,0,_nine_,talker-p284_sex-f_text-_nine_.wav,p284,f,5,17,7.0,7.0,RX81,6,0.0,0.0,7.0,76.34149293193902,babble-reversed_n13_p229-five-p318-three-p307-two-p245-four-p284-nine-p248-eight.wav,5,RX81,6,0.0,0.0,7.0,90.34149293193904,mgb_normalisation,90.34149293193902,90.34149293193902,9,8.0,False,1.8287277221679688
,2024-07-18 16:36:51,sub_116,3,distance,cathedral,spatial_unmasking,6,216,0,0,_two_,talker-p284_sex-f_text-_two_.wav,p284,f,5,18,7.0,7.0,RX81,6,0.0,0.0,7.0,77.34149293193902,babble-reversed_n13_p256-three-p318-two-p229-nine-p248-four-p284-one-p268-eight.wav,5,RX81,6,0.0,0.0,7.0,90.341492931939,mgb_normalisation,90.34149293193902,90.34149293193902,2,1.0,False,1.5645289421081543
,2024-07-18 16:36:55,sub_116,3,distance,cathedral,spatial_unmasking,6,217,0,0,_eight_,talker-p284_sex-f_text-_eight_.wav,p284,f,5,19,7.0,7.0,RX81,6,0.0,0.0,7.0,78.341492931939,babble-reversed_n13_p318-five-p256-nine-p307-two-p245-eight-p248-one-p284-four.wav,5,RX81,6,0.0,0.0,7.0,90.34149293193904,mgb_normalisation,90.34149293193902,90.34149293193902,8,8.0,True,1.8748676776885984
,2024-07-18 16:36:59,sub_116,3,distance,cathedral,spatial_unmasking,6,218,0,0,_nine_,talker-p284_sex-f_text-_nine_.wav,p284,f,5,20,7.0,7.0,RX81,6,0.0,0.0,7.0,78.34149293193902,babble-reversed_n13_p229-two-p256-three-p318-eight-p284-five-p268-four-p245-one.wav,5,RX81,6,0.0,0.0,7.0,90.34149293193904,mgb_normalisation,90.34149293193902,90.34149293193902,9,9.0,True,1.4373915195465088
,2024-07-18 16:37:02,sub_116,3,distance,cathedral,spatial_unmasking,6,219,0,0,_eight_,talker-p284_sex-f_text-_eight_.wav,p284,f,5,21,7.0,7.0,RX81,6,0.0,0.0,7.0,77.341492931939,babble-reversed_n13_p229-three-p256-one-p307-two-p284-eight-p268-five-p248-nine.wav,5,RX81,6,0.0,0.0,7.0,90.34149293193904,mgb_normalisation,90.34149293193902,90.34149293193902,8,8.0,True,1.4360864162445068
,2024-07-18 16:37:06,sub_116,3,distance,cathedral,spatial_unmasking,6,220,0,0,_three_,talker-p284_sex-f_text-_three_.wav,p284,f,5,22,7.0,7.0,RX81,6,0.0,0.0,7.0,77.34149293193903,babble-reversed_n13_p256-five-p307-nine-p318-three-p284-eight-p268-one-p248-two.wav,5,RX81,6,0.0,0.0,7.0,90.34149293193904,mgb_normalisation,90.34149293193902,90.34149293193902,3,9.0,False,1.2507429122924805
,2024-07-18 16:37:09,sub_116,3,distance,cathedral,spatial_unmasking,6,221,0,0,_four_,talker-p284_sex-f_text-_four_.wav,p284,f,5,23,7.0,7.0,RX81,6,0.0,0.0,7.0,78.341492931939,babble-reversed_n13_p229-one-p318-nine-p256-four-p284-eight-p268-five-p245-two.wav,5,RX81,6,0.0,0.0,7.0,90.34149293193904,mgb_normalisation,90.34149293193902,90.34149293193902,4,4.0,True,1.2499237060546875
,2024-07-18 16:37:13,sub_116,3,distance,cathedral,spatial_unmasking,6,222,0,0,_five_,talker-p284_sex-f_text-_five_.wav,p284,f,5,24,7.0,7.0,RX81,6,0.0,0.0,7.0,78.34149293193902,babble-reversed_n13_p318-five-p229-three-p256-four-p268-eight-p248-one-p245-nine.wav,5,RX81,6,0.0,0.0,7.0,90.34149293193904,mgb_normalisation,90.34149293193902,90.34149293193902,5,5.0,True,1.1874277591705322
,2024-07-18 16:37:16,sub_116,3,distance,cathedral,spatial_unmasking,6,223,0,0,_nine_,talker-p284_sex-f_text-_nine_.wav,p284,f,5,25,7.0,7.0,RX81,6,0.0,0.0,7.0,77.341492931939,babble-reversed_n13_p318-three-p307-one-p256-five-p248-nine-p245-two-p284-eight.wav,5,RX81,6,0.0,0.0,7.0,90.34149293193904,mgb_normalisation,90.34149293193902,90.34149293193902,9,8.0,False,1.196636438369751
,2024-07-18 16:37:20,sub_116,3,distance,cathedral,spatial_unmasking,6,224,0,0,_five_,talker-p284_sex-f_text-_five_.wav,p284,f,5,26,7.0,7.0,RX81,6,0.0,0.0,7.0,78.34149293193902,babble-reversed_n13_p256-four-p229-eight-p307-five-p248-three-p245-one-p284-two.wav,5,RX81,6,0.0,0.0,7.0,90.341492931939,mgb_normalisation,90.34149293193902,90.34149293193902,5,9.0,False,1.1249287128448486
,2024-07-18 16:37:23,sub_116,3,distance,cathedral,spatial_unmasking,6,225,0,0,_four_,talker-p284_sex-f_text-_four_.wav,p284,f,5,27,7.0,7.0,RX81,6,0.0,0.0,7.0,79.341492931939,babble-reversed_n13_p256-eight-p318-two-p307-five-p245-four-p268-nine-p284-one.wav,5,RX81,6,0.0,0.0,7.0,90.34149293193904,mgb_normalisation,90.34149293193902,90.34149293193902,4,8.0,False,1.3124184608459473
,2024-07-18 16:37:27,sub_116,3,distance,cathedral,spatial_unmasking,6,226,0,0,_eight_,talker-p284_sex-f_text-_eight_.wav,p284,f,5,28,7.0,7.0,RX81,6,0.0,0.0,7.0,80.341492931939,babble-reversed_n13_p307-nine-p318-two-p256-one-p245-three-p268-four-p248-eight.wav,5,RX81,6,0.0,0.0,7.0,90.341492931939,mgb_normalisation,90.34149293193902,90.34149293193902,8,8.0,True,1.187352180480957
,2024-07-18 16:37:30,sub_116,3,distance,cathedral,spatial_unmasking,6,227,0,0,_four_,talker-p284_sex-f_text-_four_.wav,p284,f,5,29,7.0,7.0,RX81,6,0.0,0.0,7.0,80.341492931939,babble-reversed_n13_p256-five-p307-nine-p318-three-p284-eight-p268-one-p248-two.wav,5,RX81,6,0.0,0.0,7.0,90.34149293193904,mgb_normalisation,90.34149293193902,90.34149293193902,4,9.0,False,1.187429428100586
,2024-07-18 16:37:34,sub_116,3,distance,cathedral,spatial_unmasking,6,228,0,0,_eight_,talker-p284_sex-f_text-_eight_.wav,p284,f,5,30,7.0,7.0,RX81,6,0.0,0.0,7.0,81.341492931939,babble-reversed_n13_p307-four-p318-three-p256-eight-p284-two-p245-nine-p248-five.wav,5,RX81,6,0.0,0.0,7.0,90.341492931939,mgb_normalisation,90.34149293193902,90.34149293193902,8,8.0,True,1.187429904937744
,2024-07-18 16:37:37,sub_116,3,distance,cathedral,spatial_unmasking,6,229,0,0,_four_,talker-p284_sex-f_text-_four_.wav,p284,f,5,31,7.0,7.0,RX81,6,0.0,0.0,7.0,81.341492931939,babble-reversed_n13_p318-five-p256-nine-p307-eight-p248-two-p245-four-p284-three.wav,5,RX81,6,0.0,0.0,7.0,90.34149293193904,mgb_normalisation,90.34149293193902,90.34149293193902,4,3.0,False,1.5134546756744385
,2024-07-18 16:37:41,sub_116,3,distance,cathedral,spatial_unmasking,6,230,0,0,_five_,talker-p284_sex-f_text-_five_.wav,p284,f,5,32,7.0,7.0,RX81,6,0.0,0.0,7.0,82.34149293193902,babble-reversed_n13_p307-one-p318-five-p229-four-p268-eight-p284-two-p245-three.wav,5,RX81,6,0.0,0.0,7.0,90.341492931939,mgb_normalisation,90.34149293193902,90.34149293193902,5,5.0,True,1.1870627403259275
,2024-07-18 16:37:45,sub_116,3,distance,cathedral,spatial_unmasking,6,231,0,0,_four_,talker-p284_sex-f_text-_four_.wav,p284,f,5,33,7.0,7.0,RX81,6,0.0,0.0,7.0,82.341492931939,babble-reversed_n13_p229-one-p318-eight-p256-three-p268-nine-p248-five-p284-four.wav,5,RX81,6,0.0,0.0,7.0,90.341492931939,mgb_normalisation,90.34149293193902,90.34149293193902,4,8.0,False,1.6873986721038818
,2024-07-18 16:37:48,sub_116,3,distance,cathedral,spatial_unmasking,6,232,0,0,_one_,talker-p284_sex-f_text-_one_.wav,p284,f,5,34,7.0,7.0,RX81,6,0.0,0.0,7.0,83.34149293193902,babble-reversed_n13_p229-nine-p318-one-p307-two-p248-eight-p245-five-p284-four.wav,5,RX81,6,0.0,0.0,7.0,90.34149293193904,mgb_normalisation,90.34149293193902,90.34149293193902,1,1.0,True,1.249925136566162
,2024-07-18 16:37:52,sub_116,3,distance,cathedral,spatial_unmasking,6,233,0,0,_five_,talker-p284_sex-f_text-_five_.wav,p284,f,5,35,7.0,7.0,RX81,6,0.0,0.0,7.0,83.34149293193902,babble-reversed_n13_p307-two-p256-four-p318-three-p284-eight-p248-five-p245-nine.wav,5,RX81,6,0.0,0.0,7.0,90.34149293193904,mgb_normalisation,90.34149293193902,90.34149293193902,5,5.0,True,1.2042012214660645
,2024-07-18 16:37:55,sub_116,3,distance,cathedral,spatial_unmasking,6,234,0,0,_eight_,talker-p284_sex-f_text-_eight_.wav,p284,f,5,36,7.0,7.0,RX81,6,0.0,0.0,7.0,82.341492931939,babble-reversed_n13_p229-five-p318-two-p307-eight-p268-three-p248-four-p245-one.wav,5,RX81,6,0.0,0.0,7.0,90.34149293193904,mgb_normalisation,90.34149293193902,90.34149293193902,8,8.0,True,1.312441110610962
,2024-07-18 16:37:59,sub_116,3,distance,cathedral,spatial_unmasking,6,235,0,0,_six_,talker-p284_sex-f_text-_six_.wav,p284,f,5,37,7.0,7.0,RX81,6,0.0,0.0,7.0,82.34149293193902,babble-reversed_n13_p318-five-p256-nine-p307-two-p245-eight-p248-one-p284-four.wav,5,RX81,6,0.0,0.0,7.0,90.34149293193904,mgb_normalisation,90.34149293193902,90.34149293193902,6,6.0,True,1.312422513961792
,2024-07-18 16:38:02,sub_116,3,distance,cathedral,spatial_unmasking,6,236,0,0,_nine_,talker-p284_sex-f_text-_nine_.wav,p284,f,5,38,7.0,7.0,RX81,6,0.0,0.0,7.0,81.341492931939,babble-reversed_n13_p229-one-p318-eight-p256-three-p268-nine-p248-five-p284-four.wav,5,RX81,6,0.0,0.0,7.0,90.341492931939,mgb_normalisation,90.34149293193902,90.34149293193902,9,9.0,True,1.134047269821167
,2024-07-18 16:38:06,sub_116,3,distance,cathedral,spatial_unmasking,6,237,0,0,_nine_,talker-p284_sex-f_text-_nine_.wav,p284,f,5,39,7.0,7.0,RX81,6,0.0,0.0,7.0,81.341492931939,babble-reversed_n13_p318-nine-p307-eight-p229-two-p284-one-p248-three-p245-five.wav,5,RX81,6,0.0,0.0,7.0,90.34149293193904,mgb_normalisation,90.34149293193902,90.34149293193902,9,9.0,True,0.9999382495880128
,2024-07-18 16:38:09,sub_116,3,distance,cathedral,spatial_unmasking,6,238,0,0,_three_,talker-p284_sex-f_text-_three_.wav,p284,f,5,40,7.0,7.0,RX81,6,0.0,0.0,7.0,80.34149293193903,babble-reversed_n13_p229-one-p318-eight-p256-three-p268-two-p245-five-p248-nine.wav,5,RX81,6,0.0,0.0,7.0,90.341492931939,mgb_normalisation,90.34149293193902,90.34149293193902,3,3.0,True,1.1249306201934814
,2024-07-18 16:38:12,sub_116,3,distance,cathedral,spatial_unmasking,6,239,0,0,_five_,talker-p284_sex-f_text-_five_.wav,p284,f,5,41,7.0,7.0,RX81,6,0.0,0.0,7.0,80.34149293193903,babble-reversed_n13_p229-two-p256-three-p318-eight-p284-five-p268-four-p245-one.wav,5,RX81,6,0.0,0.0,7.0,90.34149293193904,mgb_normalisation,90.34149293193902,90.34149293193902,5,5.0,True,1.0713074207305908
,2024-07-18 16:38:16,sub_116,3,distance,cathedral,spatial_unmasking,6,240,0,0,_four_,talker-p284_sex-f_text-_four_.wav,p284,f,5,42,7.0,7.0,RX81,6,0.0,0.0,7.0,79.341492931939,babble-reversed_n13_p318-five-p256-nine-p307-two-p245-eight-p248-one-p284-four.wav,5,RX81,6,0.0,0.0,7.0,90.34149293193904,mgb_normalisation,90.34149293193902,90.34149293193902,4,4.0,True,1.0624346733093262
,2024-07-18 16:38:19,sub_116,3,distance,cathedral,spatial_unmasking,6,241,0,0,_eight_,talker-p284_sex-f_text-_eight_.wav,p284,f,5,43,7.0,7.0,RX81,6,0.0,0.0,7.0,79.341492931939,babble-reversed_n13_p229-nine-p318-one-p307-two-p248-eight-p245-five-p284-four.wav,5,RX81,6,0.0,0.0,7.0,90.34149293193904,mgb_normalisation,90.34149293193902,90.34149293193902,8,8.0,True,0.9999384880065918
,2024-07-18 16:38:22,sub_116,3,distance,cathedral,spatial_unmasking,6,242,0,0,_two_,talker-p284_sex-f_text-_two_.wav,p284,f,5,44,7.0,7.0,RX81,6,0.0,0.0,7.0,78.34149293193902,babble-reversed_n13_p307-nine-p229-one-p256-eight-p248-four-p284-two-p268-three.wav,5,RX81,6,0.0,0.0,7.0,90.34149293193904,mgb_normalisation,90.34149293193902,90.34149293193902,2,3.0,False,1.0087213516235352
,2024-07-18 16:38:26,sub_116,3,distance,cathedral,spatial_unmasking,6,243,0,0,_six_,talker-p284_sex-f_text-_six_.wav,p284,f,5,45,7.0,7.0,RX81,6,0.0,0.0,7.0,79.341492931939,babble-reversed_n13_p229-five-p318-three-p307-two-p245-four-p284-nine-p248-eight.wav,5,RX81,6,0.0,0.0,7.0,90.34149293193904,mgb_normalisation,90.34149293193902,90.34149293193902,6,6.0,True,1.1874258518218994
,2024-07-18 16:38:29,sub_116,3,distance,cathedral,spatial_unmasking,6,244,0,0,_three_,talker-p284_sex-f_text-_three_.wav,p284,f,5,46,7.0,7.0,RX81,6,0.0,0.0,7.0,79.34149293193903,babble-reversed_n13_p256-eight-p318-five-p307-four-p245-three-p268-one-p284-nine.wav,5,RX81,6,0.0,0.0,7.0,90.341492931939,mgb_normalisation,90.34149293193902,90.34149293193902,3,3.0,True,1.0624570846557615
,2024-07-18 16:38:32,sub_116,3,distance,cathedral,spatial_unmasking,6,245,0,0,_three_,talker-p284_sex-f_text-_three_.wav,p284,f,5,47,7.0,7.0,RX81,6,0.0,0.0,7.0,78.34149293193902,babble-reversed_n13_p307-four-p318-three-p256-eight-p284-two-p245-nine-p248-five.wav,5,RX81,6,0.0,0.0,7.0,90.341492931939,mgb_normalisation,90.34149293193902,90.34149293193902,3,3.0,True,1.135303258895874
,2024-07-18 16:38:36,sub_116,3,distance,cathedral,spatial_unmasking,6,246,0,0,_five_,talker-p284_sex-f_text-_five_.wav,p284,f,5,48,7.0,7.0,RX81,6,0.0,0.0,7.0,78.34149293193902,babble-reversed_n13_p229-five-p318-two-p307-eight-p268-three-p248-four-p245-one.wav,5,RX81,6,0.0,0.0,7.0,90.34149293193904,mgb_normalisation,90.34149293193902,90.34149293193902,5,5.0,True,0.9999587535858154
,2024-07-18 16:38:39,sub_116,3,distance,cathedral,spatial_unmasking,6,247,0,0,_five_,talker-p284_sex-f_text-_five_.wav,p284,f,5,49,7.0,7.0,RX81,6,0.0,0.0,7.0,77.34149293193902,babble-reversed_n13_p256-eight-p229-three-p307-nine-p245-five-p248-four-p268-two.wav,5,RX81,6,0.0,0.0,7.0,90.341492931939,mgb_normalisation,90.34149293193902,90.34149293193902,5,5.0,True,0.99993634223938
,2024-07-18 16:38:43,sub_116,3,distance,cathedral,spatial_unmasking,6,248,0,0,_six_,talker-p284_sex-f_text-_six_.wav,p284,f,5,50,7.0,7.0,RX81,6,0.0,0.0,7.0,77.341492931939,babble-reversed_n13_p318-three-p229-one-p256-eight-p245-five-p248-four-p284-nine.wav,5,RX81,6,0.0,0.0,7.0,90.34149293193904,mgb_normalisation,90.34149293193902,90.34149293193902,6,4.0,False,1.9501111507415767
,2024-07-18 16:38:46,sub_116,3,distance,cathedral,spatial_unmasking,6,249,0,0,_six_,talker-p284_sex-f_text-_six_.wav,p284,f,5,51,7.0,7.0,RX81,6,0.0,0.0,7.0,78.34149293193902,babble-reversed_n13_p229-two-p307-five-p318-four-p284-one-p248-nine-p268-eight.wav,5,RX81,6,0.0,0.0,7.0,90.34149293193904,mgb_normalisation,90.34149293193902,90.34149293193902,6,5.0,False,1.1333355903625488
,2024-07-18 16:38:50,sub_116,3,distance,cathedral,spatial_unmasking,6,250,0,0,_three_,talker-p284_sex-f_text-_three_.wav,p284,f,5,52,7.0,7.0,RX81,6,0.0,0.0,7.0,79.34149293193903,babble-reversed_n13_p256-nine-p307-four-p229-one-p284-three-p248-two-p245-five.wav,5,RX81,6,0.0,0.0,7.0,90.34149293193904,mgb_normalisation,90.34149293193902,90.34149293193902,3,3.0,True,1.1874022483825684
,2024-07-18 16:38:53,sub_116,3,distance,cathedral,spatial_unmasking,6,251,0,0,_one_,talker-p284_sex-f_text-_one_.wav,p284,f,5,53,7.0,7.0,RX81,6,0.0,0.0,7.0,79.34149293193902,babble-reversed_n13_p229-one-p318-eight-p256-three-p268-two-p245-five-p248-nine.wav,5,RX81,6,0.0,0.0,7.0,90.341492931939,mgb_normalisation,90.34149293193902,90.34149293193902,1,1.0,True,1.0624301433563232
,2024-07-18 16:40:43,sub_116,3,distance,cathedral,spatial_unmasking,7,252,0,0,_one_,talker-p284_sex-f_text-_one_.wav,p284,f,5,1,2.0,7.0,RX81,6,0.0,0.0,7.0,92.34149293193902,babble-reversed_n13_p229-three-p256-nine-p318-five-p248-one-p245-eight-p284-two.wav,0,RX81,1,0.0,0.0,2.0,84.40078082039426,mgb_normalisation,84.40078082039426,90.34149293193902,1,1.0,True,1.3085191249847412
,2024-07-18 16:40:46,sub_116,3,distance,cathedral,spatial_unmasking,7,253,0,0,_six_,talker-p284_sex-f_text-_six_.wav,p284,f,5,2,2.0,7.0,RX81,6,0.0,0.0,7.0,88.34149293193902,babble-reversed_n13_p307-nine-p229-one-p256-eight-p248-four-p284-two-p268-three.wav,0,RX81,1,0.0,0.0,2.0,84.40078082039426,mgb_normalisation,84.40078082039426,90.34149293193902,6,6.0,True,1.2528400421142578
,2024-07-18 16:40:55,sub_116,3,distance,cathedral,spatial_unmasking,7,254,0,0,_one_,talker-p284_sex-f_text-_one_.wav,p284,f,5,3,2.0,7.0,RX81,6,0.0,0.0,7.0,84.341492931939,babble-reversed_n13_p256-eight-p318-five-p307-four-p245-three-p268-one-p284-nine.wav,0,RX81,1,0.0,0.0,2.0,84.40078082039426,mgb_normalisation,84.40078082039426,90.34149293193902,1,1.0,True,6.874395370483398
,2024-07-18 16:40:59,sub_116,3,distance,cathedral,spatial_unmasking,7,255,0,0,_three_,talker-p284_sex-f_text-_three_.wav,p284,f,5,4,2.0,7.0,RX81,6,0.0,0.0,7.0,80.34149293193903,babble-reversed_n13_p318-five-p256-nine-p307-eight-p248-two-p245-four-p284-three.wav,0,RX81,1,0.0,0.0,2.0,84.40078082039426,mgb_normalisation,84.40078082039426,90.34149293193902,3,3.0,True,1.3749103546142578
,2024-07-18 16:41:03,sub_116,3,distance,cathedral,spatial_unmasking,7,256,0,0,_two_,talker-p284_sex-f_text-_two_.wav,p284,f,5,5,2.0,7.0,RX81,6,0.0,0.0,7.0,76.34149293193902,babble-reversed_n13_p229-two-p318-eight-p256-three-p268-one-p248-nine-p284-five.wav,0,RX81,1,0.0,0.0,2.0,84.40078082039426,mgb_normalisation,84.40078082039426,90.34149293193902,2,3.0,False,1.3194310665130615
,2024-07-18 16:41:07,sub_116,3,distance,cathedral,spatial_unmasking,7,257,0,0,_one_,talker-p284_sex-f_text-_one_.wav,p284,f,5,6,2.0,7.0,RX81,6,0.0,0.0,7.0,78.34149293193902,babble-reversed_n13_p307-one-p318-five-p229-four-p268-eight-p284-two-p245-three.wav,0,RX81,1,0.0,0.0,2.0,84.40078082039426,mgb_normalisation,84.40078082039426,90.34149293193902,1,4.0,False,1.3234920501708984
,2024-07-18 16:41:10,sub_116,3,distance,cathedral,spatial_unmasking,7,258,0,0,_eight_,talker-p284_sex-f_text-_eight_.wav,p284,f,5,7,2.0,7.0,RX81,6,0.0,0.0,7.0,80.341492931939,babble-reversed_n13_p256-four-p307-eight-p318-two-p248-three-p284-nine-p268-one.wav,0,RX81,1,0.0,0.0,2.0,84.40078082039427,mgb_normalisation,84.40078082039426,90.34149293193902,8,8.0,True,1.2499184608459473
,2024-07-18 16:41:14,sub_116,3,distance,cathedral,spatial_unmasking,7,259,0,0,_six_,talker-p284_sex-f_text-_six_.wav,p284,f,5,8,2.0,7.0,RX81,6,0.0,0.0,7.0,80.341492931939,babble-reversed_n13_p256-eight-p318-five-p307-four-p245-three-p268-one-p284-nine.wav,0,RX81,1,0.0,0.0,2.0,84.40078082039426,mgb_normalisation,84.40078082039426,90.34149293193902,6,6.0,True,1.24992036819458
