,event_id,timestamp,subject_id,session_index,plane,setup,task,block,trial_index,stim_type,headpose_offset_azi,headpose_offset_ele,stim_filename,stim_level,mgb_level,fluctuation,speaker_id,speaker_proc,speaker_chan,stim_azi,stim_ele,stim_dist,resp_azi,resp_ele,resp_dist,reaction_time
0,,2024-07-17 15:10:06,sub_113,3,distance,cathedral,localisation_accuracy,1,0,babble,,,babble-reversed_n13_p307-two-p256-four-p318-three-p284-eight-p248-five-p245-nine.wav,86.48927751048228,30,0.42054256260450973,1,RX81,2,0.0,0.0,3.0,0,0,5.15542521994135,5.515148401260376
0,,2024-07-17 15:10:12,sub_113,3,distance,cathedral,localisation_accuracy,1,1,babble,,,babble-reversed_n13_p229-one-p318-nine-p256-four-p284-eight-p268-five-p245-two.wav,92.76283866624107,30,-0.3316136811097615,10,RX81,11,0.0,0.0,12.0,0,0,9.480938416422289,4.625829458236694
0,,2024-07-17 15:10:16,sub_113,3,distance,cathedral,localisation_accuracy,1,2,babble,,,babble-reversed_n13_p256-three-p318-one-p307-two-p284-nine-p268-four-p245-eight.wav,88.81828774994419,30,-0.4675415373563583,3,RX81,4,0.0,0.0,5.0,0,0,8.674486803519063,2.827932596206665
0,,2024-07-17 15:10:20,sub_113,3,distance,cathedral,localisation_accuracy,1,3,babble,,,babble-reversed_n13_p318-five-p256-nine-p307-two-p245-eight-p248-one-p284-four.wav,90.15963706570439,30,-0.25887925652984645,5,RX81,6,0.0,0.0,7.0,0,0,7.281524926686217,2.9931015968322754
0,,2024-07-17 15:10:24,sub_113,3,distance,cathedral,localisation_accuracy,1,4,babble,,,babble-reversed_n13_p318-nine-p307-eight-p229-two-p284-one-p248-three-p245-five.wav,91.90404916555764,30,0.45254115657862004,6,RX81,7,0.0,0.0,8.0,0,0,8.733137829912025,2.5622756481170654
0,,2024-07-17 15:10:29,sub_113,3,distance,cathedral,localisation_accuracy,1,5,babble,,,babble-reversed_n13_p318-three-p307-one-p256-five-p248-nine-p245-two-p284-eight.wav,87.2703493347408,30,-0.4314351045379261,2,RX81,3,0.0,0.0,4.0,0,0,9.319648093841643,3.998096466064453
0,,2024-07-17 15:10:33,sub_113,3,distance,cathedral,localisation_accuracy,1,6,babble,,,babble-reversed_n13_p229-three-p307-one-p318-two-p245-eight-p268-five-p284-four.wav,84.46173793357144,30,0.09075174434873656,0,RX81,1,0.0,0.0,2.0,0,0,5.111436950146628,3.093196392059326
0,,2024-07-17 15:10:37,sub_113,3,distance,cathedral,localisation_accuracy,1,7,babble,,,babble-reversed_n13_p229-three-p256-nine-p318-five-p248-one-p245-eight-p284-two.wav,91.8333282865845,30,0.13170754668368745,7,RX81,8,0.0,0.0,9.0,0,0,9.730205278592376,2.671626091003418
0,,2024-07-17 15:10:41,sub_113,3,distance,cathedral,localisation_accuracy,1,8,babble,,,babble-reversed_n13_p318-five-p256-nine-p307-eight-p248-two-p245-four-p284-three.wav,92.02856308663215,30,0.03158490012590709,9,RX81,10,0.0,0.0,11.0,0,0,11.196480938416423,2.6293535232543945
0,,2024-07-17 15:10:44,sub_113,3,distance,cathedral,localisation_accuracy,1,9,babble,,,babble-reversed_n13_p318-three-p307-one-p256-five-p248-nine-p245-two-p284-eight.wav,89.48151956116929,30,0.22494891113657378,4,RX81,5,0.0,0.0,6.0,0,0,10.126099706744869,2.1404294967651367
0,,2024-07-17 15:10:47,sub_113,3,distance,cathedral,localisation_accuracy,1,10,babble,,,babble-reversed_n13_p307-five-p229-three-p318-nine-p245-four-p268-eight-p284-two.wav,91.75427835014601,30,-0.3664238290881915,8,RX81,9,0.0,0.0,10.0,0,0,11.020527859237538,1.7637619972229004
0,,2024-07-17 15:10:50,sub_113,3,distance,cathedral,localisation_accuracy,1,11,babble,,,babble-reversed_n13_p229-two-p307-five-p318-four-p284-one-p248-nine-p268-eight.wav,87.36885025217106,30,-0.2905355798157502,2,RX81,3,0.0,0.0,4.0,0,0,7.340175953079179,2.5780422687530518
0,,2024-07-17 15:10:54,sub_113,3,distance,cathedral,localisation_accuracy,1,12,babble,,,babble-reversed_n13_p229-five-p256-one-p318-three-p248-nine-p268-four-p284-eight.wav,84.34542096237465,30,-0.08218148253810109,0,RX81,1,0.0,0.0,2.0,0,0,4.524926686217009,2.515401840209961
0,,2024-07-17 15:10:57,sub_113,3,distance,cathedral,localisation_accuracy,1,13,babble,,,babble-reversed_n13_p307-one-p318-five-p229-four-p268-eight-p284-two-p245-three.wav,88.93129538154815,30,-0.3086587889725133,3,RX81,4,0.0,0.0,5.0,0,0,6.592375366568916,2.1561293601989746
0,,2024-07-17 15:11:01,sub_113,3,distance,cathedral,localisation_accuracy,1,14,babble,,,babble-reversed_n13_p256-four-p229-two-p318-five-p268-one-p248-eight-p245-three.wav,90.53902625616806,30,0.2837505550289424,5,RX81,6,0.0,0.0,7.0,0,0,10.038123167155426,2.6414835453033447
0,,2024-07-17 15:11:05,sub_113,3,distance,cathedral,localisation_accuracy,1,15,babble,,,babble-reversed_n13_p229-three-p256-one-p307-two-p284-eight-p268-five-p248-nine.wav,86.12582996385754,30,-0.11395201703718227,1,RX81,2,0.0,0.0,3.0,0,0,3.777126099706745,2.834766149520874
0,,2024-07-17 15:11:08,sub_113,3,distance,cathedral,localisation_accuracy,1,16,babble,,,babble-reversed_n13_p307-nine-p318-two-p256-one-p245-three-p268-four-p248-eight.wav,91.43477091177115,30,-0.416271106815032,7,RX81,8,0.0,0.0,9.0,0,0,6.357771260997067,2.093536615371704
0,,2024-07-17 15:11:12,sub_113,3,distance,cathedral,localisation_accuracy,1,17,babble,,,babble-reversed_n13_p256-five-p229-one-p318-three-p248-nine-p284-eight-p268-two.wav,93.10642770732954,30,0.1499478524874771,10,RX81,11,0.0,0.0,12.0,0,0,10.18475073313783,2.857710123062134
0,,2024-07-17 15:11:15,sub_113,3,distance,cathedral,localisation_accuracy,1,18,babble,,,babble-reversed_n13_p229-nine-p307-five-p256-two-p248-three-p245-one-p268-eight.wav,91.80359752673172,30,0.30754861018297397,6,RX81,7,0.0,0.0,8.0,0,0,9.099706744868035,1.8557190895080566
0,,2024-07-17 15:11:20,sub_113,3,distance,cathedral,localisation_accuracy,1,19,babble,,,babble-reversed_n13_p307-five-p229-three-p318-nine-p245-four-p268-eight-p284-two.wav,89.24587117274521,30,-0.09041198560016905,4,RX81,5,0.0,0.0,6.0,0,0,8.102639296187684,2.7030751705169678
0,,2024-07-17 15:11:25,sub_113,3,distance,cathedral,localisation_accuracy,1,20,babble,,,babble-reversed_n13_p318-five-p229-four-p256-eight-p284-one-p245-three-p248-two.wav,91.74253980607538,30,-0.3827979208490776,8,RX81,9,0.0,0.0,10.0,0,0,10.551319648093843,2.1404759883880615
0,,2024-07-17 15:11:28,sub_113,3,distance,cathedral,localisation_accuracy,1,21,babble,,,babble-reversed_n13_p307-four-p318-three-p256-eight-p284-two-p245-nine-p248-five.wav,91.65566396920059,30,-0.4886401635474117,9,RX81,10,0.0,0.0,11.0,0,0,11.577712609970675,2.015486240386963
0,,2024-07-17 15:11:31,sub_113,3,distance,cathedral,localisation_accuracy,1,22,babble,,,babble-reversed_n13_p229-three-p307-one-p318-two-p245-eight-p268-five-p284-four.wav,93.25966129954332,30,0.36722713388130934,10,RX81,11,0.0,0.0,12.0,0,0,11.592375366568916,1.8580255508422852
0,,2024-07-17 15:11:36,sub_113,3,distance,cathedral,localisation_accuracy,1,23,babble,,,babble-reversed_n13_p307-two-p256-four-p318-three-p284-eight-p248-five-p245-nine.wav,92.34365555217673,30,0.4783067155410141,9,RX81,10,0.0,0.0,11.0,0,0,11.929618768328446,3.7219202518463135
0,,2024-07-17 15:11:41,sub_113,3,distance,cathedral,localisation_accuracy,1,24,babble,,,babble-reversed_n13_p229-five-p318-three-p307-two-p245-four-p284-nine-p248-eight.wav,92.1051298292535,30,0.12717992709186365,8,RX81,9,0.0,0.0,10.0,0,0,10.815249266862171,1.7395312786102295
0,,2024-07-17 15:11:45,sub_113,3,distance,cathedral,localisation_accuracy,1,25,babble,,,babble-reversed_n13_p256-four-p229-two-p318-five-p268-one-p248-eight-p245-three.wav,84.31271614309297,30,-0.13062582920484977,0,RX81,1,0.0,0.0,2.0,0,0,0.49266862170087977,3.1028244495391846
0,,2024-07-17 15:11:50,sub_113,3,distance,cathedral,localisation_accuracy,1,26,babble,,,babble-reversed_n13_p256-eight-p318-five-p307-four-p245-three-p268-one-p284-nine.wav,91.50587318962053,30,-0.11814604384207661,6,RX81,7,0.0,0.0,8.0,0,0,8.381231671554254,3.9506397247314453
0,,2024-07-17 15:11:54,sub_113,3,distance,cathedral,localisation_accuracy,1,27,babble,,,babble-reversed_n13_p307-one-p318-five-p229-four-p268-eight-p284-two-p245-three.wav,90.20998562484945,30,-0.18743047833507254,5,RX81,6,0.0,0.0,7.0,0,0,7.765395894428153,2.5793542861938477
0,,2024-07-17 15:11:58,sub_113,3,distance,cathedral,localisation_accuracy,1,28,babble,,,babble-reversed_n13_p229-five-p256-one-p318-three-p248-nine-p268-four-p284-eight.wav,89.27457953961951,30,-0.05216917592454706,4,RX81,5,0.0,0.0,6.0,0,0,9.319648093841643,3.3445487022399902
0,,2024-07-17 15:12:03,sub_113,3,distance,cathedral,localisation_accuracy,1,29,babble,,,babble-reversed_n13_p307-four-p318-three-p256-eight-p284-two-p245-nine-p248-five.wav,92.08843462963637,30,0.4877705303824763,7,RX81,8,0.0,0.0,9.0,0,0,7.384164222873901,3.249699115753174
0,,2024-07-17 15:12:06,sub_113,3,distance,cathedral,localisation_accuracy,1,30,babble,,,babble-reversed_n13_p229-five-p256-three-p318-nine-p248-two-p284-four-p268-one.wav,87.61488182415862,30,0.0643373986306458,2,RX81,3,0.0,0.0,4.0,0,0,7.765395894428153,2.3589911460876465
0,,2024-07-17 15:12:09,sub_113,3,distance,cathedral,localisation_accuracy,1,31,babble,,,babble-reversed_n13_p256-eight-p229-three-p307-nine-p245-five-p248-four-p268-two.wav,89.38638443682855,30,0.3398716395155609,3,RX81,4,0.0,0.0,5.0,0,0,6.636363636363637,2.171724796295166
0,,2024-07-17 15:12:13,sub_113,3,distance,cathedral,localisation_accuracy,1,32,babble,,,babble-reversed_n13_p256-two-p307-five-p318-nine-p248-eight-p245-four-p284-one.wav,86.11559241335755,30,-0.12887083041761094,1,RX81,2,0.0,0.0,3.0,0,0,4.187683284457479,2.217318058013916
0,,2024-07-17 15:12:17,sub_113,3,distance,cathedral,localisation_accuracy,1,33,babble,,,babble-reversed_n13_p318-four-p256-five-p229-three-p284-one-p245-eight-p248-nine.wav,89.49377934768441,30,0.24144649538697016,4,RX81,5,0.0,0.0,6.0,0,0,8.454545454545455,2.985368251800537
0,,2024-07-17 15:12:20,sub_113,3,distance,cathedral,localisation_accuracy,1,34,babble,,,babble-reversed_n13_p318-nine-p256-five-p307-eight-p268-three-p248-one-p245-four.wav,87.28546482164305,30,-0.40985681000759866,2,RX81,3,0.0,0.0,4.0,0,0,6.196480938416423,2.3405442237854004
0,,2024-07-17 15:12:24,sub_113,3,distance,cathedral,localisation_accuracy,1,35,babble,,,babble-reversed_n13_p229-three-p307-one-p318-two-p245-eight-p268-five-p284-four.wav,84.11235946392796,30,-0.425698641382665,0,RX81,1,0.0,0.0,2.0,0,0,2.266862170087977,3.140383005142212
0,,2024-07-17 15:12:29,sub_113,3,distance,cathedral,localisation_accuracy,1,36,babble,,,babble-reversed_n13_p318-three-p307-one-p256-five-p248-nine-p245-two-p284-eight.wav,91.87504871360457,30,-0.18368175738847625,9,RX81,10,0.0,0.0,11.0,0,0,8.30791788856305,3.216636896133423
0,,2024-07-17 15:12:33,sub_113,3,distance,cathedral,localisation_accuracy,1,37,babble,,,babble-reversed_n13_p229-five-p318-three-p307-two-p245-four-p284-nine-p248-eight.wav,86.4477725884706,30,0.35902413690533286,1,RX81,2,0.0,0.0,3.0,0,0,5.199413489736071,2.7813103199005127
0,,2024-07-17 15:12:39,sub_113,3,distance,cathedral,localisation_accuracy,1,38,babble,,,babble-reversed_n13_p229-three-p256-one-p307-two-p284-eight-p268-five-p248-nine.wav,88.862052830297,30,-0.40611127526542423,3,RX81,4,0.0,0.0,5.0,0,0,9.319648093841643,4.906922340393066
0,,2024-07-17 15:12:42,sub_113,3,distance,cathedral,localisation_accuracy,1,39,babble,,,babble-reversed_n13_p229-five-p318-three-p307-two-p245-four-p284-nine-p248-eight.wav,92.30528282752454,30,0.4124443056048065,8,RX81,9,0.0,0.0,10.0,0,0,10.082111436950147,2.358834981918335
0,,2024-07-17 15:12:46,sub_113,3,distance,cathedral,localisation_accuracy,1,40,babble,,,babble-reversed_n13_p229-one-p318-eight-p256-three-p268-nine-p248-five-p284-four.wav,91.82695403658252,30,0.3411998301663359,6,RX81,7,0.0,0.0,8.0,0,0,10.067448680351907,2.558699607849121
0,,2024-07-17 15:12:49,sub_113,3,distance,cathedral,localisation_accuracy,1,41,babble,,,babble-reversed_n13_p318-one-p307-two-p256-eight-p284-three-p248-five-p245-four.wav,90.28824379418904,30,-0.07603476019590216,5,RX81,6,0.0,0.0,7.0,0,0,9.114369501466276,2.3904547691345215
0,,2024-07-17 15:12:54,sub_113,3,distance,cathedral,localisation_accuracy,1,42,babble,,,babble-reversed_n13_p229-two-p307-five-p318-four-p284-one-p248-nine-p268-eight.wav,92.7279430232262,30,-0.3800897768239062,10,RX81,11,0.0,0.0,12.0,0,0,11.196480938416423,3.3061864376068115
0,,2024-07-17 15:12:58,sub_113,3,distance,cathedral,localisation_accuracy,1,43,babble,,,babble-reversed_n13_p256-five-p229-one-p318-three-p248-nine-p284-eight-p268-two.wav,91.69348561647442,30,-0.06170925505700864,7,RX81,8,0.0,0.0,9.0,0,0,11.12316715542522,3.0163989067077637
0,,2024-07-17 15:13:03,sub_113,3,distance,cathedral,localisation_accuracy,1,44,babble,,,babble-reversed_n13_p256-eight-p229-three-p307-nine-p245-five-p248-four-p268-two.wav,87.68468163837987,30,0.1657854988802151,2,RX81,3,0.0,0.0,4.0,0,0,5.316715542521995,3.6715633869171143
0,,2024-07-17 15:13:06,sub_113,3,distance,cathedral,localisation_accuracy,1,45,babble,,,babble-reversed_n13_p307-nine-p229-one-p256-eight-p248-four-p284-two-p268-three.wav,92.74463355101379,30,-0.35691363132333986,10,RX81,11,0.0,0.0,12.0,0,0,8.219941348973608,2.4227356910705566
0,,2024-07-17 15:13:10,sub_113,3,distance,cathedral,localisation_accuracy,1,46,babble,,,babble-reversed_n13_p256-three-p318-two-p229-nine-p248-four-p284-one-p268-eight.wav,89.22989539599442,30,-0.1116723835361273,4,RX81,5,0.0,0.0,6.0,0,0,6.519061583577713,2.531073808670044
0,,2024-07-17 15:13:18,sub_113,3,distance,cathedral,localisation_accuracy,1,47,babble,,,babble-reversed_n13_p229-one-p318-eight-p256-three-p268-nine-p248-five-p284-four.wav,86.52377247256175,30,0.4717656989313773,1,RX81,2,0.0,0.0,3.0,0,0,2.266862170087977,6.466032028198242
0,,2024-07-17 15:13:22,sub_113,3,distance,cathedral,localisation_accuracy,1,48,babble,,,babble-reversed_n13_p256-three-p318-two-p229-nine-p248-four-p284-one-p268-eight.wav,90.27460643432705,30,-0.09547661108405614,5,RX81,6,0.0,0.0,7.0,0,0,6.944281524926687,2.79673433303833
0,,2024-07-17 15:13:27,sub_113,3,distance,cathedral,localisation_accuracy,1,49,babble,,,babble-reversed_n13_p229-three-p256-nine-p318-five-p248-one-p245-eight-p284-two.wav,92.07346774623609,30,0.09484608649788806,9,RX81,10,0.0,0.0,11.0,0,0,8.733137829912025,4.344372749328613
0,,2024-07-17 15:13:34,sub_113,3,distance,cathedral,localisation_accuracy,1,50,babble,,,babble-reversed_n13_p256-five-p307-nine-p318-three-p284-eight-p268-one-p248-two.wav,84.20463671758472,30,-0.29016231687236194,0,RX81,1,0.0,0.0,2.0,0,0,1.7829912023460412,5.469313621520996
0,,2024-07-17 15:13:39,sub_113,3,distance,cathedral,localisation_accuracy,1,51,babble,,,babble-reversed_n13_p229-two-p318-eight-p256-three-p268-one-p248-nine-p284-five.wav,91.69796059591557,30,-0.44489906756396735,8,RX81,9,0.0,0.0,10.0,0,0,10.4633431085044,4.279958963394165
0,,2024-07-17 15:13:45,sub_113,3,distance,cathedral,localisation_accuracy,1,52,babble,,,babble-reversed_n13_p307-two-p229-one-p256-five-p248-nine-p284-three-p268-eight.wav,91.90200188327637,30,0.22714718695441782,7,RX81,8,0.0,0.0,9.0,0,0,9.187683284457478,4.344614267349243
0,,2024-07-17 15:13:49,sub_113,3,distance,cathedral,localisation_accuracy,1,53,babble,,,babble-reversed_n13_p307-one-p318-five-p229-four-p268-eight-p284-two-p245-three.wav,91.28296743465197,30,-0.43294420335523753,6,RX81,7,0.0,0.0,8.0,0,0,5.360703812316716,3.2572412490844727
0,,2024-07-17 15:13:52,sub_113,3,distance,cathedral,localisation_accuracy,1,54,babble,,,babble-reversed_n13_p229-three-p256-one-p307-two-p284-eight-p268-five-p248-nine.wav,88.83063240336955,30,-0.45022705454119194,3,RX81,4,0.0,0.0,5.0,0,0,4.378299120234605,2.266674041748047
0,,2024-07-17 15:15:37,sub_113,3,distance,cathedral,localisation_accuracy,2,0,babble,,,babble-reversed_n13_p307-nine-p318-two-p256-one-p245-three-p268-four-p248-eight.wav,92.11096760014209,30,0.1354620972481967,8,RX81,9,0.0,0.0,10.0,0,0,9.392961876832846,3.9522533416748047
0,,2024-07-17 15:15:40,sub_113,3,distance,cathedral,localisation_accuracy,2,1,babble,,,babble-reversed_n13_p318-nine-p256-five-p307-eight-p268-three-p248-one-p245-four.wav,84.15781841059936,30,-0.3590062383537752,0,RX81,1,0.0,0.0,2.0,0,0,2.3695014662756604,2.343522071838379
0,,2024-07-17 15:15:45,sub_113,3,distance,cathedral,localisation_accuracy,2,2,babble,,,babble-reversed_n13_p229-nine-p256-four-p318-three-p268-eight-p248-two-p284-five.wav,92.02051219520314,30,0.39255928256003425,7,RX81,8,0.0,0.0,9.0,0,0,10.844574780058652,3.606489896774292
0,,2024-07-17 15:15:48,sub_113,3,distance,cathedral,localisation_accuracy,2,3,babble,,,babble-reversed_n13_p229-nine-p307-five-p256-two-p248-three-p245-one-p268-eight.wav,90.46851270816904,30,0.18215329437122552,5,RX81,6,0.0,0.0,7.0,0,0,7.604105571847509,2.169735908508301
0,,2024-07-17 15:15:52,sub_113,3,distance,cathedral,localisation_accuracy,2,4,babble,,,babble-reversed_n13_p307-nine-p318-two-p256-one-p245-three-p268-four-p248-eight.wav,91.70065799818724,30,-0.42635097314515014,9,RX81,10,0.0,0.0,11.0,0,0,10.4633431085044,2.4852304458618164
0,,2024-07-17 15:15:56,sub_113,3,distance,cathedral,localisation_accuracy,2,5,babble,,,babble-reversed_n13_p318-nine-p307-eight-p229-two-p284-one-p248-three-p245-five.wav,89.38138406935207,30,0.33266939520950534,3,RX81,4,0.0,0.0,5.0,0,0,4.891495601173021,3.015080451965332
0,,2024-07-17 15:16:01,sub_113,3,distance,cathedral,localisation_accuracy,2,6,babble,,,babble-reversed_n13_p307-two-p256-four-p318-three-p284-eight-p248-five-p245-nine.wav,92.64508840851943,30,-0.494872135063571,10,RX81,11,0.0,0.0,12.0,0,0,10.419354838709678,4.337009429931641
0,,2024-07-17 15:16:06,sub_113,3,distance,cathedral,localisation_accuracy,2,7,babble,,,babble-reversed_n13_p229-three-p256-one-p307-two-p284-eight-p268-five-p248-nine.wav,91.81110844945465,30,0.31836600449623487,6,RX81,7,0.0,0.0,8.0,0,0,7.134897360703812,3.34096622467041
0,,2024-07-17 15:16:10,sub_113,3,distance,cathedral,localisation_accuracy,2,8,babble,,,babble-reversed_n13_p256-five-p307-nine-p318-three-p284-eight-p268-one-p248-two.wav,87.39077105616603,30,-0.25908799040772956,2,RX81,3,0.0,0.0,4.0,0,0,2.780058651026393,3.42159104347229
0,,2024-07-17 15:16:18,sub_113,3,distance,cathedral,localisation_accuracy,2,9,babble,,,babble-reversed_n13_p229-nine-p307-five-p256-two-p248-three-p245-one-p268-eight.wav,89.0861488862135,30,-0.3022902962727947,4,RX81,5,0.0,0.0,6.0,0,0,10.19941348973607,6.340288877487183
0,,2024-07-17 15:16:19,sub_113,3,distance,cathedral,localisation_accuracy,2,10,babble,,,babble-reversed_n13_p229-two-p256-three-p318-eight-p284-five-p268-four-p245-one.wav,86.29954969993153,30,0.14034247361937557,1,RX81,2,0.0,0.0,3.0,0,0,10.19941348973607,0.015560626983642578
0,,2024-07-17 15:16:24,sub_113,3,distance,cathedral,localisation_accuracy,2,11,babble,,,babble-reversed_n13_p229-one-p318-eight-p256-three-p268-two-p245-five-p248-nine.wav,91.78655357302382,30,0.06687462362083985,7,RX81,8,0.0,0.0,9.0,0,0,8.073313782991203,3.7350375652313232
0,,2024-07-17 15:16:28,sub_113,3,distance,cathedral,localisation_accuracy,2,12,babble,,,babble-reversed_n13_p229-five-p318-two-p307-eight-p268-three-p248-four-p245-one.wav,90.68120005053167,30,0.48963836677391404,5,RX81,6,0.0,0.0,7.0,0,0,6.577712609970675,2.688356637954712
0,,2024-07-17 15:16:32,sub_113,3,distance,cathedral,localisation_accuracy,2,13,babble,,,babble-reversed_n13_p229-three-p256-one-p307-two-p284-eight-p268-five-p248-nine.wav,88.821493424698,30,-0.4630462666476507,3,RX81,4,0.0,0.0,5.0,0,0,8.469208211143696,3.187150001525879
0,,2024-07-17 15:16:36,sub_113,3,distance,cathedral,localisation_accuracy,2,14,babble,,,babble-reversed_n13_p229-five-p256-one-p318-three-p248-nine-p268-four-p284-eight.wav,91.79776789559666,30,-0.2914647479032887,9,RX81,10,0.0,0.0,11.0,0,0,10.727272727272728,3.3852181434631348
0,,2024-07-17 15:16:42,sub_113,3,distance,cathedral,localisation_accuracy,2,15,babble,,,babble-reversed_n13_p229-nine-p318-one-p307-two-p248-eight-p245-five-p284-four.wav,86.38302495937003,30,0.26330378682281264,1,RX81,2,0.0,0.0,3.0,0,0,2.941348973607038,4.826302528381348
0,,2024-07-17 15:16:46,sub_113,3,distance,cathedral,localisation_accuracy,2,16,babble,,,babble-reversed_n13_p229-three-p256-nine-p318-five-p248-one-p245-eight-p284-two.wav,87.4530705876152,30,-0.16953121804113613,2,RX81,3,0.0,0.0,4.0,0,0,2.545454545454546,2.1329257488250732
0,,2024-07-17 15:16:51,sub_113,3,distance,cathedral,localisation_accuracy,2,17,babble,,,babble-reversed_n13_p256-three-p318-one-p307-two-p284-nine-p268-four-p245-eight.wav,91.43345419745353,30,-0.2207854530142428,6,RX81,7,0.0,0.0,8.0,0,0,8.205278592375366,4.583394527435303
0,,2024-07-17 15:16:56,sub_113,3,distance,cathedral,localisation_accuracy,2,18,babble,,,babble-reversed_n13_p229-nine-p307-five-p256-two-p248-three-p245-one-p268-eight.wav,89.12954158459738,30,-0.2448770038202378,4,RX81,5,0.0,0.0,6.0,0,0,6.563049853372435,3.7849478721618652
0,,2024-07-17 15:17:01,sub_113,3,distance,cathedral,localisation_accuracy,2,19,babble,,,babble-reversed_n13_p318-five-p256-nine-p307-two-p245-eight-p248-one-p284-four.wav,92.8880531029535,30,-0.15701511681142932,10,RX81,11,0.0,0.0,12.0,0,0,10.360703812316716,3.398132085800171
0,,2024-07-17 15:17:07,sub_113,3,distance,cathedral,localisation_accuracy,2,20,babble,,,babble-reversed_n13_p307-two-p229-one-p256-five-p248-nine-p284-three-p268-eight.wav,84.73195538514841,30,0.4963634340900803,0,RX81,1,0.0,0.0,2.0,0,0,2.35483870967742,4.920857906341553
0,,2024-07-17 15:17:13,sub_113,3,distance,cathedral,localisation_accuracy,2,21,babble,,,babble-reversed_n13_p318-three-p229-one-p256-eight-p245-five-p248-four-p284-nine.wav,92.13871274867627,30,0.1748558674831553,8,RX81,9,0.0,0.0,10.0,0,0,10.75659824046921,4.5788609981536865
0,,2024-07-17 15:17:18,sub_113,3,distance,cathedral,localisation_accuracy,2,22,babble,,,babble-reversed_n13_p229-nine-p256-four-p318-three-p268-eight-p248-two-p284-five.wav,89.43656275327534,30,0.4122403786888127,3,RX81,4,0.0,0.0,5.0,0,0,2.941348973607038,4.390219449996948
0,,2024-07-17 15:17:23,sub_113,3,distance,cathedral,localisation_accuracy,2,23,babble,,,babble-reversed_n13_p229-two-p318-eight-p256-three-p268-one-p248-nine-p284-five.wav,90.15147097972248,30,-0.27045145995568143,5,RX81,6,0.0,0.0,7.0,0,0,8.733137829912025,3.625657558441162
0,,2024-07-17 15:17:27,sub_113,3,distance,cathedral,localisation_accuracy,2,24,babble,,,babble-reversed_n13_p256-five-p307-nine-p318-three-p284-eight-p268-one-p248-two.wav,86.07353254974171,30,-0.1900850447598037,1,RX81,2,0.0,0.0,3.0,0,0,3.2052785923753673,3.359109401702881
0,,2024-07-17 15:17:32,sub_113,3,distance,cathedral,localisation_accuracy,2,25,babble,,,babble-reversed_n13_p229-nine-p307-five-p256-two-p248-three-p245-one-p268-eight.wav,84.6339444324208,30,0.34861537498434136,0,RX81,1,0.0,0.0,2.0,0,0,1.8563049853372435,3.266282320022583
0,,2024-07-17 15:17:37,sub_113,3,distance,cathedral,localisation_accuracy,2,26,babble,,,babble-reversed_n13_p229-nine-p256-four-p318-three-p268-eight-p248-two-p284-five.wav,92.11586087268843,30,0.14240604149245806,8,RX81,9,0.0,0.0,10.0,0,0,10.653958944281525,3.7756776809692383
0,,2024-07-17 15:17:41,sub_113,3,distance,cathedral,localisation_accuracy,2,27,babble,,,babble-reversed_n13_p229-two-p307-five-p318-four-p284-one-p248-nine-p268-eight.wav,87.64521927422858,30,0.10838831984865793,2,RX81,3,0.0,0.0,4.0,0,0,5.756598240469208,3.1656017303466797
0,,2024-07-17 15:17:45,sub_113,3,distance,cathedral,localisation_accuracy,2,28,babble,,,babble-reversed_n13_p318-four-p256-five-p229-three-p284-one-p245-eight-p248-nine.wav,89.07995729554733,30,-0.3104734126454669,4,RX81,5,0.0,0.0,6.0,0,0,10.78592375366569,3.171586275100708
0,,2024-07-17 15:17:49,sub_113,3,distance,cathedral,localisation_accuracy,2,29,babble,,,babble-reversed_n13_p229-one-p318-eight-p256-three-p268-two-p245-five-p248-nine.wav,91.88941886586781,30,0.4313806094664462,6,RX81,7,0.0,0.0,8.0,0,0,11.167155425219942,2.996403694152832
0,,2024-07-17 15:17:53,sub_113,3,distance,cathedral,localisation_accuracy,2,30,babble,,,babble-reversed_n13_p256-four-p307-eight-p318-two-p248-three-p284-nine-p268-one.wav,91.49553056349194,30,-0.33338070008530973,7,RX81,8,0.0,0.0,9.0,0,0,10.683284457478006,2.8286194801330566
0,,2024-07-17 15:17:57,sub_113,3,distance,cathedral,localisation_accuracy,2,31,babble,,,babble-reversed_n13_p229-two-p256-three-p318-eight-p284-five-p268-four-p245-one.wav,93.14143897904799,30,0.1994550473404615,10,RX81,11,0.0,0.0,12.0,0,0,9.407624633431086,2.844511032104492
0,,2024-07-17 15:18:01,sub_113,3,distance,cathedral,localisation_accuracy,2,32,babble,,,babble-reversed_n13_p229-five-p256-one-p318-three-p248-nine-p268-four-p284-eight.wav,92.19641715729269,30,0.26873861893281425,9,RX81,10,0.0,0.0,11.0,0,0,11.460410557184751,3.036552906036377
0,,2024-07-17 15:18:06,sub_113,3,distance,cathedral,localisation_accuracy,2,33,babble,,,babble-reversed_n13_p256-four-p307-eight-p318-two-p248-three-p284-nine-p268-one.wav,85.89405619833364,30,-0.44988956120840407,1,RX81,2,0.0,0.0,3.0,0,0,2.8826979472140764,3.5415191650390625
0,,2024-07-17 15:18:11,sub_113,3,distance,cathedral,localisation_accuracy,2,34,babble,,,babble-reversed_n13_p307-four-p318-three-p256-eight-p284-two-p245-nine-p248-five.wav,91.85586938441817,30,0.16300093548533756,7,RX81,8,0.0,0.0,9.0,0,0,10.419354838709678,3.2965993881225586
0,,2024-07-17 15:18:14,sub_113,3,distance,cathedral,localisation_accuracy,2,35,babble,,,babble-reversed_n13_p229-five-p318-two-p307-eight-p268-three-p248-four-p245-one.wav,93.08864374878041,30,0.12483178757498214,10,RX81,11,0.0,0.0,12.0,0,0,11.196480938416423,2.5952110290527344
0,,2024-07-17 15:18:20,sub_113,3,distance,cathedral,localisation_accuracy,2,36,babble,,,babble-reversed_n13_p229-two-p307-five-p318-four-p284-one-p248-nine-p268-eight.wav,84.28270897214617,30,-0.1750052490665479,0,RX81,1,0.0,0.0,2.0,0,0,1.900293255131965,4.155133247375488
0,,2024-07-17 15:18:26,sub_113,3,distance,cathedral,localisation_accuracy,2,37,babble,,,babble-reversed_n13_p256-three-p318-one-p307-two-p284-nine-p268-four-p245-eight.wav,90.43843327355415,30,0.13891804868466784,5,RX81,6,0.0,0.0,7.0,0,0,8.762463343108505,5.3045923709869385
0,,2024-07-17 15:18:32,sub_113,3,distance,cathedral,localisation_accuracy,2,38,babble,,,babble-reversed_n13_p229-five-p256-three-p318-nine-p248-two-p284-four-p268-one.wav,89.21202991193205,30,0.08974822423523521,3,RX81,4,0.0,0.0,5.0,0,0,7.398826979472142,4.719261169433594
0,,2024-07-17 15:18:35,sub_113,3,distance,cathedral,localisation_accuracy,2,39,babble,,,babble-reversed_n13_p256-three-p318-one-p307-two-p284-nine-p268-four-p245-eight.wav,91.49257694721143,30,-0.13701728029507187,6,RX81,7,0.0,0.0,8.0,0,0,10.228739002932553,2.484135627746582
0,,2024-07-17 15:18:40,sub_113,3,distance,cathedral,localisation_accuracy,2,40,babble,,,babble-reversed_n13_p307-five-p229-two-p318-four-p248-three-p245-nine-p268-eight.wav,87.7461357517496,30,0.2553871684732132,2,RX81,3,0.0,0.0,4.0,0,0,4.21700879765396,2.985675573348999
0,,2024-07-17 15:18:44,sub_113,3,distance,cathedral,localisation_accuracy,2,41,babble,,,babble-reversed_n13_p229-one-p318-nine-p256-four-p284-eight-p268-five-p245-two.wav,92.26669689919234,30,0.36858917272944636,9,RX81,10,0.0,0.0,11.0,0,0,11.460410557184751,3.0630390644073486
0,,2024-07-17 15:18:47,sub_113,3,distance,cathedral,localisation_accuracy,2,42,babble,,,babble-reversed_n13_p229-two-p307-five-p318-four-p284-one-p248-nine-p268-eight.wav,91.9740261419752,30,-0.058221284258256234,8,RX81,9,0.0,0.0,10.0,0,0,10.727272727272728,2.532010555267334
0,,2024-07-17 15:18:51,sub_113,3,distance,cathedral,localisation_accuracy,2,43,babble,,,babble-reversed_n13_p229-nine-p318-one-p307-two-p248-eight-p245-five-p284-four.wav,89.30629408861515,30,-0.009864940908175579,4,RX81,5,0.0,0.0,6.0,0,0,7.736070381231672,2.874016284942627
0,,2024-07-17 15:18:55,sub_113,3,distance,cathedral,localisation_accuracy,2,44,babble,,,babble-reversed_n13_p229-nine-p256-four-p318-three-p268-eight-p248-two-p284-five.wav,91.92420904050559,30,0.48172351878065867,6,RX81,7,0.0,0.0,8.0,0,0,6.592375366568916,2.452908754348755
0,,2024-07-17 15:18:59,sub_113,3,distance,cathedral,localisation_accuracy,2,45,babble,,,babble-reversed_n13_p256-four-p229-two-p318-five-p268-one-p248-eight-p245-three.wav,93.12093099505027,30,0.17044616778287414,10,RX81,11,0.0,0.0,12.0,0,0,11.768328445747802,2.701124906539917
0,,2024-07-17 15:19:02,sub_113,3,distance,cathedral,localisation_accuracy,2,46,babble,,,babble-reversed_n13_p256-eight-p318-five-p307-four-p245-three-p268-one-p284-nine.wav,91.56025596772065,30,-0.2448245789032879,7,RX81,8,0.0,0.0,9.0,0,0,11.40175953079179,1.961876630783081
0,,2024-07-17 15:19:05,sub_113,3,distance,cathedral,localisation_accuracy,2,47,babble,,,babble-reversed_n13_p229-two-p307-five-p318-four-p284-one-p248-nine-p268-eight.wav,92.06395546052802,30,0.08143416891599908,9,RX81,10,0.0,0.0,11.0,0,0,9.055718475073315,2.468531608581543
0,,2024-07-17 15:19:08,sub_113,3,distance,cathedral,localisation_accuracy,2,48,babble,,,babble-reversed_n13_p307-four-p318-three-p256-eight-p284-two-p245-nine-p248-five.wav,90.21044998308724,30,-0.18677071731174222,5,RX81,6,0.0,0.0,7.0,0,0,11.475073313782993,1.9494092464447021
0,,2024-07-17 15:19:12,sub_113,3,distance,cathedral,localisation_accuracy,2,49,babble,,,babble-reversed_n13_p229-five-p318-two-p307-eight-p268-three-p248-four-p245-one.wav,89.09953297586881,30,-0.28459350477189693,4,RX81,5,0.0,0.0,6.0,0,0,8.366568914956012,2.532038688659668
0,,2024-07-17 15:19:16,sub_113,3,distance,cathedral,localisation_accuracy,2,50,babble,,,babble-reversed_n13_p318-four-p256-five-p229-three-p284-one-p245-eight-p248-nine.wav,91.80307707818633,30,-0.29825740252506894,8,RX81,9,0.0,0.0,10.0,0,0,9.8475073313783,2.265401601791382
0,,2024-07-17 15:19:20,sub_113,3,distance,cathedral,localisation_accuracy,2,51,babble,,,babble-reversed_n13_p229-two-p307-five-p318-four-p284-one-p248-nine-p268-eight.wav,84.24875051152873,30,-0.22514894157858745,0,RX81,1,0.0,0.0,2.0,0,0,2.2375366568914963,3.2219502925872803
0,,2024-07-17 15:19:24,sub_113,3,distance,cathedral,localisation_accuracy,2,52,babble,,,babble-reversed_n13_p256-eight-p318-five-p307-four-p245-three-p268-one-p284-nine.wav,85.98676022509238,30,-0.31597800702224466,1,RX81,2,0.0,0.0,3.0,0,0,4.671554252199414,3.2356836795806885
0,,2024-07-17 15:19:27,sub_113,3,distance,cathedral,localisation_accuracy,2,53,babble,,,babble-reversed_n13_p229-three-p256-nine-p318-five-p248-one-p245-eight-p284-two.wav,89.18478772288401,30,0.05085414803832311,3,RX81,4,0.0,0.0,5.0,0,0,8.102639296187684,1.8749136924743652
0,,2024-07-17 15:19:31,sub_113,3,distance,cathedral,localisation_accuracy,2,54,babble,,,babble-reversed_n13_p229-one-p318-eight-p256-three-p268-nine-p248-five-p284-four.wav,87.65053057624785,30,0.11610713212451285,2,RX81,3,0.0,0.0,4.0,0,0,8.483870967741936,2.6299889087677
0,,2024-07-17 15:21:10,sub_113,3,distance,cathedral,localisation_accuracy,3,0,pinknoise,,,pinknoise_4.wav,92.71158306260142,30,-0.4027893177684101,10,RX81,11,0.0,0.0,12.0,0,0,9.627565982404693,3.4852454662323
0,,2024-07-17 15:21:13,sub_113,3,distance,cathedral,localisation_accuracy,3,1,pinknoise,,,pinknoise_4.wav,88.87324033933128,30,-0.39038758339880475,3,RX81,4,0.0,0.0,5.0,0,0,4.583577712609971,2.7339794635772705
0,,2024-07-17 15:21:18,sub_113,3,distance,cathedral,localisation_accuracy,3,2,pinknoise,,,pinknoise_5.wav,92.29701569897796,30,0.41176650716826957,9,RX81,10,0.0,0.0,11.0,0,0,11.137829912023461,3.0005276203155518
0,,2024-07-17 15:21:21,sub_113,3,distance,cathedral,localisation_accuracy,3,3,pinknoise,,,pinknoise_8.wav,91.3425207450642,30,-0.34916627603589967,6,RX81,7,0.0,0.0,8.0,0,0,8.102639296187684,1.937300205230713
0,,2024-07-17 15:21:24,sub_113,3,distance,cathedral,localisation_accuracy,3,4,pinknoise,,,pinknoise_1.wav,90.34929624393564,30,0.011158614356825858,5,RX81,6,0.0,0.0,7.0,0,0,10.78592375366569,2.0475640296936035
0,,2024-07-17 15:21:28,sub_113,3,distance,cathedral,localisation_accuracy,3,5,pinknoise,,,pinknoise_7.wav,87.30579047918232,30,-0.3808158472560783,2,RX81,3,0.0,0.0,4.0,0,0,4.671554252199414,3.016561269760132
0,,2024-07-17 15:21:32,sub_113,3,distance,cathedral,localisation_accuracy,3,6,pinknoise,,,pinknoise_4.wav,89.55627286958047,30,0.32568198078722177,4,RX81,5,0.0,0.0,6.0,0,0,8.263929618768328,2.4645636081695557
0,,2024-07-17 15:21:35,sub_113,3,distance,cathedral,localisation_accuracy,3,7,pinknoise,,,pinknoise_9.wav,91.90027758629338,30,-0.16201145821263896,8,RX81,9,0.0,0.0,10.0,0,0,11.049853372434018,2.437262773513794
0,,2024-07-17 15:21:39,sub_113,3,distance,cathedral,localisation_accuracy,3,8,pinknoise,,,pinknoise_4.wav,86.45304461935098,30,0.36683141671846187,1,RX81,2,0.0,0.0,3.0,0,0,3.674486803519062,2.3449819087982178
0,,2024-07-17 15:21:43,sub_113,3,distance,cathedral,localisation_accuracy,3,9,pinknoise,,,pinknoise_1.wav,84.10491177942839,30,-0.43661075576394826,0,RX81,1,0.0,0.0,2.0,0,0,2.0175953079178885,2.6726956367492676
0,,2024-07-17 15:21:47,sub_113,3,distance,cathedral,localisation_accuracy,3,10,pinknoise,,,pinknoise_8.wav,91.58746632960906,30,-0.20751697811521774,7,RX81,8,0.0,0.0,9.0,0,0,10.844574780058652,3.1101322174072266
0,,2024-07-17 15:21:52,sub_113,3,distance,cathedral,localisation_accuracy,3,11,pinknoise,,,pinknoise_6.wav,86.27603597442567,30,0.10579639361370652,1,RX81,2,0.0,0.0,3.0,0,0,1.6217008797653962,3.76399302482605
0,,2024-07-17 15:21:57,sub_113,3,distance,cathedral,localisation_accuracy,3,12,pinknoise,,,pinknoise_5.wav,93.14326103721525,30,0.20203372723068114,10,RX81,11,0.0,0.0,12.0,0,0,11.592375366568916,3.664522647857666
0,,2024-07-17 15:22:01,sub_113,3,distance,cathedral,localisation_accuracy,3,13,pinknoise,,,pinknoise_9.wav,87.43611605357381,30,-0.19393036117923368,2,RX81,3,0.0,0.0,4.0,0,0,5.111436950146628,3.454655408859253
0,,2024-07-17 15:22:05,sub_113,3,distance,cathedral,localisation_accuracy,3,14,pinknoise,,,pinknoise_8.wav,91.42829898291266,30,-0.425086674830654,7,RX81,8,0.0,0.0,9.0,0,0,11.841642228739003,2.6872453689575195
0,,2024-07-17 15:22:09,sub_113,3,distance,cathedral,localisation_accuracy,3,15,pinknoise,,,pinknoise_4.wav,90.39255213052337,30,0.0730891709272905,5,RX81,6,0.0,0.0,7.0,0,0,11.607038123167156,2.7436981201171875
0,,2024-07-17 15:22:14,sub_113,3,distance,cathedral,localisation_accuracy,3,16,pinknoise,,,pinknoise_2.wav,84.68663495089751,30,0.42795528428081575,0,RX81,1,0.0,0.0,2.0,0,0,2.67741935483871,3.5163447856903076
0,,2024-07-17 15:22:18,sub_113,3,distance,cathedral,localisation_accuracy,3,17,pinknoise,,,pinknoise_1.wav,89.33407524976488,30,0.26461301869830633,3,RX81,4,0.0,0.0,5.0,0,0,10.771260997067449,2.8589508533477783
0,,2024-07-17 15:22:22,sub_113,3,distance,cathedral,localisation_accuracy,3,18,pinknoise,,,pinknoise_2.wav,91.89309554350744,30,0.43669699180510435,6,RX81,7,0.0,0.0,8.0,0,0,11.651026392961878,2.5370521545410156
0,,2024-07-17 15:22:25,sub_113,3,distance,cathedral,localisation_accuracy,3,19,pinknoise,,,pinknoise_3.wav,89.03262891110353,30,-0.37295052836646136,4,RX81,5,0.0,0.0,6.0,0,0,8.29325513196481,2.546630382537842
0,,2024-07-17 15:22:29,sub_113,3,distance,cathedral,localisation_accuracy,3,20,pinknoise,,,pinknoise_2.wav,92.1586807180355,30,0.21525978159166215,9,RX81,10,0.0,0.0,11.0,0,0,11.665689149560118,2.4845261573791504
0,,2024-07-17 15:22:33,sub_113,3,distance,cathedral,localisation_accuracy,3,21,pinknoise,,,pinknoise_5.wav,92.12829321583924,30,0.16005572635432186,8,RX81,9,0.0,0.0,10.0,0,0,12.193548387096776,2.5321738719940186
0,,2024-07-17 15:22:35,sub_113,3,distance,cathedral,localisation_accuracy,3,22,pinknoise,,,pinknoise_9.wav,92.22404776127802,30,0.3079558156791006,9,RX81,10,0.0,0.0,11.0,0,0,11.533724340175954,1.577946424484253
0,,2024-07-17 15:22:39,sub_113,3,distance,cathedral,localisation_accuracy,3,23,pinknoise,,,pinknoise_4.wav,89.49468651239569,30,0.24266759431491003,4,RX81,5,0.0,0.0,6.0,0,0,8.30791788856305,2.120711088180542
0,,2024-07-17 15:22:42,sub_113,3,distance,cathedral,localisation_accuracy,3,24,pinknoise,,,pinknoise_9.wav,91.68388373670824,30,-0.4644817972225278,8,RX81,9,0.0,0.0,10.0,0,0,11.944281524926687,2.024988889694214
0,,2024-07-17 15:22:45,sub_113,3,distance,cathedral,localisation_accuracy,3,25,pinknoise,,,pinknoise_5.wav,91.88411172208768,30,0.4237082521524842,6,RX81,7,0.0,0.0,8.0,0,0,10.4633431085044,2.421642541885376
0,,2024-07-17 15:22:49,sub_113,3,distance,cathedral,localisation_accuracy,3,26,pinknoise,,,pinknoise_4.wav,92.78235294655305,30,-0.30447038381454783,10,RX81,11,0.0,0.0,12.0,0,0,10.80058651026393,2.76168155670166
0,,2024-07-17 15:22:53,sub_113,3,distance,cathedral,localisation_accuracy,3,27,pinknoise,,,pinknoise_1.wav,91.79265318443946,30,0.07532118256758791,7,RX81,8,0.0,0.0,9.0,0,0,7.9560117302052795,2.2978451251983643
0,,2024-07-17 15:22:56,sub_113,3,distance,cathedral,localisation_accuracy,3,28,pinknoise,,,pinknoise_7.wav,90.07905724052452,30,-0.3728725527228893,5,RX81,6,0.0,0.0,7.0,0,0,10.947214076246334,2.1716561317443848
0,,2024-07-17 15:23:00,sub_113,3,distance,cathedral,localisation_accuracy,3,29,pinknoise,,,pinknoise_7.wav,89.31444909731016,30,0.2364245356982676,3,RX81,4,0.0,0.0,5.0,0,0,8.322580645161292,2.6247501373291016
0,,2024-07-17 15:23:05,sub_113,3,distance,cathedral,localisation_accuracy,3,30,pinknoise,,,pinknoise_2.wav,84.4538447961668,30,0.07898514264248502,0,RX81,1,0.0,0.0,2.0,0,0,1.9149560117302054,3.8419835567474365
0,,2024-07-17 15:23:08,sub_113,3,distance,cathedral,localisation_accuracy,3,31,pinknoise,,,pinknoise_4.wav,87.2947958222634,30,-0.396528368006019,2,RX81,3,0.0,0.0,4.0,0,0,6.856304985337244,1.8758938312530518
0,,2024-07-17 15:23:12,sub_113,3,distance,cathedral,localisation_accuracy,3,32,pinknoise,,,pinknoise_7.wav,86.25535592689474,30,0.07544624610044803,1,RX81,2,0.0,0.0,3.0,0,0,4.686217008797654,2.8405542373657227
0,,2024-07-17 15:23:16,sub_113,3,distance,cathedral,localisation_accuracy,3,33,pinknoise,,,pinknoise_7.wav,89.41506206467795,30,0.38121030038420767,3,RX81,4,0.0,0.0,5.0,0,0,8.997067448680353,2.5153825283050537
0,,2024-07-17 15:23:19,sub_113,3,distance,cathedral,localisation_accuracy,3,34,pinknoise,,,pinknoise_9.wav,90.3207375136627,30,-0.02965973442624925,5,RX81,6,0.0,0.0,7.0,0,0,11.665689149560118,2.5769951343536377
0,,2024-07-17 15:23:23,sub_113,3,distance,cathedral,localisation_accuracy,3,35,pinknoise,,,pinknoise_9.wav,92.08492811893628,30,0.48284793500851253,7,RX81,8,0.0,0.0,9.0,0,0,12.252199413489738,2.8601884841918945
0,,2024-07-17 15:23:26,sub_113,3,distance,cathedral,localisation_accuracy,3,36,pinknoise,,,pinknoise_0.wav,91.66539739667756,30,-0.475176454396976,9,RX81,10,0.0,0.0,11.0,0,0,12.237536656891496,1.4529776573181152
0,,2024-07-17 15:23:30,sub_113,3,distance,cathedral,localisation_accuracy,3,37,pinknoise,,,pinknoise_3.wav,91.67212394175407,30,0.1188213363527163,6,RX81,7,0.0,0.0,8.0,0,0,7.926686217008799,2.7054505348205566
0,,2024-07-17 15:23:34,sub_113,3,distance,cathedral,localisation_accuracy,3,38,pinknoise,,,pinknoise_6.wav,88.9976289814644,30,-0.4190685547002758,4,RX81,5,0.0,0.0,6.0,0,0,6.401759530791789,3.0489068031311035
0,,2024-07-17 15:23:38,sub_113,3,distance,cathedral,localisation_accuracy,3,39,pinknoise,,,pinknoise_5.wav,84.19083585872539,30,-0.3104723758728791,0,RX81,1,0.0,0.0,2.0,0,0,1.7536656891495603,3.0273563861846924
0,,2024-07-17 15:23:42,sub_113,3,distance,cathedral,localisation_accuracy,3,40,pinknoise,,,pinknoise_3.wav,87.23022636270882,30,-0.4886368433297269,2,RX81,3,0.0,0.0,4.0,0,0,5.639296187683285,2.0673556327819824
0,,2024-07-17 15:23:45,sub_113,3,distance,cathedral,localisation_accuracy,3,41,pinknoise,,,pinknoise_8.wav,93.17053015381165,30,0.24065284271847132,10,RX81,11,0.0,0.0,12.0,0,0,10.80058651026393,2.5935237407684326
0,,2024-07-17 15:23:52,sub_113,3,distance,cathedral,localisation_accuracy,3,42,pinknoise,,,pinknoise_2.wav,86.44478622487841,30,0.354602561691004,1,RX81,2,0.0,0.0,3.0,0,0,5.096774193548388,5.050879001617432
0,,2024-07-17 15:23:56,sub_113,3,distance,cathedral,localisation_accuracy,3,43,pinknoise,,,pinknoise_1.wav,92.2949774642371,30,0.39769103851823573,8,RX81,9,0.0,0.0,10.0,0,0,10.80058651026393,2.8434853553771973
0,,2024-07-17 15:23:58,sub_113,3,distance,cathedral,localisation_accuracy,3,44,pinknoise,,,pinknoise_4.wav,92.7704835980129,30,-0.32098295609564265,10,RX81,11,0.0,0.0,12.0,0,0,10.771260997067449,1.6740059852600098
0,,2024-07-17 15:24:03,sub_113,3,distance,cathedral,localisation_accuracy,3,45,pinknoise,,,pinknoise_2.wav,86.28023269728206,30,0.11195926370637665,1,RX81,2,0.0,0.0,3.0,0,0,2.5307917888563054,3.063161611557007
0,,2024-07-17 15:24:06,sub_113,3,distance,cathedral,localisation_accuracy,3,46,pinknoise,,,pinknoise_5.wav,89.18348904568673,30,0.04900126337226918,3,RX81,4,0.0,0.0,5.0,0,0,6.812316715542522,1.9842345714569092
0,,2024-07-17 15:24:10,sub_113,3,distance,cathedral,localisation_accuracy,3,47,pinknoise,,,pinknoise_1.wav,91.48341807702101,30,-0.34992348472845514,7,RX81,8,0.0,0.0,9.0,0,0,11.636363636363637,2.654536247253418
0,,2024-07-17 15:24:14,sub_113,3,distance,cathedral,localisation_accuracy,3,48,pinknoise,,,pinknoise_0.wav,91.51866482623076,30,-0.09997973494424439,6,RX81,7,0.0,0.0,8.0,0,0,8.043988269794722,2.703890800476074
0,,2024-07-17 15:24:17,sub_113,3,distance,cathedral,localisation_accuracy,3,49,pinknoise,,,pinknoise_2.wav,87.31498886898902,30,-0.36766397404355544,2,RX81,3,0.0,0.0,4.0,0,0,5.126099706744869,2.356388807296753
0,,2024-07-17 15:24:21,sub_113,3,distance,cathedral,localisation_accuracy,3,50,pinknoise,,,pinknoise_7.wav,92.27829836798622,30,0.38510370603569255,9,RX81,10,0.0,0.0,11.0,0,0,11.72434017595308,2.3122718334198
0,,2024-07-17 15:24:25,sub_113,3,distance,cathedral,localisation_accuracy,3,51,pinknoise,,,pinknoise_1.wav,84.16426051064326,30,-0.34954293369645195,0,RX81,1,0.0,0.0,2.0,0,0,1.8856304985337244,2.9854178428649902
0,,2024-07-17 15:24:30,sub_113,3,distance,cathedral,localisation_accuracy,3,52,pinknoise,,,pinknoise_3.wav,89.08171690445565,30,-0.308148054744778,4,RX81,5,0.0,0.0,6.0,0,0,12.002932551319649,3.656761884689331
0,,2024-07-17 15:24:32,sub_113,3,distance,cathedral,localisation_accuracy,3,53,pinknoise,,,pinknoise_0.wav,91.95896352166095,30,-0.07944899017749218,8,RX81,9,0.0,0.0,10.0,0,0,11.049853372434018,1.6584436893463135
0,,2024-07-17 15:24:35,sub_113,3,distance,cathedral,localisation_accuracy,3,54,pinknoise,,,pinknoise_4.wav,90.27695587814824,30,-0.09212807063131889,5,RX81,6,0.0,0.0,7.0,0,0,11.72434017595308,1.8279519081115723
0,,2024-07-17 15:25:56,sub_113,3,distance,cathedral,localisation_accuracy,4,0,pinknoise,,,pinknoise_6.wav,93.34495260295856,30,0.4888445132484428,10,RX81,11,0.0,0.0,12.0,0,0,11.181818181818183,2.015416145324707
0,,2024-07-17 15:25:59,sub_113,3,distance,cathedral,localisation_accuracy,4,1,pinknoise,,,pinknoise_7.wav,92.05842872644925,30,0.44567260197910563,7,RX81,8,0.0,0.0,9.0,0,0,9.217008797653959,1.936173915863037
0,,2024-07-17 15:26:03,sub_113,3,distance,cathedral,localisation_accuracy,4,2,pinknoise,,,pinknoise_2.wav,91.82585174137839,30,-0.2663900707857296,8,RX81,9,0.0,0.0,10.0,0,0,11.812316715542522,1.9855597019195557
0,,2024-07-17 15:26:06,sub_113,3,distance,cathedral,localisation_accuracy,4,3,pinknoise,,,pinknoise_0.wav,87.24876967169669,30,-0.46221414523471405,2,RX81,3,0.0,0.0,4.0,0,0,4.87683284457478,2.546651840209961
0,,2024-07-17 15:26:09,sub_113,3,distance,cathedral,localisation_accuracy,4,4,pinknoise,,,pinknoise_2.wav,90.3252813212916,30,-0.023169088486378775,5,RX81,6,0.0,0.0,7.0,0,0,8.982404692082111,2.108104944229126
0,,2024-07-17 15:26:13,sub_113,3,distance,cathedral,localisation_accuracy,4,5,pinknoise,,,pinknoise_8.wav,91.7552795042383,30,-0.3505569132709392,9,RX81,10,0.0,0.0,11.0,0,0,12.090909090909092,2.0620594024658203
0,,2024-07-17 15:26:17,sub_113,3,distance,cathedral,localisation_accuracy,4,6,pinknoise,,,pinknoise_9.wav,84.43470827674153,30,0.0504766983789795,0,RX81,1,0.0,0.0,2.0,0,0,2.002932551319648,3.2562906742095947
0,,2024-07-17 15:26:21,sub_113,3,distance,cathedral,localisation_accuracy,4,7,pinknoise,,,pinknoise_8.wav,91.35177463965847,30,-0.33612686432834726,6,RX81,7,0.0,0.0,8.0,0,0,9.480938416422289,2.609147310256958
0,,2024-07-17 15:26:26,sub_113,3,distance,cathedral,localisation_accuracy,4,8,pinknoise,,,pinknoise_1.wav,89.36255088331002,30,0.30555849031006344,3,RX81,4,0.0,0.0,5.0,0,0,6.607038123167156,3.796689748764038
0,,2024-07-17 15:26:30,sub_113,3,distance,cathedral,localisation_accuracy,4,9,pinknoise,,,pinknoise_9.wav,89.50689695099237,30,0.25910838706782746,4,RX81,5,0.0,0.0,6.0,0,0,9.495601173020528,2.455423355102539
0,,2024-07-17 15:26:33,sub_113,3,distance,cathedral,localisation_accuracy,4,10,pinknoise,,,pinknoise_2.wav,86.44377739352167,30,0.35310904323267045,1,RX81,2,0.0,0.0,3.0,0,0,4.290322580645162,2.8276703357696533
0,,2024-07-17 15:26:38,sub_113,3,distance,cathedral,localisation_accuracy,4,11,pinknoise,,,pinknoise_0.wav,91.27365310825797,30,-0.4460259129665348,6,RX81,7,0.0,0.0,8.0,0,0,11.72434017595308,3.359889507293701
0,,2024-07-17 15:26:42,sub_113,3,distance,cathedral,localisation_accuracy,4,12,pinknoise,,,pinknoise_2.wav,88.87118695900838,30,-0.39327417064994463,3,RX81,4,0.0,0.0,5.0,0,0,6.958944281524927,2.688119411468506
0,,2024-07-17 15:26:46,sub_113,3,distance,cathedral,localisation_accuracy,4,13,pinknoise,,,pinknoise_6.wav,86.02083769204349,30,-0.26660049926840357,1,RX81,2,0.0,0.0,3.0,0,0,3.3079178885630505,2.7028913497924805
0,,2024-07-17 15:26:50,sub_113,3,distance,cathedral,localisation_accuracy,4,14,pinknoise,,,pinknoise_6.wav,87.27820842083425,30,-0.4202177365375699,2,RX81,3,0.0,0.0,4.0,0,0,5.228739002932552,3.2136101722717285
0,,2024-07-17 15:26:54,sub_113,3,distance,cathedral,localisation_accuracy,4,15,pinknoise,,,pinknoise_4.wav,84.34617177321817,30,-0.08106841423097821,0,RX81,1,0.0,0.0,2.0,0,0,1.6656891495601176,2.297600746154785
0,,2024-07-17 15:26:58,sub_113,3,distance,cathedral,localisation_accuracy,4,16,pinknoise,,,pinknoise_0.wav,89.05299479619586,30,-0.3460821212941423,4,RX81,5,0.0,0.0,6.0,0,0,11.460410557184751,3.4682092666625977
0,,2024-07-17 15:27:03,sub_113,3,distance,cathedral,localisation_accuracy,4,17,pinknoise,,,pinknoise_8.wav,91.69155579300684,30,-0.4389625552427434,9,RX81,10,0.0,0.0,11.0,0,0,12.398826979472142,3.7663991451263428
0,,2024-07-17 15:27:07,sub_113,3,distance,cathedral,localisation_accuracy,4,18,pinknoise,,,pinknoise_9.wav,92.97497538952685,30,-0.03520713126781483,10,RX81,11,0.0,0.0,12.0,0,0,10.741935483870968,2.546616315841675
0,,2024-07-17 15:27:11,sub_113,3,distance,cathedral,localisation_accuracy,4,19,pinknoise,,,pinknoise_9.wav,92.04840012711402,30,0.046814727948853774,8,RX81,9,0.0,0.0,10.0,0,0,11.885630498533725,2.7184934616088867
0,,2024-07-17 15:27:16,sub_113,3,distance,cathedral,localisation_accuracy,4,20,pinknoise,,,pinknoise_4.wav,90.5097308032455,30,0.241499648633137,5,RX81,6,0.0,0.0,7.0,0,0,9.2316715542522,3.4199366569519043
0,,2024-07-17 15:27:19,sub_113,3,distance,cathedral,localisation_accuracy,4,21,pinknoise,,,pinknoise_0.wav,91.51349817539196,30,-0.3088242002241437,7,RX81,8,0.0,0.0,9.0,0,0,11.445747800586512,1.9697184562683105
0,,2024-07-17 15:27:22,sub_113,3,distance,cathedral,localisation_accuracy,4,22,pinknoise,,,pinknoise_6.wav,91.38493719479013,30,-0.2893512943237989,6,RX81,7,0.0,0.0,8.0,0,0,12.017595307917889,2.396818161010742
0,,2024-07-17 15:27:26,sub_113,3,distance,cathedral,localisation_accuracy,4,23,pinknoise,,,pinknoise_9.wav,89.39429114712269,30,0.10782808567805824,4,RX81,5,0.0,0.0,6.0,0,0,6.313782991202347,2.859130382537842
0,,2024-07-17 15:27:30,sub_113,3,distance,cathedral,localisation_accuracy,4,24,pinknoise,,,pinknoise_3.wav,93.16891647021207,30,0.23836613490312264,10,RX81,11,0.0,0.0,12.0,0,0,9.598240469208212,3.0322625637054443
0,,2024-07-17 15:27:34,sub_113,3,distance,cathedral,localisation_accuracy,4,25,pinknoise,,,pinknoise_1.wav,87.73593205310675,30,0.24049150962278498,2,RX81,3,0.0,0.0,4.0,0,0,4.86217008797654,2.48494815826416
0,,2024-07-17 15:27:38,sub_113,3,distance,cathedral,localisation_accuracy,4,26,pinknoise,,,pinknoise_6.wav,91.7553957614627,30,0.02376521436638468,7,RX81,8,0.0,0.0,9.0,0,0,11.475073313782993,2.4371936321258545
0,,2024-07-17 15:27:41,sub_113,3,distance,cathedral,localisation_accuracy,4,27,pinknoise,,,pinknoise_8.wav,91.68003504899387,30,-0.4549174383187815,9,RX81,10,0.0,0.0,11.0,0,0,12.266862170087977,2.171677827835083
0,,2024-07-17 15:27:45,sub_113,3,distance,cathedral,localisation_accuracy,4,28,pinknoise,,,pinknoise_2.wav,90.56579969646634,30,0.3224157518231332,5,RX81,6,0.0,0.0,7.0,0,0,5.4046920821114375,2.9842584133148193
0,,2024-07-17 15:27:51,sub_113,3,distance,cathedral,localisation_accuracy,4,29,pinknoise,,,pinknoise_4.wav,84.71013204382707,30,0.4634033900708705,0,RX81,1,0.0,0.0,2.0,0,0,1.6510263929618771,4.468453407287598
0,,2024-07-17 15:27:55,sub_113,3,distance,cathedral,localisation_accuracy,4,30,pinknoise,,,pinknoise_1.wav,89.43544731151981,30,0.4106297792144805,3,RX81,4,0.0,0.0,5.0,0,0,9.260997067448681,2.9827983379364014
0,,2024-07-17 15:27:59,sub_113,3,distance,cathedral,localisation_accuracy,4,31,pinknoise,,,pinknoise_5.wav,91.72576261946207,30,-0.4061847085309107,8,RX81,9,0.0,0.0,10.0,0,0,11.958944281524927,2.76522159576416
0,,2024-07-17 15:28:04,sub_113,3,distance,cathedral,localisation_accuracy,4,32,pinknoise,,,pinknoise_3.wav,86.35473085424701,30,0.22156970818604704,1,RX81,2,0.0,0.0,3.0,0,0,2.838709677419355,3.469639539718628
0,,2024-07-17 15:28:09,sub_113,3,distance,cathedral,localisation_accuracy,4,33,pinknoise,,,pinknoise_8.wav,91.95878498656018,30,-0.06645394755377532,9,RX81,10,0.0,0.0,11.0,0,0,10.258064516129034,4.374351501464844
0,,2024-07-17 15:28:13,sub_113,3,distance,cathedral,localisation_accuracy,4,34,pinknoise,,,pinknoise_4.wav,89.51414931805306,30,0.2688775954766687,4,RX81,5,0.0,0.0,6.0,0,0,6.049853372434018,2.5466432571411133
0,,2024-07-17 15:28:16,sub_113,3,distance,cathedral,localisation_accuracy,4,35,pinknoise,,,pinknoise_5.wav,89.46396839184624,30,0.45183850745419707,3,RX81,4,0.0,0.0,5.0,0,0,10.19941348973607,2.281045436859131
0,,2024-07-17 15:28:20,sub_113,3,distance,cathedral,localisation_accuracy,4,36,pinknoise,,,pinknoise_8.wav,87.72011452208093,30,0.21741510779352236,2,RX81,3,0.0,0.0,4.0,0,0,4.143695014662757,2.626725196838379
0,,2024-07-17 15:28:24,sub_113,3,distance,cathedral,localisation_accuracy,4,37,pinknoise,,,pinknoise_6.wav,92.20819088760192,30,0.273730042339591,8,RX81,9,0.0,0.0,10.0,0,0,10.492668621700881,3.155977725982666
0,,2024-07-17 15:28:28,sub_113,3,distance,cathedral,localisation_accuracy,4,38,pinknoise,,,pinknoise_7.wav,92.94372962757372,30,-0.07905031004031515,10,RX81,11,0.0,0.0,12.0,0,0,12.017595307917889,2.407125949859619
0,,2024-07-17 15:28:33,sub_113,3,distance,cathedral,localisation_accuracy,4,39,pinknoise,,,pinknoise_3.wav,85.86285145310501,30,-0.4948289809532014,1,RX81,2,0.0,0.0,3.0,0,0,2.3695014662756604,3.574127197265625
0,,2024-07-17 15:28:36,sub_113,3,distance,cathedral,localisation_accuracy,4,40,pinknoise,,,pinknoise_0.wav,84.32200441202303,30,-0.11687546732860532,0,RX81,1,0.0,0.0,2.0,0,0,1.4750733137829912,2.5935232639312744
0,,2024-07-17 15:28:40,sub_113,3,distance,cathedral,localisation_accuracy,4,41,pinknoise,,,pinknoise_8.wav,91.59157571056926,30,0.003777252702186651,6,RX81,7,0.0,0.0,8.0,0,0,9.099706744868035,2.791675567626953
0,,2024-07-17 15:28:44,sub_113,3,distance,cathedral,localisation_accuracy,4,42,pinknoise,,,pinknoise_0.wav,91.9028979770384,30,0.2283945358373516,7,RX81,8,0.0,0.0,9.0,0,0,11.973607038123168,2.5007834434509277
0,,2024-07-17 15:28:47,sub_113,3,distance,cathedral,localisation_accuracy,4,43,pinknoise,,,pinknoise_1.wav,90.07235799973458,30,-0.3823300253604177,5,RX81,6,0.0,0.0,7.0,0,0,11.70967741935484,2.1941254138946533
0,,2024-07-17 15:28:51,sub_113,3,distance,cathedral,localisation_accuracy,4,44,pinknoise,,,pinknoise_2.wav,89.44597378007083,30,0.4258324672757976,3,RX81,4,0.0,0.0,5.0,0,0,7.208211143695015,2.577880382537842
0,,2024-07-17 15:28:55,sub_113,3,distance,cathedral,localisation_accuracy,4,45,pinknoise,,,pinknoise_1.wav,91.71859716550958,30,-0.4161674618914092,8,RX81,9,0.0,0.0,10.0,0,0,11.665689149560118,2.4220833778381348
0,,2024-07-17 15:28:58,sub_113,3,distance,cathedral,localisation_accuracy,4,46,pinknoise,,,pinknoise_7.wav,91.83375835523465,30,0.1323042991147314,7,RX81,8,0.0,0.0,9.0,0,0,10.126099706744869,2.4069366455078125
0,,2024-07-17 15:29:03,sub_113,3,distance,cathedral,localisation_accuracy,4,47,pinknoise,,,pinknoise_8.wav,89.23130253848197,30,-0.1098003799960876,4,RX81,5,0.0,0.0,6.0,0,0,6.357771260997067,3.765164852142334
0,,2024-07-17 15:29:09,sub_113,3,distance,cathedral,localisation_accuracy,4,48,pinknoise,,,pinknoise_2.wav,92.64377019135596,30,-0.49669472344710974,10,RX81,11,0.0,0.0,12.0,0,0,12.178885630498534,4.188380718231201
0,,2024-07-17 15:29:13,sub_113,3,distance,cathedral,localisation_accuracy,4,49,pinknoise,,,pinknoise_0.wav,91.79285247137994,30,-0.29830706003141483,9,RX81,10,0.0,0.0,11.0,0,0,9.759530791788857,2.7417380809783936
0,,2024-07-17 15:29:17,sub_113,3,distance,cathedral,localisation_accuracy,4,50,pinknoise,,,pinknoise_1.wav,91.37448008432882,30,-0.3041089377180797,6,RX81,7,0.0,0.0,8.0,0,0,9.260997067448681,3.5635204315185547
0,,2024-07-17 15:29:22,sub_113,3,distance,cathedral,localisation_accuracy,4,51,pinknoise,,,pinknoise_7.wav,84.6710897116107,30,0.4045261519487571,0,RX81,1,0.0,0.0,2.0,0,0,1.6510263929618771,3.2184576988220215
0,,2024-07-17 15:29:26,sub_113,3,distance,cathedral,localisation_accuracy,4,52,pinknoise,,,pinknoise_2.wav,86.13336837860201,30,-0.10296179382383741,1,RX81,2,0.0,0.0,3.0,0,0,3.322580645161291,3.1688125133514404
0,,2024-07-17 15:29:30,sub_113,3,distance,cathedral,localisation_accuracy,4,53,pinknoise,,,pinknoise_4.wav,87.87154856909754,30,0.4390688875627877,2,RX81,3,0.0,0.0,4.0,0,0,7.07624633431085,2.8896589279174805
0,,2024-07-17 15:29:33,sub_113,3,distance,cathedral,localisation_accuracy,4,54,pinknoise,,,pinknoise_8.wav,90.46550827792076,30,0.17783203294385463,5,RX81,6,0.0,0.0,7.0,0,0,9.612903225806452,2.109079599380493
