,event_id,timestamp,subject_id,session_index,plane,setup,task,block,trial_index,stim_type,headpose_offset_azi,headpose_offset_ele,stim_filename,stim_level,mgb_level,fluctuation,speaker_id,speaker_proc,speaker_chan,stim_azi,stim_ele,stim_dist,resp_azi,resp_ele,resp_dist,reaction_time
0,,2024-07-01 09:59:17,sub_108,3,distance,cathedral,localisation_accuracy,1,0,pinknoise,,,pinknoise_6.wav,84.29699452387752,30,-0.1538857120766075,0,RX81,1,0.0,0.0,2.0,0,0,8.894428152492669,2.187281370162964
0,,2024-07-01 09:59:20,sub_108,3,distance,cathedral,localisation_accuracy,1,1,pinknoise,,,pinknoise_4.wav,89.13846217790386,30,-0.01517011622787312,3,RX81,4,0.0,0.0,5.0,0,0,10.346041055718477,1.5467214584350586
0,,2024-07-01 09:59:23,sub_108,3,distance,cathedral,localisation_accuracy,1,2,pinknoise,,,pinknoise_3.wav,89.03720191287258,30,-0.3669195559048698,4,RX81,5,0.0,0.0,6.0,0,0,11.005865102639296,2.0310449600219727
0,,2024-07-01 09:59:26,sub_108,3,distance,cathedral,localisation_accuracy,1,3,pinknoise,,,pinknoise_9.wav,91.9763016349477,30,-0.05501312962475913,8,RX81,9,0.0,0.0,10.0,0,0,11.519061583577713,1.5154736042022705
0,,2024-07-01 09:59:28,sub_108,3,distance,cathedral,localisation_accuracy,1,4,pinknoise,,,pinknoise_8.wav,93.00407895362612,30,0.005687961143975739,10,RX81,11,0.0,0.0,12.0,0,0,11.870967741935484,1.1874363422393799
0,,2024-07-01 09:59:32,sub_108,3,distance,cathedral,localisation_accuracy,1,5,pinknoise,,,pinknoise_3.wav,87.71160787967752,30,0.20501193911780757,2,RX81,3,0.0,0.0,4.0,0,0,7.970674486803519,2.218550205230713
0,,2024-07-01 09:59:35,sub_108,3,distance,cathedral,localisation_accuracy,1,6,pinknoise,,,pinknoise_6.wav,92.07743843533424,30,0.4723362464180034,7,RX81,8,0.0,0.0,9.0,0,0,11.665689149560118,2.2498421669006348
0,,2024-07-01 09:59:38,sub_108,3,distance,cathedral,localisation_accuracy,1,7,pinknoise,,,pinknoise_9.wav,90.15186997386637,30,-0.269886147895094,5,RX81,6,0.0,0.0,7.0,0,0,10.331378299120235,1.3592157363891602
0,,2024-07-01 09:59:40,sub_108,3,distance,cathedral,localisation_accuracy,1,8,pinknoise,,,pinknoise_6.wav,91.65765881054432,30,0.09812887348074528,6,RX81,7,0.0,0.0,8.0,0,0,11.137829912023461,1.4061057567596436
0,,2024-07-01 09:59:43,sub_108,3,distance,cathedral,localisation_accuracy,1,9,pinknoise,,,pinknoise_4.wav,91.81516516854347,30,-0.26723493208913773,9,RX81,10,0.0,0.0,11.0,0,0,11.695014662756599,1.437335729598999
0,,2024-07-01 09:59:46,sub_108,3,distance,cathedral,localisation_accuracy,1,10,pinknoise,,,pinknoise_4.wav,85.93794240664009,30,-0.3865711220592907,1,RX81,2,0.0,0.0,3.0,0,0,11.196480938416423,1.6404657363891602
0,,2024-07-01 09:59:48,sub_108,3,distance,cathedral,localisation_accuracy,1,11,pinknoise,,,pinknoise_6.wav,89.25434370515836,30,0.1502600952844313,3,RX81,4,0.0,0.0,5.0,0,0,11.519061583577713,1.2967190742492676
0,,2024-07-01 09:59:51,sub_108,3,distance,cathedral,localisation_accuracy,1,12,pinknoise,,,pinknoise_1.wav,92.1735158601341,30,0.2362723753374696,9,RX81,10,0.0,0.0,11.0,0,0,11.812316715542522,1.468601942062378
0,,2024-07-01 09:59:53,sub_108,3,distance,cathedral,localisation_accuracy,1,13,pinknoise,,,pinknoise_1.wav,90.31353138825304,30,-0.039950512305177543,5,RX81,6,0.0,0.0,7.0,0,0,11.958944281524927,1.3904616832733154
0,,2024-07-01 09:59:56,sub_108,3,distance,cathedral,localisation_accuracy,1,14,pinknoise,,,pinknoise_8.wav,93.1134528177205,30,0.15987509784510545,10,RX81,11,0.0,0.0,12.0,0,0,12.208211143695015,1.5466992855072021
0,,2024-07-01 09:59:59,sub_108,3,distance,cathedral,localisation_accuracy,1,15,pinknoise,,,pinknoise_3.wav,89.26841524096423,30,-0.06038484314163095,4,RX81,5,0.0,0.0,6.0,0,0,11.797653958944283,1.499828577041626
0,,2024-07-01 10:00:02,sub_108,3,distance,cathedral,localisation_accuracy,1,16,pinknoise,,,pinknoise_4.wav,87.3060217578223,30,-0.38048523621772823,2,RX81,3,0.0,0.0,4.0,0,0,11.211143695014664,1.8334648609161377
0,,2024-07-01 10:00:05,sub_108,3,distance,cathedral,localisation_accuracy,1,17,pinknoise,,,pinknoise_6.wav,86.45036257326782,30,0.3628593597892128,1,RX81,2,0.0,0.0,3.0,0,0,10.859237536656892,1.6716930866241455
0,,2024-07-01 10:00:09,sub_108,3,distance,cathedral,localisation_accuracy,1,18,pinknoise,,,pinknoise_7.wav,84.68051221875356,30,0.41872520502279353,0,RX81,1,0.0,0.0,2.0,0,0,5.741935483870968,2.9841489791870117
0,,2024-07-01 10:00:12,sub_108,3,distance,cathedral,localisation_accuracy,1,19,pinknoise,,,pinknoise_2.wav,91.57006721908874,30,-0.02686813097441587,6,RX81,7,0.0,0.0,8.0,0,0,7.574780058651028,1.7967042922973633
0,,2024-07-01 10:00:15,sub_108,3,distance,cathedral,localisation_accuracy,1,20,pinknoise,,,pinknoise_5.wav,92.00175899077163,30,-0.01909806419484339,8,RX81,9,0.0,0.0,10.0,0,0,9.994134897360704,1.8591995239257812
0,,2024-07-01 10:00:17,sub_108,3,distance,cathedral,localisation_accuracy,1,21,pinknoise,,,pinknoise_6.wav,91.47281314465917,30,-0.36439973382701585,7,RX81,8,0.0,0.0,9.0,0,0,10.565982404692082,1.4998505115509033
0,,2024-07-01 10:00:20,sub_108,3,distance,cathedral,localisation_accuracy,1,22,pinknoise,,,pinknoise_9.wav,87.45029928919624,30,-0.17352073796664935,2,RX81,3,0.0,0.0,4.0,0,0,9.451612903225808,1.6404647827148438
0,,2024-07-01 10:00:23,sub_108,3,distance,cathedral,localisation_accuracy,1,23,pinknoise,,,pinknoise_7.wav,86.13343313795,30,-0.10286736393574081,1,RX81,2,0.0,0.0,3.0,0,0,8.865102639296188,1.5935709476470947
0,,2024-07-01 10:00:26,sub_108,3,distance,cathedral,localisation_accuracy,1,24,pinknoise,,,pinknoise_9.wav,90.10414534966287,30,-0.33742825172537216,5,RX81,6,0.0,0.0,7.0,0,0,10.272727272727273,1.9216952323913574
0,,2024-07-01 10:00:29,sub_108,3,distance,cathedral,localisation_accuracy,1,25,pinknoise,,,pinknoise_0.wav,91.7554323082335,30,0.2382716885927374,6,RX81,7,0.0,0.0,8.0,0,0,10.624633431085044,1.359215259552002
0,,2024-07-01 10:00:31,sub_108,3,distance,cathedral,localisation_accuracy,1,26,pinknoise,,,pinknoise_0.wav,91.76360516177601,30,-0.35340740868513876,8,RX81,9,0.0,0.0,10.0,0,0,11.064516129032258,1.6560890674591064
0,,2024-07-01 10:00:34,sub_108,3,distance,cathedral,localisation_accuracy,1,27,pinknoise,,,pinknoise_4.wav,89.04215552033067,30,-0.151964761822173,3,RX81,4,0.0,0.0,5.0,0,0,10.624633431085044,1.7029597759246826
0,,2024-07-01 10:00:37,sub_108,3,distance,cathedral,localisation_accuracy,1,28,pinknoise,,,pinknoise_1.wav,92.65276328311111,30,-0.4842584929673178,10,RX81,11,0.0,0.0,12.0,0,0,11.152492668621703,1.4060847759246826
0,,2024-07-01 10:00:39,sub_108,3,distance,cathedral,localisation_accuracy,1,29,pinknoise,,,pinknoise_9.wav,92.08065136284068,30,0.4768451108118371,7,RX81,8,0.0,0.0,9.0,0,0,11.137829912023461,1.2498459815979004
0,,2024-07-01 10:00:42,sub_108,3,distance,cathedral,localisation_accuracy,1,30,pinknoise,,,pinknoise_9.wav,91.99914636285301,30,-0.009784946149604568,9,RX81,10,0.0,0.0,11.0,0,0,11.12316715542522,1.3748579025268555
0,,2024-07-01 10:00:45,sub_108,3,distance,cathedral,localisation_accuracy,1,31,pinknoise,,,pinknoise_2.wav,84.1037140564365,30,-0.43836524617696315,0,RX81,1,0.0,0.0,2.0,0,0,3.645161290322581,2.4372663497924805
0,,2024-07-01 10:00:49,sub_108,3,distance,cathedral,localisation_accuracy,1,32,pinknoise,,,pinknoise_1.wav,89.5344678897392,30,0.29626426763967684,4,RX81,5,0.0,0.0,6.0,0,0,6.0205278592375375,2.156035900115967
0,,2024-07-01 10:00:52,sub_108,3,distance,cathedral,localisation_accuracy,1,33,pinknoise,,,pinknoise_8.wav,86.01150467885063,30,-0.2801319935978176,1,RX81,2,0.0,0.0,3.0,0,0,6.651026392961878,2.390393018722534
0,,2024-07-01 10:00:55,sub_108,3,distance,cathedral,localisation_accuracy,1,34,pinknoise,,,pinknoise_3.wav,90.39816788712943,30,0.08113876020733535,5,RX81,6,0.0,0.0,7.0,0,0,8.63049853372434,1.7811195850372314
0,,2024-07-01 10:00:59,sub_108,3,distance,cathedral,localisation_accuracy,1,35,pinknoise,,,pinknoise_7.wav,84.68791656836628,30,0.42988768974359504,0,RX81,1,0.0,0.0,2.0,0,0,3.806451612903226,2.2497763633728027
0,,2024-07-01 10:01:01,sub_108,3,distance,cathedral,localisation_accuracy,1,36,pinknoise,,,pinknoise_2.wav,87.4928189114303,30,-0.11225137293268939,2,RX81,3,0.0,0.0,4.0,0,0,5.521994134897361,1.265491008758545
0,,2024-07-01 10:01:04,sub_108,3,distance,cathedral,localisation_accuracy,1,37,pinknoise,,,pinknoise_2.wav,91.72732630900994,30,-0.015018268744707908,7,RX81,8,0.0,0.0,9.0,0,0,9.598240469208212,1.7341909408569336
0,,2024-07-01 10:01:07,sub_108,3,distance,cathedral,localisation_accuracy,1,38,pinknoise,,,pinknoise_0.wav,92.98997655752073,30,-0.014135092215781464,10,RX81,11,0.0,0.0,12.0,0,0,10.375366568914957,1.484290599822998
0,,2024-07-01 10:01:09,sub_108,3,distance,cathedral,localisation_accuracy,1,39,pinknoise,,,pinknoise_7.wav,91.30201067015602,30,-0.40618049012890745,6,RX81,7,0.0,0.0,8.0,0,0,10.653958944281525,1.546722173690796
0,,2024-07-01 10:01:13,sub_108,3,distance,cathedral,localisation_accuracy,1,40,pinknoise,,,pinknoise_0.wav,91.86131492565363,30,-0.21670030639173687,8,RX81,9,0.0,0.0,10.0,0,0,11.020527859237538,1.9529495239257812
0,,2024-07-01 10:01:15,sub_108,3,distance,cathedral,localisation_accuracy,1,41,pinknoise,,,pinknoise_1.wav,89.18065773756625,30,0.04496209714086663,3,RX81,4,0.0,0.0,5.0,0,0,9.656891495601174,1.531099557876587
0,,2024-07-01 10:01:18,sub_108,3,distance,cathedral,localisation_accuracy,1,42,pinknoise,,,pinknoise_3.wav,89.25393731357353,30,-0.07967190432983984,4,RX81,5,0.0,0.0,6.0,0,0,8.92375366568915,1.640444040298462
0,,2024-07-01 10:01:21,sub_108,3,distance,cathedral,localisation_accuracy,1,43,pinknoise,,,pinknoise_9.wav,92.3255487955081,30,0.4524568720312985,9,RX81,10,0.0,0.0,11.0,0,0,10.331378299120235,1.7341909408569336
0,,2024-07-01 10:01:24,sub_108,3,distance,cathedral,localisation_accuracy,1,44,pinknoise,,,pinknoise_6.wav,90.15509228270432,30,-0.26532024818585,5,RX81,6,0.0,0.0,7.0,0,0,10.903225806451614,2.281045436859131
0,,2024-07-01 10:01:27,sub_108,3,distance,cathedral,localisation_accuracy,1,45,pinknoise,,,pinknoise_4.wav,92.96776639223467,30,-0.045328292316830554,10,RX81,11,0.0,0.0,12.0,0,0,11.313782991202347,1.4217300415039062
0,,2024-07-01 10:01:31,sub_108,3,distance,cathedral,localisation_accuracy,1,46,pinknoise,,,pinknoise_0.wav,85.88304326767994,30,-0.46575761034265806,1,RX81,2,0.0,0.0,3.0,0,0,4.730205278592376,2.7497637271881104
0,,2024-07-01 10:01:34,sub_108,3,distance,cathedral,localisation_accuracy,1,47,pinknoise,,,pinknoise_2.wav,89.43970508983494,30,0.4167780940616581,3,RX81,4,0.0,0.0,5.0,0,0,6.607038123167156,1.702942132949829
0,,2024-07-01 10:01:37,sub_108,3,distance,cathedral,localisation_accuracy,1,48,pinknoise,,,pinknoise_7.wav,92.0799884393132,30,0.10404344031365242,9,RX81,10,0.0,0.0,11.0,0,0,10.917888563049853,2.0935375690460205
0,,2024-07-01 10:01:40,sub_108,3,distance,cathedral,localisation_accuracy,1,49,pinknoise,,,pinknoise_1.wav,91.41184299779248,30,-0.44748993336021925,7,RX81,8,0.0,0.0,9.0,0,0,10.903225806451614,1.4998490810394287
0,,2024-07-01 10:01:43,sub_108,3,distance,cathedral,localisation_accuracy,1,50,pinknoise,,,pinknoise_7.wav,91.4974567923521,30,-0.13009274499626344,6,RX81,7,0.0,0.0,8.0,0,0,9.935483870967742,1.7966835498809814
0,,2024-07-01 10:01:46,sub_108,3,distance,cathedral,localisation_accuracy,1,51,pinknoise,,,pinknoise_7.wav,89.25457211743989,30,-0.0788264981382436,4,RX81,5,0.0,0.0,6.0,0,0,9.026392961876834,1.7341876029968262
0,,2024-07-01 10:01:48,sub_108,3,distance,cathedral,localisation_accuracy,1,52,pinknoise,,,pinknoise_5.wav,92.2792412388325,30,0.3751766987859321,8,RX81,9,0.0,0.0,10.0,0,0,10.258064516129034,1.5310983657836914
0,,2024-07-01 10:01:52,sub_108,3,distance,cathedral,localisation_accuracy,1,53,pinknoise,,,pinknoise_9.wav,84.5182270597691,30,0.1750967033640629,0,RX81,1,0.0,0.0,2.0,0,0,4.099706744868035,2.077934741973877
0,,2024-07-01 10:01:54,sub_108,3,distance,cathedral,localisation_accuracy,1,54,pinknoise,,,pinknoise_4.wav,87.22718849773146,30,-0.4929632985209659,2,RX81,3,0.0,0.0,4.0,0,0,5.9178885630498534,1.4842827320098877
0,,2024-07-01 10:03:30,sub_108,3,distance,cathedral,localisation_accuracy,2,0,pinknoise,,,pinknoise_8.wav,90.22565300118215,30,-0.16516217559825153,5,RX81,6,0.0,0.0,7.0,0,0,9.173020527859238,2.4997594356536865
0,,2024-07-01 10:03:33,sub_108,3,distance,cathedral,localisation_accuracy,2,1,pinknoise,,,pinknoise_4.wav,91.7875904707175,30,-0.3056300630450668,9,RX81,10,0.0,0.0,11.0,0,0,10.038123167155426,1.640465259552002
0,,2024-07-01 10:03:36,sub_108,3,distance,cathedral,localisation_accuracy,2,2,pinknoise,,,pinknoise_2.wav,89.56874322646345,30,0.3425189286072444,4,RX81,5,0.0,0.0,6.0,0,0,9.378299120234605,1.3748369216918945
0,,2024-07-01 10:03:39,sub_108,3,distance,cathedral,localisation_accuracy,2,3,pinknoise,,,pinknoise_0.wav,87.89275187791719,30,0.4702336298980877,2,RX81,3,0.0,0.0,4.0,0,0,6.049853372434018,1.9997947216033936
0,,2024-07-01 10:03:42,sub_108,3,distance,cathedral,localisation_accuracy,2,4,pinknoise,,,pinknoise_2.wav,89.42098502146607,30,0.38975522907743965,3,RX81,4,0.0,0.0,5.0,0,0,7.589442815249267,1.6248414516448975
0,,2024-07-01 10:03:45,sub_108,3,distance,cathedral,localisation_accuracy,2,5,pinknoise,,,pinknoise_9.wav,92.11207583092053,30,0.13703462502837827,8,RX81,9,0.0,0.0,10.0,0,0,9.612903225806452,1.5779497623443604
0,,2024-07-01 10:03:47,sub_108,3,distance,cathedral,localisation_accuracy,2,6,pinknoise,,,pinknoise_3.wav,91.41861654667227,30,-0.43827044660790304,7,RX81,8,0.0,0.0,9.0,0,0,10.360703812316716,1.3279871940612793
0,,2024-07-01 10:03:49,sub_108,3,distance,cathedral,localisation_accuracy,2,7,pinknoise,,,pinknoise_7.wav,91.57970230765918,30,-0.013143890820463522,6,RX81,7,0.0,0.0,8.0,0,0,9.173020527859238,1.2030220031738281
0,,2024-07-01 10:03:53,sub_108,3,distance,cathedral,localisation_accuracy,2,8,pinknoise,,,pinknoise_7.wav,84.18880829843266,30,-0.31345506868695794,0,RX81,1,0.0,0.0,2.0,0,0,3.263929618768329,2.312293767929077
0,,2024-07-01 10:03:55,sub_108,3,distance,cathedral,localisation_accuracy,2,9,pinknoise,,,pinknoise_8.wav,86.32092720547737,30,0.17178444674740656,1,RX81,2,0.0,0.0,3.0,0,0,4.2316715542522,1.452958583831787
0,,2024-07-01 10:04:00,sub_108,3,distance,cathedral,localisation_accuracy,2,10,pinknoise,,,pinknoise_3.wav,93.30730902114459,30,0.4351083747833481,10,RX81,11,0.0,0.0,12.0,0,0,10.404692082111438,3.1090941429138184
0,,2024-07-01 10:04:03,sub_108,3,distance,cathedral,localisation_accuracy,2,11,pinknoise,,,pinknoise_2.wav,85.93798360225637,30,-0.38651162187755417,1,RX81,2,0.0,0.0,3.0,0,0,4.700879765395895,2.2029263973236084
0,,2024-07-01 10:04:07,sub_108,3,distance,cathedral,localisation_accuracy,2,12,pinknoise,,,pinknoise_0.wav,93.18036516562404,30,0.2545935138174973,10,RX81,11,0.0,0.0,12.0,0,0,10.140762463343108,2.218550443649292
0,,2024-07-01 10:04:10,sub_108,3,distance,cathedral,localisation_accuracy,2,13,pinknoise,,,pinknoise_1.wav,89.145018867585,30,-0.005834186786336626,3,RX81,4,0.0,0.0,5.0,0,0,5.49266862170088,2.046687126159668
0,,2024-07-01 10:04:13,sub_108,3,distance,cathedral,localisation_accuracy,2,14,pinknoise,,,pinknoise_5.wav,90.00899467490365,30,-0.47163231081515744,5,RX81,6,0.0,0.0,7.0,0,0,8.967741935483872,1.6092169284820557
0,,2024-07-01 10:04:15,sub_108,3,distance,cathedral,localisation_accuracy,2,15,pinknoise,,,pinknoise_9.wav,91.28319505097812,30,-0.4326244501530905,6,RX81,7,0.0,0.0,8.0,0,0,10.17008797653959,1.796682357788086
0,,2024-07-01 10:04:18,sub_108,3,distance,cathedral,localisation_accuracy,2,16,pinknoise,,,pinknoise_9.wav,91.86176340084344,30,-0.20223847981557574,9,RX81,10,0.0,0.0,11.0,0,0,11.035190615835777,1.5154750347137451
0,,2024-07-01 10:04:22,sub_108,3,distance,cathedral,localisation_accuracy,2,17,pinknoise,,,pinknoise_9.wav,84.27494171026524,30,-0.18648197552407253,0,RX81,1,0.0,0.0,2.0,0,0,3.2785923753665696,2.234182834625244
0,,2024-07-01 10:04:24,sub_108,3,distance,cathedral,localisation_accuracy,2,18,pinknoise,,,pinknoise_3.wav,87.23166639861321,30,-0.48658575675696336,2,RX81,3,0.0,0.0,4.0,0,0,5.140762463343109,1.5623457431793213
0,,2024-07-01 10:04:28,sub_108,3,distance,cathedral,localisation_accuracy,2,19,pinknoise,,,pinknoise_2.wav,92.0069874599038,30,0.37363631788886353,7,RX81,8,0.0,0.0,9.0,0,0,9.906158357771261,2.109161615371704
0,,2024-07-01 10:04:31,sub_108,3,distance,cathedral,localisation_accuracy,2,20,pinknoise,,,pinknoise_5.wav,92.06787688888525,30,0.07438196719376644,8,RX81,9,0.0,0.0,10.0,0,0,10.697947214076247,1.8592572212219238
0,,2024-07-01 10:04:34,sub_108,3,distance,cathedral,localisation_accuracy,2,21,pinknoise,,,pinknoise_1.wav,89.62274960519566,30,0.4155440262578449,4,RX81,5,0.0,0.0,6.0,0,0,8.439882697947215,1.9373204708099365
0,,2024-07-01 10:04:37,sub_108,3,distance,cathedral,localisation_accuracy,2,22,pinknoise,,,pinknoise_1.wav,90.25004435221422,30,-0.13046123347064453,5,RX81,6,0.0,0.0,7.0,0,0,7.398826979472142,2.077934980392456
0,,2024-07-01 10:04:40,sub_108,3,distance,cathedral,localisation_accuracy,2,23,pinknoise,,,pinknoise_0.wav,91.64839602146758,30,-0.12380772551486174,7,RX81,8,0.0,0.0,9.0,0,0,10.492668621700881,1.546722650527954
0,,2024-07-01 10:04:42,sub_108,3,distance,cathedral,localisation_accuracy,2,24,pinknoise,,,pinknoise_0.wav,92.35420777604624,30,0.4933815609233837,9,RX81,10,0.0,0.0,11.0,0,0,11.0791788856305,1.4529569149017334
0,,2024-07-01 10:04:45,sub_108,3,distance,cathedral,localisation_accuracy,2,25,pinknoise,,,pinknoise_6.wav,87.72737926919837,30,0.22801155448609134,2,RX81,3,0.0,0.0,4.0,0,0,6.44574780058651,1.7029380798339844
0,,2024-07-01 10:04:48,sub_108,3,distance,cathedral,localisation_accuracy,2,26,pinknoise,,,pinknoise_4.wav,86.23229623955437,30,0.041639805299299226,1,RX81,2,0.0,0.0,3.0,0,0,3.8797653958944283,1.8123068809509277
0,,2024-07-01 10:04:51,sub_108,3,distance,cathedral,localisation_accuracy,2,27,pinknoise,,,pinknoise_7.wav,89.36139627808993,30,0.06377837413853493,4,RX81,5,0.0,0.0,6.0,0,0,6.914956011730206,1.5467698574066162
0,,2024-07-01 10:04:54,sub_108,3,distance,cathedral,localisation_accuracy,2,28,pinknoise,,,pinknoise_9.wav,84.08363758026283,30,-0.46775887533327565,0,RX81,1,0.0,0.0,2.0,0,0,3.93841642228739,1.671694278717041
0,,2024-07-01 10:04:57,sub_108,3,distance,cathedral,localisation_accuracy,2,29,pinknoise,,,pinknoise_8.wav,92.90692747478721,30,-0.13060779294059954,10,RX81,11,0.0,0.0,12.0,0,0,9.627565982404693,2.0935370922088623
0,,2024-07-01 10:05:00,sub_108,3,distance,cathedral,localisation_accuracy,2,30,pinknoise,,,pinknoise_8.wav,89.10804252727067,30,-0.05844600177522963,3,RX81,4,0.0,0.0,5.0,0,0,7.120234604105573,1.452974557876587
0,,2024-07-01 10:05:04,sub_108,3,distance,cathedral,localisation_accuracy,2,31,pinknoise,,,pinknoise_0.wav,91.528116818928,30,-0.08654919588448962,6,RX81,7,0.0,0.0,8.0,0,0,8.190615835777127,2.952853202819824
0,,2024-07-01 10:05:06,sub_108,3,distance,cathedral,localisation_accuracy,2,32,pinknoise,,,pinknoise_0.wav,92.08603285919112,30,0.10010254690940235,8,RX81,9,0.0,0.0,10.0,0,0,10.19941348973607,1.5467007160186768
0,,2024-07-01 10:05:09,sub_108,3,distance,cathedral,localisation_accuracy,2,33,pinknoise,,,pinknoise_2.wav,89.25304945109465,30,-0.08085428370980674,4,RX81,5,0.0,0.0,6.0,0,0,8.410557184750735,1.6873362064361572
0,,2024-07-01 10:05:12,sub_108,3,distance,cathedral,localisation_accuracy,2,34,pinknoise,,,pinknoise_4.wav,91.9879452847293,30,0.34701366613076934,7,RX81,8,0.0,0.0,9.0,0,0,10.595307917888563,1.8904478549957275
0,,2024-07-01 10:05:15,sub_108,3,distance,cathedral,localisation_accuracy,2,35,pinknoise,,,pinknoise_0.wav,93.20295460456904,30,0.286637327900654,10,RX81,11,0.0,0.0,12.0,0,0,10.991202346041057,1.5623443126678467
0,,2024-07-01 10:05:19,sub_108,3,distance,cathedral,localisation_accuracy,2,36,pinknoise,,,pinknoise_9.wav,84.22607594915664,30,-0.25858367288317896,0,RX81,1,0.0,0.0,2.0,0,0,3.131964809384164,2.593506336212158
0,,2024-07-01 10:05:22,sub_108,3,distance,cathedral,localisation_accuracy,2,37,pinknoise,,,pinknoise_3.wav,90.51326852289142,30,0.24659873812624955,5,RX81,6,0.0,0.0,7.0,0,0,7.090909090909092,2.3904130458831787
0,,2024-07-01 10:05:26,sub_108,3,distance,cathedral,localisation_accuracy,2,38,pinknoise,,,pinknoise_3.wav,86.12021838372398,30,-0.12213049303305101,1,RX81,2,0.0,0.0,3.0,0,0,5.008797653958944,1.96854567527771
0,,2024-07-01 10:05:28,sub_108,3,distance,cathedral,localisation_accuracy,2,39,pinknoise,,,pinknoise_7.wav,91.87281066069538,30,0.4073771363837564,6,RX81,7,0.0,0.0,8.0,0,0,8.689149560117302,1.6404469013214111
0,,2024-07-01 10:05:32,sub_108,3,distance,cathedral,localisation_accuracy,2,40,pinknoise,,,pinknoise_0.wav,87.25823958859854,30,-0.44871116403232525,2,RX81,3,0.0,0.0,4.0,0,0,5.434017595307918,2.1091833114624023
0,,2024-07-01 10:05:35,sub_108,3,distance,cathedral,localisation_accuracy,2,41,pinknoise,,,pinknoise_1.wav,91.74872112289157,30,-0.3596677261184045,9,RX81,10,0.0,0.0,11.0,0,0,10.375366568914957,1.7498326301574707
0,,2024-07-01 10:05:38,sub_108,3,distance,cathedral,localisation_accuracy,2,42,pinknoise,,,pinknoise_2.wav,89.24979195053554,30,0.1437449107952723,3,RX81,4,0.0,0.0,5.0,0,0,3.4398826979472146,2.0622920989990234
0,,2024-07-01 10:05:41,sub_108,3,distance,cathedral,localisation_accuracy,2,43,pinknoise,,,pinknoise_2.wav,92.29830898985065,30,0.40245970279916854,8,RX81,9,0.0,0.0,10.0,0,0,10.258064516129034,1.6873369216918945
0,,2024-07-01 10:05:43,sub_108,3,distance,cathedral,localisation_accuracy,2,44,pinknoise,,,pinknoise_6.wav,92.22065028023734,30,0.3031308995333821,9,RX81,10,0.0,0.0,11.0,0,0,10.991202346041057,1.3436124324798584
0,,2024-07-01 10:05:46,sub_108,3,distance,cathedral,localisation_accuracy,2,45,pinknoise,,,pinknoise_1.wav,90.52706864891593,30,0.2664977588320826,5,RX81,6,0.0,0.0,7.0,0,0,8.469208211143696,1.4529595375061035
0,,2024-07-01 10:05:50,sub_108,3,distance,cathedral,localisation_accuracy,2,46,pinknoise,,,pinknoise_2.wav,84.48825409488849,30,0.13031411531911263,0,RX81,1,0.0,0.0,2.0,0,0,3.483870967741936,2.7028703689575195
0,,2024-07-01 10:05:52,sub_108,3,distance,cathedral,localisation_accuracy,2,47,pinknoise,,,pinknoise_2.wav,85.98408143292355,30,-0.31985604046584193,1,RX81,2,0.0,0.0,3.0,0,0,4.187683284457479,1.093609094619751
0,,2024-07-01 10:05:55,sub_108,3,distance,cathedral,localisation_accuracy,2,48,pinknoise,,,pinknoise_6.wav,91.44388259209707,30,-0.20602705035884228,6,RX81,7,0.0,0.0,8.0,0,0,8.0,2.156033992767334
0,,2024-07-01 10:05:59,sub_108,3,distance,cathedral,localisation_accuracy,2,49,pinknoise,,,pinknoise_3.wav,89.36736842940667,30,0.312491177124922,3,RX81,4,0.0,0.0,5.0,0,0,6.328445747800586,2.249777317047119
0,,2024-07-01 10:06:02,sub_108,3,distance,cathedral,localisation_accuracy,2,50,pinknoise,,,pinknoise_3.wav,89.6497241117174,30,0.4520835775033145,4,RX81,5,0.0,0.0,6.0,0,0,5.008797653958944,2.2029261589050293
0,,2024-07-01 10:06:05,sub_108,3,distance,cathedral,localisation_accuracy,2,51,pinknoise,,,pinknoise_3.wav,92.69232831518335,30,-0.4294831077699717,10,RX81,11,0.0,0.0,12.0,0,0,10.580645161290324,1.8279521465301514
0,,2024-07-01 10:06:07,sub_108,3,distance,cathedral,localisation_accuracy,2,52,pinknoise,,,pinknoise_7.wav,91.9780285299355,30,-0.05257819870215019,8,RX81,9,0.0,0.0,10.0,0,0,9.788856304985337,1.0311329364776611
0,,2024-07-01 10:06:10,sub_108,3,distance,cathedral,localisation_accuracy,2,53,pinknoise,,,pinknoise_0.wav,87.61323168212897,30,0.06194319007502347,2,RX81,3,0.0,0.0,4.0,0,0,3.5278592375366573,2.01541805267334
0,,2024-07-01 10:06:15,sub_108,3,distance,cathedral,localisation_accuracy,2,54,pinknoise,,,pinknoise_6.wav,91.58480341233425,30,-0.2111701164210743,7,RX81,8,0.0,0.0,9.0,0,0,10.565982404692082,3.0465965270996094
0,,2024-07-01 10:06:54,sub_108,3,distance,cathedral,localisation_accuracy,3,0,babble,,,babble-reversed_n13_p307-two-p229-one-p256-five-p248-nine-p284-three-p268-eight.wav,87.87464757488863,30,0.4436218339701029,2,RX81,3,0.0,0.0,4.0,0,0,6.900293255131965,2.452885866165161
0,,2024-07-01 10:06:57,sub_108,3,distance,cathedral,localisation_accuracy,3,1,babble,,,babble-reversed_n13_p229-two-p307-five-p318-four-p284-one-p248-nine-p268-eight.wav,92.05908370495362,30,0.061933040757242375,8,RX81,9,0.0,0.0,10.0,0,0,9.964809384164223,1.6717395782470703
0,,2024-07-01 10:07:00,sub_108,3,distance,cathedral,localisation_accuracy,3,2,babble,,,babble-reversed_n13_p318-five-p229-three-p256-four-p268-eight-p248-one-p245-nine.wav,86.45165387218734,30,0.3647716829583444,1,RX81,2,0.0,0.0,3.0,0,0,3.8944281524926687,2.0310637950897217
0,,2024-07-01 10:07:04,sub_108,3,distance,cathedral,localisation_accuracy,3,3,babble,,,babble-reversed_n13_p307-five-p229-three-p318-nine-p245-four-p268-eight-p284-two.wav,91.68737832255027,30,-0.07012791798485496,7,RX81,8,0.0,0.0,9.0,0,0,10.624633431085044,2.5935046672821045
0,,2024-07-01 10:07:07,sub_108,3,distance,cathedral,localisation_accuracy,3,4,babble,,,babble-reversed_n13_p256-three-p318-one-p307-two-p284-nine-p268-four-p245-eight.wav,92.06930677774969,30,0.08897856260125026,9,RX81,10,0.0,0.0,11.0,0,0,10.609970674486805,2.218550682067871
0,,2024-07-01 10:07:10,sub_108,3,distance,cathedral,localisation_accuracy,3,5,babble,,,babble-reversed_n13_p229-nine-p256-four-p318-three-p268-eight-p248-two-p284-five.wav,89.15875772292615,30,0.013737701791815882,3,RX81,4,0.0,0.0,5.0,0,0,7.604105571847509,2.281071662902832
0,,2024-07-01 10:07:13,sub_108,3,distance,cathedral,localisation_accuracy,3,6,babble,,,babble-reversed_n13_p229-nine-p318-one-p307-two-p248-eight-p245-five-p284-four.wav,90.32980586973356,30,-0.01670455677058369,5,RX81,6,0.0,0.0,7.0,0,0,9.026392961876834,1.8904261589050293
0,,2024-07-01 10:07:16,sub_108,3,distance,cathedral,localisation_accuracy,3,7,babble,,,babble-reversed_n13_p256-eight-p229-three-p307-nine-p245-five-p248-four-p268-two.wav,84.50788535508016,30,0.15963765304903144,0,RX81,1,0.0,0.0,2.0,0,0,3.4105571847507337,1.7810795307159424
0,,2024-07-01 10:07:19,sub_108,3,distance,cathedral,localisation_accuracy,3,8,babble,,,babble-reversed_n13_p256-eight-p229-three-p307-nine-p245-five-p248-four-p268-two.wav,91.32873024531057,30,-0.3685874602941043,6,RX81,7,0.0,0.0,8.0,0,0,6.782991202346041,1.5935943126678467
0,,2024-07-01 10:07:22,sub_108,3,distance,cathedral,localisation_accuracy,3,9,babble,,,babble-reversed_n13_p307-two-p229-one-p256-five-p248-nine-p284-three-p268-eight.wav,89.07312986659383,30,-0.31949427071402514,4,RX81,5,0.0,0.0,6.0,0,0,8.410557184750735,1.8435544967651367
0,,2024-07-01 10:07:25,sub_108,3,distance,cathedral,localisation_accuracy,3,10,babble,,,babble-reversed_n13_p229-five-p318-two-p307-eight-p268-three-p248-four-p245-one.wav,93.27898052335031,30,0.3947319638945169,10,RX81,11,0.0,0.0,12.0,0,0,10.19941348973607,1.8592267036437988
0,,2024-07-01 10:07:28,sub_108,3,distance,cathedral,localisation_accuracy,3,11,babble,,,babble-reversed_n13_p229-two-p307-five-p318-four-p284-one-p248-nine-p268-eight.wav,90.46161007761457,30,0.17222618731894057,5,RX81,6,0.0,0.0,7.0,0,0,10.624633431085044,2.2497987747192383
0,,2024-07-01 10:07:31,sub_108,3,distance,cathedral,localisation_accuracy,3,12,babble,,,babble-reversed_n13_p229-nine-p256-four-p318-three-p268-eight-p248-two-p284-five.wav,91.87837892492371,30,0.41542271548912235,6,RX81,7,0.0,0.0,8.0,0,0,8.483870967741936,2.046687126159668
0,,2024-07-01 10:07:35,sub_108,3,distance,cathedral,localisation_accuracy,3,13,babble,,,babble-reversed_n13_p318-five-p229-four-p256-eight-p284-one-p245-three-p248-two.wav,85.93494743745342,30,-0.3908965341623746,1,RX81,2,0.0,0.0,3.0,0,0,4.055718475073314,2.2497975826263428
0,,2024-07-01 10:07:38,sub_108,3,distance,cathedral,localisation_accuracy,3,14,babble,,,babble-reversed_n13_p256-eight-p318-five-p307-four-p245-three-p268-one-p284-nine.wav,91.37873398203584,30,-0.49251330104996427,7,RX81,8,0.0,0.0,9.0,0,0,10.47800586510264,2.5310280323028564
0,,2024-07-01 10:07:42,sub_108,3,distance,cathedral,localisation_accuracy,3,15,babble,,,babble-reversed_n13_p229-two-p318-eight-p256-three-p268-one-p248-nine-p284-five.wav,92.18396246672668,30,0.2510777856878642,9,RX81,10,0.0,0.0,11.0,0,0,9.935483870967742,2.6560206413269043
0,,2024-07-01 10:07:46,sub_108,3,distance,cathedral,localisation_accuracy,3,16,babble,,,babble-reversed_n13_p256-five-p307-nine-p318-three-p284-eight-p268-one-p248-two.wav,87.37306561589975,30,-0.28449080170262164,2,RX81,3,0.0,0.0,4.0,0,0,6.152492668621701,2.4372854232788086
0,,2024-07-01 10:07:49,sub_108,3,distance,cathedral,localisation_accuracy,3,17,babble,,,babble-reversed_n13_p318-three-p229-one-p256-eight-p245-five-p248-four-p284-nine.wav,92.66645186774925,30,-0.4653189674989753,10,RX81,11,0.0,0.0,12.0,0,0,10.052785923753666,2.0622894763946533
0,,2024-07-01 10:07:52,sub_108,3,distance,cathedral,localisation_accuracy,3,18,babble,,,babble-reversed_n13_p229-one-p318-eight-p256-three-p268-two-p245-five-p248-nine.wav,89.33719546574218,30,0.03141207852874961,4,RX81,5,0.0,0.0,6.0,0,0,8.718475073313783,1.4529783725738525
0,,2024-07-01 10:07:55,sub_108,3,distance,cathedral,localisation_accuracy,3,19,babble,,,babble-reversed_n13_p256-three-p318-one-p307-two-p284-nine-p268-four-p245-eight.wav,92.22453887461498,30,0.29704186914900854,8,RX81,9,0.0,0.0,10.0,0,0,9.495601173020528,2.6091485023498535
0,,2024-07-01 10:07:59,sub_108,3,distance,cathedral,localisation_accuracy,3,20,babble,,,babble-reversed_n13_p229-five-p256-three-p318-nine-p248-two-p284-four-p268-one.wav,84.42061292523675,30,0.029495567177627913,0,RX81,1,0.0,0.0,2.0,0,0,2.838709677419355,2.531028985977173
0,,2024-07-01 10:08:02,sub_108,3,distance,cathedral,localisation_accuracy,3,21,babble,,,babble-reversed_n13_p307-two-p256-four-p318-three-p284-eight-p248-five-p245-nine.wav,89.3611587146056,30,0.30355538608861665,3,RX81,4,0.0,0.0,5.0,0,0,6.357771260997067,1.8748235702514648
0,,2024-07-01 10:08:05,sub_108,3,distance,cathedral,localisation_accuracy,3,22,babble,,,babble-reversed_n13_p256-nine-p307-four-p229-one-p284-three-p248-two-p245-five.wav,91.56395809137473,30,-0.23975141582913884,7,RX81,8,0.0,0.0,9.0,0,0,8.27859237536657,1.9060521125793457
0,,2024-07-01 10:08:09,sub_108,3,distance,cathedral,localisation_accuracy,3,23,babble,,,babble-reversed_n13_p307-one-p318-five-p229-four-p268-eight-p284-two-p245-three.wav,89.16893629271411,30,-0.19265737008197292,4,RX81,5,0.0,0.0,6.0,0,0,6.768328445747802,2.6091485023498535
0,,2024-07-01 10:08:12,sub_108,3,distance,cathedral,localisation_accuracy,3,24,babble,,,babble-reversed_n13_p256-two-p307-five-p318-nine-p248-eight-p245-four-p284-one.wav,93.31858080027494,30,0.4511888758405276,10,RX81,11,0.0,0.0,12.0,0,0,10.404692082111438,2.515383720397949
0,,2024-07-01 10:08:16,sub_108,3,distance,cathedral,localisation_accuracy,3,25,babble,,,babble-reversed_n13_p307-five-p229-two-p318-four-p248-three-p245-nine-p268-eight.wav,92.029976259118,30,0.020761002775697035,8,RX81,9,0.0,0.0,10.0,0,0,9.656891495601174,2.51540470123291
0,,2024-07-01 10:08:19,sub_108,3,distance,cathedral,localisation_accuracy,3,26,babble,,,babble-reversed_n13_p318-five-p256-nine-p307-two-p245-eight-p248-one-p284-four.wav,86.43813272524153,30,0.34475378299032744,1,RX81,2,0.0,0.0,3.0,0,0,5.023460410557185,2.062312364578247
0,,2024-07-01 10:08:22,sub_108,3,distance,cathedral,localisation_accuracy,3,27,babble,,,babble-reversed_n13_p256-eight-p318-two-p307-five-p245-four-p268-nine-p284-one.wav,87.25366019446523,30,-0.45524160891153265,2,RX81,3,0.0,0.0,4.0,0,0,6.651026392961878,1.8592004776000977
0,,2024-07-01 10:08:26,sub_108,3,distance,cathedral,localisation_accuracy,3,28,babble,,,babble-reversed_n13_p229-two-p307-five-p318-four-p284-one-p248-nine-p268-eight.wav,89.13490939245632,30,-0.020227637087098183,3,RX81,4,0.0,0.0,5.0,0,0,5.272727272727273,2.937250852584839
0,,2024-07-01 10:08:29,sub_108,3,distance,cathedral,localisation_accuracy,3,29,babble,,,babble-reversed_n13_p256-eight-p318-two-p307-five-p245-four-p268-nine-p284-one.wav,90.52842976220455,30,0.26846111827750296,5,RX81,6,0.0,0.0,7.0,0,0,7.882697947214076,1.9060711860656738
0,,2024-07-01 10:08:33,sub_108,3,distance,cathedral,localisation_accuracy,3,30,babble,,,babble-reversed_n13_p229-five-p256-one-p318-three-p248-nine-p268-four-p284-eight.wav,84.49456631733821,30,0.1397396751399822,0,RX81,1,0.0,0.0,2.0,0,0,3.4398826979472146,2.0935583114624023
0,,2024-07-01 10:08:37,sub_108,3,distance,cathedral,localisation_accuracy,3,31,babble,,,babble-reversed_n13_p318-five-p256-nine-p307-two-p245-eight-p248-one-p284-four.wav,91.69811676958847,30,0.15603999893813425,6,RX81,7,0.0,0.0,8.0,0,0,8.674486803519063,2.859130620956421
0,,2024-07-01 10:08:40,sub_108,3,distance,cathedral,localisation_accuracy,3,32,babble,,,babble-reversed_n13_p256-five-p307-nine-p318-three-p284-eight-p268-one-p248-two.wav,92.19886850950718,30,0.27221586670455833,9,RX81,10,0.0,0.0,11.0,0,0,10.214076246334312,1.9373185634613037
0,,2024-07-01 10:08:42,sub_108,3,distance,cathedral,localisation_accuracy,3,33,babble,,,babble-reversed_n13_p307-nine-p318-two-p256-one-p245-three-p268-four-p248-eight.wav,87.74260359293862,30,0.25022998919160977,2,RX81,3,0.0,0.0,4.0,0,0,6.621700879765397,1.7342090606689453
0,,2024-07-01 10:08:46,sub_108,3,distance,cathedral,localisation_accuracy,3,34,babble,,,babble-reversed_n13_p256-four-p229-eight-p307-five-p248-three-p245-one-p284-two.wav,84.63272370284777,30,0.3467796885805051,0,RX81,1,0.0,0.0,2.0,0,0,4.085043988269795,2.249776840209961
0,,2024-07-01 10:08:48,sub_108,3,distance,cathedral,localisation_accuracy,3,35,babble,,,babble-reversed_n13_p229-three-p256-one-p307-two-p284-eight-p268-five-p248-nine.wav,88.93768627531423,30,-0.2996480367666692,3,RX81,4,0.0,0.0,5.0,0,0,5.653958944281525,1.5154552459716797
0,,2024-07-01 10:08:51,sub_108,3,distance,cathedral,localisation_accuracy,3,36,babble,,,babble-reversed_n13_p318-nine-p307-eight-p229-two-p284-one-p248-three-p245-five.wav,90.3009548050273,30,-0.05790216086711497,5,RX81,6,0.0,0.0,7.0,0,0,7.0469208211143695,1.8748242855072021
0,,2024-07-01 10:08:54,sub_108,3,distance,cathedral,localisation_accuracy,3,37,babble,,,babble-reversed_n13_p307-two-p256-four-p318-three-p284-eight-p248-five-p245-nine.wav,91.4559852859361,30,-0.3873560761083811,7,RX81,8,0.0,0.0,9.0,0,0,8.395894428152493,1.9060726165771484
0,,2024-07-01 10:08:58,sub_108,3,distance,cathedral,localisation_accuracy,3,38,babble,,,babble-reversed_n13_p256-two-p307-five-p318-nine-p248-eight-p245-four-p284-one.wav,91.71150211765408,30,0.17522417484375308,6,RX81,7,0.0,0.0,8.0,0,0,8.102639296187684,2.4217238426208496
0,,2024-07-01 10:09:01,sub_108,3,distance,cathedral,localisation_accuracy,3,39,babble,,,babble-reversed_n13_p229-three-p307-one-p318-two-p245-eight-p268-five-p284-four.wav,92.92276827746919,30,-0.1084267316061931,10,RX81,11,0.0,0.0,12.0,0,0,10.419354838709678,2.156055450439453
0,,2024-07-01 10:09:04,sub_108,3,distance,cathedral,localisation_accuracy,3,40,babble,,,babble-reversed_n13_p256-nine-p307-four-p229-one-p284-three-p248-two-p245-five.wav,91.73799878831768,30,-0.3745570155965582,9,RX81,10,0.0,0.0,11.0,0,0,10.50733137829912,1.1873493194580078
0,,2024-07-01 10:09:07,sub_108,3,distance,cathedral,localisation_accuracy,3,41,babble,,,babble-reversed_n13_p318-nine-p307-eight-p229-two-p284-one-p248-three-p245-five.wav,89.50643518051734,30,0.2584864718280254,4,RX81,5,0.0,0.0,6.0,0,0,9.217008797653959,1.8591790199279785
0,,2024-07-01 10:09:11,sub_108,3,distance,cathedral,localisation_accuracy,3,42,babble,,,babble-reversed_n13_p256-four-p307-eight-p318-two-p248-three-p284-nine-p268-one.wav,85.97054193359975,30,-0.3394491504217616,1,RX81,2,0.0,0.0,3.0,0,0,4.9208211143695015,2.796614408493042
0,,2024-07-01 10:09:14,sub_108,3,distance,cathedral,localisation_accuracy,3,43,babble,,,babble-reversed_n13_p318-three-p229-one-p256-eight-p245-five-p248-four-p284-nine.wav,92.22019071299098,30,0.29083974604185714,8,RX81,9,0.0,0.0,10.0,0,0,9.407624633431086,2.1091830730438232
0,,2024-07-01 10:09:18,sub_108,3,distance,cathedral,localisation_accuracy,3,44,babble,,,babble-reversed_n13_p318-four-p256-five-p229-three-p284-one-p245-eight-p248-nine.wav,88.9512616165135,30,-0.4800544726451771,4,RX81,5,0.0,0.0,6.0,0,0,8.850439882697948,2.671644687652588
0,,2024-07-01 10:09:21,sub_108,3,distance,cathedral,localisation_accuracy,3,45,babble,,,babble-reversed_n13_p256-eight-p318-five-p307-four-p245-three-p268-one-p284-nine.wav,91.76009911409837,30,0.030268728614938123,7,RX81,8,0.0,0.0,9.0,0,0,10.741935483870968,1.9998157024383545
0,,2024-07-01 10:09:24,sub_108,3,distance,cathedral,localisation_accuracy,3,46,babble,,,babble-reversed_n13_p307-five-p229-three-p318-nine-p245-four-p268-eight-p284-two.wav,92.09811744661658,30,0.11723431938660711,8,RX81,9,0.0,0.0,10.0,0,0,9.24633431085044,2.5154049396514893
0,,2024-07-01 10:09:27,sub_108,3,distance,cathedral,localisation_accuracy,3,47,babble,,,babble-reversed_n13_p307-nine-p229-one-p256-eight-p248-four-p284-two-p268-three.wav,90.03164479271295,30,-0.4397409089143629,5,RX81,6,0.0,0.0,7.0,0,0,8.762463343108505,1.8904476165771484
0,,2024-07-01 10:09:30,sub_108,3,distance,cathedral,localisation_accuracy,3,48,babble,,,babble-reversed_n13_p318-three-p307-one-p256-five-p248-nine-p245-two-p284-eight.wav,92.14024437539439,30,0.18916677235723212,9,RX81,10,0.0,0.0,11.0,0,0,10.302052785923754,1.5467212200164795
0,,2024-07-01 10:09:33,sub_108,3,distance,cathedral,localisation_accuracy,3,49,babble,,,babble-reversed_n13_p229-two-p256-three-p318-eight-p284-five-p268-four-p245-one.wav,87.55083924065866,30,-0.028442906507638366,2,RX81,3,0.0,0.0,4.0,0,0,4.788856304985337,2.109182834625244
0,,2024-07-01 10:09:36,sub_108,3,distance,cathedral,localisation_accuracy,3,50,babble,,,babble-reversed_n13_p307-two-p229-one-p256-five-p248-nine-p284-three-p268-eight.wav,91.44535100406867,30,-0.2039483468493104,6,RX81,7,0.0,0.0,8.0,0,0,7.604105571847509,2.0466644763946533
0,,2024-07-01 10:09:39,sub_108,3,distance,cathedral,localisation_accuracy,3,51,babble,,,babble-reversed_n13_p229-five-p318-two-p307-eight-p268-three-p248-four-p245-one.wav,86.33763653041257,30,0.196383309803551,1,RX81,2,0.0,0.0,3.0,0,0,3.513196480938417,1.984192132949829
0,,2024-07-01 10:09:43,sub_108,3,distance,cathedral,localisation_accuracy,3,52,babble,,,babble-reversed_n13_p307-nine-p318-two-p256-one-p245-three-p268-four-p248-eight.wav,92.75943196504483,30,-0.33634967192652854,10,RX81,11,0.0,0.0,12.0,0,0,10.82991202346041,2.343520164489746
0,,2024-07-01 10:09:46,sub_108,3,distance,cathedral,localisation_accuracy,3,53,babble,,,babble-reversed_n13_p256-five-p307-nine-p318-three-p284-eight-p268-one-p248-two.wav,84.62382417460698,30,0.3334002736762486,0,RX81,1,0.0,0.0,2.0,0,0,3.029325513196481,2.1872787475585938
0,,2024-07-01 10:09:49,sub_108,3,distance,cathedral,localisation_accuracy,3,54,babble,,,babble-reversed_n13_p318-five-p229-three-p256-four-p268-eight-p248-one-p245-nine.wav,88.82671865372389,30,-0.4557175379080204,3,RX81,4,0.0,0.0,5.0,0,0,5.697947214076247,2.0310637950897217
0,,2024-07-01 10:10:34,sub_108,3,distance,cathedral,localisation_accuracy,4,0,babble,,,babble-reversed_n13_p318-five-p229-three-p256-four-p268-eight-p248-one-p245-nine.wav,91.8781815334523,30,-0.19303827908833537,8,RX81,9,0.0,0.0,10.0,0,0,10.565982404692082,2.8434855937957764
0,,2024-07-01 10:10:38,sub_108,3,distance,cathedral,localisation_accuracy,4,1,babble,,,babble-reversed_n13_p229-nine-p256-four-p318-three-p268-eight-p248-two-p284-five.wav,91.64224922532398,30,0.07610100176837331,6,RX81,7,0.0,0.0,8.0,0,0,8.718475073313783,2.015439748764038
0,,2024-07-01 10:10:41,sub_108,3,distance,cathedral,localisation_accuracy,4,2,babble,,,babble-reversed_n13_p256-eight-p229-three-p307-nine-p245-five-p248-four-p268-two.wav,92.68040399963837,30,-0.4460022917524342,10,RX81,11,0.0,0.0,12.0,0,0,10.331378299120235,2.343529462814331
0,,2024-07-01 10:10:45,sub_108,3,distance,cathedral,localisation_accuracy,4,3,babble,,,babble-reversed_n13_p307-four-p318-three-p256-eight-p284-two-p245-nine-p248-five.wav,85.93167235306095,30,-0.39562577272898813,1,RX81,2,0.0,0.0,3.0,0,0,3.6598240469208214,2.327897071838379
0,,2024-07-01 10:10:47,sub_108,3,distance,cathedral,localisation_accuracy,4,4,babble,,,babble-reversed_n13_p256-three-p318-one-p307-two-p284-nine-p268-four-p245-eight.wav,84.60946864310822,30,0.311830817451925,0,RX81,1,0.0,0.0,2.0,0,0,3.6011730205278596,1.1248753070831299
0,,2024-07-01 10:10:50,sub_108,3,distance,cathedral,localisation_accuracy,4,5,babble,,,babble-reversed_n13_p229-five-p318-two-p307-eight-p268-three-p248-four-p245-one.wav,89.49613228390615,30,0.2446137926924643,4,RX81,5,0.0,0.0,6.0,0,0,5.228739002932552,1.6404438018798828
0,,2024-07-01 10:10:53,sub_108,3,distance,cathedral,localisation_accuracy,4,6,babble,,,babble-reversed_n13_p229-five-p256-three-p318-nine-p248-two-p284-four-p268-one.wav,89.09438670726905,30,-0.07785285305238432,3,RX81,4,0.0,0.0,5.0,0,0,6.44574780058651,2.202927350997925
0,,2024-07-01 10:10:56,sub_108,3,distance,cathedral,localisation_accuracy,4,7,babble,,,babble-reversed_n13_p229-three-p256-one-p307-two-p284-eight-p268-five-p248-nine.wav,92.02808587536403,30,0.03091332478631148,9,RX81,10,0.0,0.0,11.0,0,0,7.66275659824047,1.9373197555541992
0,,2024-07-01 10:10:59,sub_108,3,distance,cathedral,localisation_accuracy,4,8,babble,,,babble-reversed_n13_p229-five-p318-three-p307-two-p245-four-p284-nine-p248-eight.wav,90.63870778142102,30,0.4279573080729916,5,RX81,6,0.0,0.0,7.0,0,0,6.152492668621701,2.1404311656951904
0,,2024-07-01 10:11:03,sub_108,3,distance,cathedral,localisation_accuracy,4,9,babble,,,babble-reversed_n13_p307-one-p318-five-p229-four-p268-eight-p284-two-p245-three.wav,91.85164081893026,30,0.15712802079735477,7,RX81,8,0.0,0.0,9.0,0,0,8.29325513196481,2.6716232299804688
0,,2024-07-01 10:11:06,sub_108,3,distance,cathedral,localisation_accuracy,4,10,babble,,,babble-reversed_n13_p307-five-p229-three-p318-nine-p245-four-p268-eight-p284-two.wav,87.41269183914258,30,-0.22760714379880131,2,RX81,3,0.0,0.0,4.0,0,0,3.5278592375366573,2.3435418605804443
0,,2024-07-01 10:11:09,sub_108,3,distance,cathedral,localisation_accuracy,4,11,babble,,,babble-reversed_n13_p318-nine-p256-five-p307-eight-p268-three-p248-one-p245-four.wav,92.06547605634728,30,0.08357774280013441,9,RX81,10,0.0,0.0,11.0,0,0,9.114369501466276,1.765434741973877
0,,2024-07-01 10:11:13,sub_108,3,distance,cathedral,localisation_accuracy,4,12,babble,,,babble-reversed_n13_p229-five-p318-two-p307-eight-p268-three-p248-four-p245-one.wav,84.18654090595297,30,-0.3167902176719183,0,RX81,1,0.0,0.0,2.0,0,0,3.1759530791788864,2.249776601791382
0,,2024-07-01 10:11:16,sub_108,3,distance,cathedral,localisation_accuracy,4,13,babble,,,babble-reversed_n13_p229-two-p307-five-p318-four-p284-one-p248-nine-p268-eight.wav,91.68122334548997,30,0.13184538031090332,6,RX81,7,0.0,0.0,8.0,0,0,8.439882697947215,1.827967882156372
0,,2024-07-01 10:11:19,sub_108,3,distance,cathedral,localisation_accuracy,4,14,babble,,,babble-reversed_n13_p256-four-p307-eight-p318-two-p248-three-p284-nine-p268-one.wav,89.5451451659381,30,0.31066571471844695,4,RX81,5,0.0,0.0,6.0,0,0,5.81524926686217,2.421640396118164
0,,2024-07-01 10:11:22,sub_108,3,distance,cathedral,localisation_accuracy,4,15,babble,,,babble-reversed_n13_p229-one-p318-nine-p256-four-p284-eight-p268-five-p245-two.wav,86.19152592871731,30,-0.018038171340433284,1,RX81,2,0.0,0.0,3.0,0,0,4.55425219941349,1.593571662902832
0,,2024-07-01 10:11:26,sub_108,3,distance,cathedral,localisation_accuracy,4,16,babble,,,babble-reversed_n13_p307-four-p318-three-p256-eight-p284-two-p245-nine-p248-five.wav,91.91305339192911,30,-0.1440572026909761,8,RX81,9,0.0,0.0,10.0,0,0,8.791788856304986,2.4841883182525635
0,,2024-07-01 10:11:28,sub_108,3,distance,cathedral,localisation_accuracy,4,17,babble,,,babble-reversed_n13_p307-four-p318-three-p256-eight-p284-two-p245-nine-p248-five.wav,90.39114497371845,30,0.07107249896050438,5,RX81,6,0.0,0.0,7.0,0,0,9.686217008797655,1.6717133522033691
0,,2024-07-01 10:11:31,sub_108,3,distance,cathedral,localisation_accuracy,4,18,babble,,,babble-reversed_n13_p256-nine-p307-four-p229-one-p284-three-p248-two-p245-five.wav,87.36273881626671,30,-0.2992971177756467,2,RX81,3,0.0,0.0,4.0,0,0,5.829912023460411,2.046666383743286
0,,2024-07-01 10:11:35,sub_108,3,distance,cathedral,localisation_accuracy,4,19,babble,,,babble-reversed_n13_p229-one-p318-eight-p256-three-p268-nine-p248-five-p284-four.wav,92.89284107550439,30,-0.1503184270079735,10,RX81,11,0.0,0.0,12.0,0,0,10.18475073313783,2.452908992767334
0,,2024-07-01 10:11:38,sub_108,3,distance,cathedral,localisation_accuracy,4,20,babble,,,babble-reversed_n13_p318-five-p256-nine-p307-eight-p248-two-p245-four-p284-three.wav,89.02960682630639,30,-0.16974299708897556,3,RX81,4,0.0,0.0,5.0,0,0,7.208211143695015,1.593592882156372
0,,2024-07-01 10:11:41,sub_108,3,distance,cathedral,localisation_accuracy,4,21,babble,,,babble-reversed_n13_p307-two-p229-one-p256-five-p248-nine-p284-three-p268-eight.wav,91.62799240068242,30,-0.15186573411033677,7,RX81,8,0.0,0.0,9.0,0,0,8.865102639296188,2.046687602996826
0,,2024-07-01 10:11:44,sub_108,3,distance,cathedral,localisation_accuracy,4,22,babble,,,babble-reversed_n13_p318-five-p256-nine-p307-two-p245-eight-p248-one-p284-four.wav,84.44687881076467,30,0.06860450415076491,0,RX81,1,0.0,0.0,2.0,0,0,3.263929618768329,2.374833345413208
0,,2024-07-01 10:11:48,sub_108,3,distance,cathedral,localisation_accuracy,4,23,babble,,,babble-reversed_n13_p318-five-p229-four-p256-eight-p284-one-p245-three-p248-two.wav,89.29354100763956,30,0.20642372538938158,3,RX81,4,0.0,0.0,5.0,0,0,7.794721407624634,2.327982187271118
0,,2024-07-01 10:11:51,sub_108,3,distance,cathedral,localisation_accuracy,4,24,babble,,,babble-reversed_n13_p229-two-p256-three-p318-eight-p284-five-p268-four-p245-one.wav,91.77770697668676,30,-0.3193798099882289,9,RX81,10,0.0,0.0,11.0,0,0,10.741935483870968,1.7029399871826172
0,,2024-07-01 10:11:55,sub_108,3,distance,cathedral,localisation_accuracy,4,25,babble,,,babble-reversed_n13_p229-five-p318-two-p307-eight-p268-three-p248-four-p245-one.wav,92.67883164824738,30,-0.448179838029824,10,RX81,11,0.0,0.0,12.0,0,0,9.715542521994136,2.718515634536743
0,,2024-07-01 10:12:00,sub_108,3,distance,cathedral,localisation_accuracy,4,26,babble,,,babble-reversed_n13_p256-two-p307-five-p318-nine-p248-eight-p245-four-p284-one.wav,91.81184700395377,30,0.31942989522232246,6,RX81,7,0.0,0.0,8.0,0,0,8.60117302052786,4.530890941619873
0,,2024-07-01 10:12:04,sub_108,3,distance,cathedral,localisation_accuracy,4,27,babble,,,babble-reversed_n13_p307-five-p229-three-p318-nine-p245-four-p268-eight-p284-two.wav,89.41273838294293,30,0.13255912729350505,4,RX81,5,0.0,0.0,6.0,0,0,6.43108504398827,2.640374183654785
0,,2024-07-01 10:12:08,sub_108,3,distance,cathedral,localisation_accuracy,4,28,babble,,,babble-reversed_n13_p318-five-p256-nine-p307-eight-p248-two-p245-four-p284-three.wav,91.71855671939944,30,-0.41622380096673084,8,RX81,9,0.0,0.0,10.0,0,0,9.598240469208212,2.5622880458831787
0,,2024-07-01 10:12:11,sub_108,3,distance,cathedral,localisation_accuracy,4,29,babble,,,babble-reversed_n13_p229-two-p318-eight-p256-three-p268-one-p248-nine-p284-five.wav,86.05134867404377,30,-0.222321062754557,1,RX81,2,0.0,0.0,3.0,0,0,4.935483870967742,1.9841725826263428
0,,2024-07-01 10:12:15,sub_108,3,distance,cathedral,localisation_accuracy,4,30,babble,,,babble-reversed_n13_p256-four-p229-two-p318-five-p268-one-p248-eight-p245-three.wav,87.54850358749448,30,-0.031821216439075095,2,RX81,3,0.0,0.0,4.0,0,0,5.903225806451613,2.671679973602295
0,,2024-07-01 10:12:18,sub_108,3,distance,cathedral,localisation_accuracy,4,31,babble,,,babble-reversed_n13_p256-four-p229-eight-p307-five-p248-three-p245-one-p284-two.wav,91.91070030143942,30,0.23925742815824513,7,RX81,8,0.0,0.0,9.0,0,0,10.214076246334312,2.077913761138916
0,,2024-07-01 10:12:21,sub_108,3,distance,cathedral,localisation_accuracy,4,32,babble,,,babble-reversed_n13_p318-five-p256-nine-p307-eight-p248-two-p245-four-p284-three.wav,90.61935177577905,30,0.3999018391908915,5,RX81,6,0.0,0.0,7.0,0,0,7.809384164222875,2.29667592048645
0,,2024-07-01 10:12:24,sub_108,3,distance,cathedral,localisation_accuracy,4,33,babble,,,babble-reversed_n13_p256-eight-p318-two-p307-five-p245-four-p268-nine-p284-one.wav,91.86163147222756,30,-0.2162563987736874,8,RX81,9,0.0,0.0,10.0,0,0,11.10850439882698,1.7342090606689453
0,,2024-07-01 10:12:28,sub_108,3,distance,cathedral,localisation_accuracy,4,34,babble,,,babble-reversed_n13_p229-two-p318-eight-p256-three-p268-one-p248-nine-p284-five.wav,84.53301752759069,30,0.19721965213518255,0,RX81,1,0.0,0.0,2.0,0,0,3.674486803519062,2.906003713607788
0,,2024-07-01 10:12:33,sub_108,3,distance,cathedral,localisation_accuracy,4,35,babble,,,babble-reversed_n13_p318-one-p307-two-p256-eight-p284-three-p248-five-p245-four.wav,91.62353111862063,30,0.04936531060363003,6,RX81,7,0.0,0.0,8.0,0,0,7.648093841642229,3.546584367752075
0,,2024-07-01 10:12:36,sub_108,3,distance,cathedral,localisation_accuracy,4,36,babble,,,babble-reversed_n13_p318-four-p256-five-p229-three-p284-one-p245-eight-p248-nine.wav,91.91837789188898,30,0.24995046851314595,7,RX81,8,0.0,0.0,9.0,0,0,9.24633431085044,1.7654368877410889
0,,2024-07-01 10:12:40,sub_108,3,distance,cathedral,localisation_accuracy,4,37,babble,,,babble-reversed_n13_p318-one-p307-two-p256-eight-p284-three-p248-five-p245-four.wav,87.88373662146755,30,0.4569790580953794,2,RX81,3,0.0,0.0,4.0,0,0,4.627565982404692,2.562276840209961
0,,2024-07-01 10:12:43,sub_108,3,distance,cathedral,localisation_accuracy,4,38,babble,,,babble-reversed_n13_p229-five-p256-one-p318-three-p248-nine-p268-four-p284-eight.wav,91.67110385383187,30,-0.467280173411323,9,RX81,10,0.0,0.0,11.0,0,0,10.15542521994135,2.218529462814331
0,,2024-07-01 10:12:46,sub_108,3,distance,cathedral,localisation_accuracy,4,39,babble,,,babble-reversed_n13_p256-eight-p229-three-p307-nine-p245-five-p248-four-p268-two.wav,89.39660184788634,30,0.3545935336825977,3,RX81,4,0.0,0.0,5.0,0,0,7.266862170087977,1.9373011589050293
0,,2024-07-01 10:12:48,sub_108,3,distance,cathedral,localisation_accuracy,4,40,babble,,,babble-reversed_n13_p318-four-p256-five-p229-three-p284-one-p245-eight-p248-nine.wav,89.03275789196385,30,-0.37278044247419684,4,RX81,5,0.0,0.0,6.0,0,0,7.266862170087977,1.327965259552002
0,,2024-07-01 10:12:51,sub_108,3,distance,cathedral,localisation_accuracy,4,41,babble,,,babble-reversed_n13_p229-nine-p307-five-p256-two-p248-three-p245-one-p268-eight.wav,90.62533794095518,30,0.40857569331089305,5,RX81,6,0.0,0.0,7.0,0,0,9.275659824046922,1.7654566764831543
0,,2024-07-01 10:12:54,sub_108,3,distance,cathedral,localisation_accuracy,4,42,babble,,,babble-reversed_n13_p229-one-p318-eight-p256-three-p268-nine-p248-five-p284-four.wav,93.05581178896514,30,0.0785185719730177,10,RX81,11,0.0,0.0,12.0,0,0,10.859237536656892,1.4998283386230469
0,,2024-07-01 10:12:57,sub_108,3,distance,cathedral,localisation_accuracy,4,43,babble,,,babble-reversed_n13_p229-five-p318-three-p307-two-p245-four-p284-nine-p248-eight.wav,86.50550452798882,30,0.4446280636566322,1,RX81,2,0.0,0.0,3.0,0,0,4.627565982404692,2.2497990131378174
0,,2024-07-01 10:13:00,sub_108,3,distance,cathedral,localisation_accuracy,4,44,babble,,,babble-reversed_n13_p307-five-p229-two-p318-four-p248-three-p245-nine-p268-eight.wav,91.87073266909704,30,0.18365313661425708,7,RX81,8,0.0,0.0,9.0,0,0,7.721407624633432,1.7810804843902588
0,,2024-07-01 10:13:03,sub_108,3,distance,cathedral,localisation_accuracy,4,45,babble,,,babble-reversed_n13_p256-four-p229-two-p318-five-p268-one-p248-eight-p245-three.wav,89.58762299034505,30,0.3680273775672086,4,RX81,5,0.0,0.0,6.0,0,0,9.334310850439884,1.3748373985290527
0,,2024-07-01 10:13:07,sub_108,3,distance,cathedral,localisation_accuracy,4,46,babble,,,babble-reversed_n13_p307-four-p318-three-p256-eight-p284-two-p245-nine-p248-five.wav,84.29585233712966,30,-0.15557485307705698,0,RX81,1,0.0,0.0,2.0,0,0,2.9560117302052786,2.9528517723083496
0,,2024-07-01 10:13:10,sub_108,3,distance,cathedral,localisation_accuracy,4,47,babble,,,babble-reversed_n13_p307-nine-p229-one-p256-eight-p248-four-p284-two-p268-three.wav,89.02987068092548,30,-0.16936929273514467,3,RX81,4,0.0,0.0,5.0,0,0,5.624633431085044,2.015479803085327
0,,2024-07-01 10:13:13,sub_108,3,distance,cathedral,localisation_accuracy,4,48,babble,,,babble-reversed_n13_p229-five-p256-one-p318-three-p248-nine-p268-four-p284-eight.wav,93.13303062049215,30,0.1875579142945757,10,RX81,11,0.0,0.0,12.0,0,0,8.381231671554254,1.9841725826263428
0,,2024-07-01 10:13:16,sub_108,3,distance,cathedral,localisation_accuracy,4,49,babble,,,babble-reversed_n13_p229-nine-p256-four-p318-three-p268-eight-p248-two-p284-five.wav,86.27524428977964,30,0.10463394941877113,1,RX81,2,0.0,0.0,3.0,0,0,4.143695014662757,2.015442132949829
0,,2024-07-01 10:13:19,sub_108,3,distance,cathedral,localisation_accuracy,4,50,babble,,,babble-reversed_n13_p318-four-p256-five-p229-three-p284-one-p245-eight-p248-nine.wav,92.00358879929163,30,-0.016514923980115337,8,RX81,9,0.0,0.0,10.0,0,0,8.322580645161292,1.9216959476470947
0,,2024-07-01 10:13:22,sub_108,3,distance,cathedral,localisation_accuracy,4,51,babble,,,babble-reversed_n13_p307-one-p318-five-p229-four-p268-eight-p284-two-p245-three.wav,92.31443069968881,30,0.43659515223145173,9,RX81,10,0.0,0.0,11.0,0,0,9.568914956011731,1.562326431274414
0,,2024-07-01 10:13:26,sub_108,3,distance,cathedral,localisation_accuracy,4,52,babble,,,babble-reversed_n13_p256-eight-p318-two-p307-five-p245-four-p268-nine-p284-one.wav,90.54283549502144,30,0.28924870488734633,5,RX81,6,0.0,0.0,7.0,0,0,8.175953079178885,2.6091275215148926
0,,2024-07-01 10:13:29,sub_108,3,distance,cathedral,localisation_accuracy,4,53,babble,,,babble-reversed_n13_p256-three-p318-one-p307-two-p284-nine-p268-four-p245-eight.wav,91.80418573425086,30,0.3083956201380058,6,RX81,7,0.0,0.0,8.0,0,0,8.087976539589443,2.390413522720337
0,,2024-07-01 10:13:33,sub_108,3,distance,cathedral,localisation_accuracy,4,54,babble,,,babble-reversed_n13_p229-five-p256-one-p318-three-p248-nine-p268-four-p284-eight.wav,87.87328787551603,30,0.44162412934454764,2,RX81,3,0.0,0.0,4.0,0,0,5.712609970674487,2.890378952026367
