,event_id,subject_id,timestamp,session_index,plane,setup,task,block,trial_index,stim_number,stim_type,stim_country_ids,stim_sexes,stim_talker_ids,speaker_ids,stim_level,resp_number,is_correct,speaker_distance_mean,speaker_distance_st_dev,reaction_time,spectral_coverage
0,,sub_106,2024-07-15 10:41:23,3,distance,cathedral,numerosity_judgement,1,0,5,countries_forward,"['_Tonga_', '_Yemen_', '_Oman_', '_Peru_', '_Cuba_']","['m', 'f', 'f', 'm', 'm']","['p229', 'p248', 'p284', 'p256', 'p307']","[1, 5, 4, 0, 10]","[86.2038576498559, 90.34149293193902, 89.31368318402099, 84.40078082039426, 93.00003341222717]",4.0,False,6.0,3.9370039370059056,5.441561937332153,0.7494495516967427
0,,sub_106,2024-07-15 10:41:29,3,distance,cathedral,numerosity_judgement,1,1,4,countries_forward,"['_Peru_', '_Mali_', '_Tonga_', '_Syria_']","['f', 'f', 'f', 'm']","['p284', 'p245', 'p268', 'p229']","[7, 4, 10, 5]","[91.73820004985969, 89.31368318402099, 93.00003341222717, 90.34149293193902]",5.0,False,8.5,2.6457513110645907,4.188422203063965,0.8739189649302009
0,,sub_106,2024-07-15 10:41:34,3,distance,cathedral,numerosity_judgement,1,2,2,countries_forward,"['_Britain_', '_Cuba_']","['m', 'm']","['p256', 'p229']","[0, 3]","[84.40078082039426, 89.14911522239515]",2.0,True,3.5,2.1213203435596424,3.1247096061706543,0.7484848484848485
0,,sub_106,2024-07-15 10:41:38,3,distance,cathedral,numerosity_judgement,1,3,3,countries_forward,"['_Togo_', '_Yemen_', '_Peru_']","['f', 'm', 'f']","['p268', 'p256', 'p248']","[8, 5, 4]","[92.0152836843556, 90.34149293193902, 89.31368318402099]",2.0,False,7.666666666666667,2.0816659994661326,2.750098705291748,0.6352400408580184
0,,sub_106,2024-07-15 10:41:45,3,distance,cathedral,numerosity_judgement,1,4,6,countries_forward,"['_Congo_', '_Tonga_', '_Cuba_', '_Yemen_', '_Togo_', '_Peru_']","['f', 'f', 'm', 'm', 'm', 'm']","['p245', 'p268', 'p307', 'p318', 'p229', 'p256']","[9, 4, 7, 2, 3, 8]","[92.00610777531934, 89.31368318402099, 91.73820004985969, 87.57049330475357, 89.14911522239515, 92.0152836843556]",3.0,False,7.5,2.8809720581775866,4.124549627304077,0.7796277380547043
0,,sub_106,2024-07-15 10:41:47,3,distance,cathedral,numerosity_judgement,1,5,2,countries_forward,"['_Britain_', '_Mali_']","['f', 'f']","['p268', 'p284']","[1, 9]","[86.2038576498559, 92.00610777531934]",2.0,True,7.0,5.656854249492381,1.4373385906219482,0.8931789808194303
0,,sub_106,2024-07-15 10:41:53,3,distance,cathedral,numerosity_judgement,1,6,5,countries_forward,"['_Britain_', '_Syria_', '_Tonga_', '_Belgium_', '_Oman_']","['m', 'f', 'm', 'f', 'm']","['p229', 'p268', 'p318', 'p248', 'p307']","[2, 5, 1, 9, 10]","[87.57049330475357, 90.34149293193902, 86.2038576498559, 92.00610777531934, 93.00003341222717]",3.0,False,7.4,4.03732584763727,4.061645269393921,0.9419816138917264
0,,sub_106,2024-07-15 10:41:58,3,distance,cathedral,numerosity_judgement,1,7,4,countries_forward,"['_Togo_', '_Cuba_', '_Britain_', '_Tonga_']","['m', 'm', 'f', 'm']","['p229', 'p318', 'p248', 'p256']","[5, 1, 9, 8]","[90.34149293193902, 86.2038576498559, 92.00610777531934, 92.0152836843556]",2.0,False,7.75,3.593976442141304,2.5622570514678955,0.8550675292248326
0,,sub_106,2024-07-15 10:42:02,3,distance,cathedral,numerosity_judgement,1,8,6,countries_forward,"['_Tonga_', '_Mali_', '_Japan_', '_Yemen_', '_Congo_', '_Cuba_']","['m', 'm', 'f', 'm', 'f', 'f']","['p256', 'p229', 'p245', 'p318', 'p284', 'p248']","[7, 3, 10, 6, 5, 2]","[91.73820004985969, 89.14911522239515, 93.00003341222717, 91.58892582949886, 90.34149293193902, 87.57049330475357]",4.0,False,7.5,2.8809720581775866,1.6248860359191895,0.8679491544660084
0,,sub_106,2024-07-15 10:42:05,3,distance,cathedral,numerosity_judgement,1,9,3,countries_forward,"['_Oman_', '_Belgium_', '_Togo_']","['m', 'm', 'f']","['p256', 'p229', 'p248']","[7, 3, 1]","[91.73820004985969, 89.14911522239515, 86.2038576498559]",2.0,False,5.666666666666667,3.0550504633038935,1.626107931137085,0.7330155487458858
0,,sub_106,2024-07-15 10:42:09,3,distance,cathedral,numerosity_judgement,1,10,2,countries_forward,"['_Yemen_', '_Oman_']","['f', 'm']","['p248', 'p307']","[7, 9]","[91.73820004985969, 92.00610777531934]",2.0,True,10.0,1.4142135623730951,2.7498281002044678,0.5863920099875156
0,,sub_106,2024-07-15 10:42:16,3,distance,cathedral,numerosity_judgement,1,11,3,countries_forward,"['_Cuba_', '_Tonga_', '_Britain_']","['f', 'f', 'f']","['p248', 'p268', 'p284']","[9, 3, 7]","[92.00610777531934, 89.14911522239515, 91.73820004985969]",2.0,False,8.333333333333334,3.055050463303893,5.2506232261657715,0.7653501305186698
0,,sub_106,2024-07-15 10:42:20,3,distance,cathedral,numerosity_judgement,1,12,6,countries_forward,"['_Congo_', '_Syria_', '_Sudan_', '_Togo_', '_Tonga_', '_Oman_']","['f', 'm', 'f', 'f', 'm', 'm']","['p248', 'p318', 'p245', 'p284', 'p307', 'p256']","[8, 7, 1, 9, 5, 2]","[92.0152836843556, 91.73820004985969, 86.2038576498559, 92.00610777531934, 90.34149293193902, 87.57049330475357]",3.0,False,7.333333333333333,3.265986323710904,2.1235601902008057,0.8450346158211327
0,,sub_106,2024-07-15 10:42:25,3,distance,cathedral,numerosity_judgement,1,13,5,countries_forward,"['_Peru_', '_Cuba_', '_Oman_', '_Tonga_', '_Yemen_']","['m', 'm', 'f', 'f', 'f']","['p256', 'p307', 'p268', 'p284', 'p248']","[5, 10, 2, 8, 4]","[90.34149293193902, 93.00003341222717, 87.57049330475357, 92.0152836843556, 89.31368318402099]",3.0,False,7.8,3.1937438845342623,3.437999725341797,0.7737714220860288
0,,sub_106,2024-07-15 10:42:31,3,distance,cathedral,numerosity_judgement,1,14,4,countries_forward,"['_Oman_', '_Congo_', '_Japan_', '_Yemen_']","['m', 'f', 'f', 'm']","['p318', 'p268', 'p245', 'p307']","[8, 0, 5, 6]","[92.0152836843556, 84.40078082039426, 90.34149293193902, 91.58892582949886]",3.0,False,6.75,3.4034296427770228,4.063419342041016,0.8275678129610714
0,,sub_106,2024-07-15 10:42:36,3,distance,cathedral,numerosity_judgement,1,15,3,countries_forward,"['_Oman_', '_Peru_', '_Cuba_']","['m', 'm', 'm']","['p256', 'p307', 'p318']","[10, 8, 1]","[93.00003341222717, 92.0152836843556, 86.2038576498559]",3.0,True,8.333333333333334,4.725815626252608,3.5621821880340576,0.6713426398819657
0,,sub_106,2024-07-15 10:42:43,3,distance,cathedral,numerosity_judgement,1,16,4,countries_forward,"['_Tonga_', '_Syria_', '_Yemen_', '_Oman_']","['f', 'f', 'f', 'm']","['p284', 'p248', 'p268', 'p307']","[0, 8, 9, 4]","[84.40078082039426, 92.0152836843556, 92.00610777531934, 89.31368318402099]",4.0,True,7.25,4.112987559751022,4.434988498687744,0.7795596413573942
0,,sub_106,2024-07-15 10:42:50,3,distance,cathedral,numerosity_judgement,1,17,6,countries_forward,"['_Oman_', '_Peru_', '_Britain_', '_Tonga_', '_Yemen_', '_Congo_']","['f', 'f', 'm', 'f', 'm', 'f']","['p284', 'p268', 'p229', 'p248', 'p318', 'p245']","[7, 8, 5, 10, 6, 1]","[91.73820004985969, 92.0152836843556, 90.34149293193902, 93.00003341222717, 91.58892582949886, 86.2038576498559]",4.0,False,8.166666666666666,3.0605010483034745,5.124500274658203,0.7195778004766769
0,,sub_106,2024-07-15 10:42:54,3,distance,cathedral,numerosity_judgement,1,18,5,countries_forward,"['_Yemen_', '_Sudan_', '_Tonga_', '_Japan_', '_Congo_']","['m', 'f', 'm', 'm', 'f']","['p318', 'p248', 'p307', 'p256', 'p245']","[3, 1, 10, 2, 6]","[89.14911522239515, 86.2038576498559, 93.00003341222717, 87.57049330475357, 91.58892582949886]",4.0,False,6.4,3.646916505762094,2.500859498977661,0.82769265690614
0,,sub_106,2024-07-15 10:43:00,3,distance,cathedral,numerosity_judgement,1,19,2,countries_forward,"['_Britain_', '_Sudan_']","['f', 'm']","['p245', 'p307']","[1, 8]","[86.2038576498559, 92.0152836843556]",2.0,True,6.5,4.949747468305833,4.437144756317139,0.864374077857224
0,,sub_106,2024-07-15 10:43:07,3,distance,cathedral,numerosity_judgement,1,20,6,countries_forward,"['_Togo_', '_Cuba_', '_Sudan_', '_Yemen_', '_Britain_', '_Oman_']","['f', 'f', 'm', 'm', 'f', 'm']","['p284', 'p245', 'p318', 'p229', 'p248', 'p256']","[4, 6, 2, 1, 7, 5]","[89.31368318402099, 91.58892582949886, 87.57049330475357, 86.2038576498559, 91.73820004985969, 90.34149293193902]",4.0,False,6.166666666666667,2.316606713852541,5.0007805824279785,0.8009533537623426
0,,sub_106,2024-07-15 10:43:12,3,distance,cathedral,numerosity_judgement,1,21,5,countries_forward,"['_Oman_', '_Congo_', '_Cuba_', '_Britain_', '_Togo_']","['f', 'f', 'm', 'f', 'f']","['p245', 'p248', 'p307', 'p284', 'p268']","[10, 7, 5, 0, 4]","[93.00003341222717, 91.73820004985969, 90.34149293193902, 84.40078082039426, 89.31368318402099]",4.0,False,7.2,3.7013511046643495,3.3104910850524902,0.716127567812961
0,,sub_106,2024-07-15 10:43:16,3,distance,cathedral,numerosity_judgement,1,22,2,countries_forward,"['_Tonga_', '_Peru_']","['m', 'f']","['p229', 'p268']","[8, 10]","[92.0152836843556, 93.00003341222717]",2.0,True,11.0,1.4142135623730951,1.8107929229736328,0.7945182158665305
0,,sub_106,2024-07-15 10:43:18,3,distance,cathedral,numerosity_judgement,1,23,3,countries_forward,"['_Congo_', '_Oman_', '_Tonga_']","['m', 'm', 'm']","['p307', 'p256', 'p229']","[7, 8, 0]","[91.73820004985969, 92.0152836843556, 84.40078082039426]",3.0,True,7.0,4.358898943540674,1.188300609588623,0.7361252979230507
0,,sub_106,2024-07-15 10:43:22,3,distance,cathedral,numerosity_judgement,1,24,4,countries_forward,"['_Togo_', '_Japan_', '_Oman_', '_Britain_']","['m', 'f', 'm', 'f']","['p307', 'p248', 'p256', 'p268']","[9, 3, 8, 4]","[92.00610777531934, 89.14911522239515, 92.0152836843556, 89.31368318402099]",4.0,True,8.0,2.943920288775949,1.5623903274536133,0.7994892747701736
0,,sub_106,2024-07-15 10:43:25,3,distance,cathedral,numerosity_judgement,1,25,2,countries_forward,"['_Cuba_', '_Oman_']","['m', 'f']","['p256', 'p248']","[10, 8]","[93.00003341222717, 92.0152836843556]",3.0,False,11.0,1.4142135623730951,1.5601439476013184,0.7320621949835433
0,,sub_106,2024-07-15 10:43:29,3,distance,cathedral,numerosity_judgement,1,26,3,countries_forward,"['_Sudan_', '_Cuba_', '_Congo_']","['f', 'm', 'm']","['p248', 'p318', 'p256']","[10, 8, 7]","[93.00003341222717, 92.0152836843556, 91.73820004985969]",3.0,True,10.333333333333334,1.5275252316519468,2.4995481967926025,0.8306775621382363
0,,sub_106,2024-07-15 10:43:33,3,distance,cathedral,numerosity_judgement,1,27,5,countries_forward,"['_Belgium_', '_Peru_', '_Japan_', '_Sudan_', '_Tonga_']","['m', 'm', 'f', 'f', 'f']","['p229', 'p318', 'p248', 'p284', 'p245']","[4, 6, 8, 3, 7]","[89.31368318402099, 91.58892582949886, 92.0152836843556, 89.14911522239515, 91.73820004985969]",4.0,False,7.6,2.073644135332772,1.7498769760131836,0.8790602655771195
0,,sub_106,2024-07-15 10:43:37,3,distance,cathedral,numerosity_judgement,1,28,4,countries_forward,"['_Yemen_', '_Oman_', '_Mali_', '_Britain_']","['m', 'f', 'm', 'm']","['p318', 'p268', 'p256', 'p307']","[5, 3, 2, 8]","[90.34149293193902, 89.14911522239515, 87.57049330475357, 92.0152836843556]",4.0,True,6.5,2.6457513110645907,2.8123035430908203,0.6913517194416071
0,,sub_106,2024-07-15 10:43:44,3,distance,cathedral,numerosity_judgement,1,29,6,countries_forward,"['_Togo_', '_Peru_', '_Syria_', '_Oman_', '_Mali_', '_Congo_']","['m', 'f', 'm', 'm', 'f', 'f']","['p318', 'p245', 'p256', 'p229', 'p248', 'p284']","[7, 1, 0, 4, 3, 6]","[91.73820004985969, 86.2038576498559, 84.40078082039426, 89.31368318402099, 89.14911522239515, 91.58892582949886]",4.0,False,5.5,2.7386127875258306,4.627322673797607,0.8157643854273068
0,,sub_106,2024-07-15 10:43:47,3,distance,cathedral,numerosity_judgement,1,30,3,countries_forward,"['_Yemen_', '_Oman_', '_Britain_']","['f', 'm', 'm']","['p248', 'p229', 'p307']","[10, 3, 6]","[93.00003341222717, 89.14911522239515, 91.58892582949886]",3.0,True,8.333333333333334,3.511884584284246,1.687382698059082,0.6105209397344229
0,,sub_106,2024-07-15 10:43:52,3,distance,cathedral,numerosity_judgement,1,31,5,countries_forward,"['_Cuba_', '_Mali_', '_Congo_', '_Peru_', '_Sudan_']","['m', 'f', 'm', 'f', 'm']","['p256', 'p284', 'p318', 'p245', 'p229']","[1, 4, 6, 2, 9]","[86.2038576498559, 89.31368318402099, 91.58892582949886, 87.57049330475357, 92.00610777531934]",4.0,False,6.4,3.2093613071762426,2.4402832984924316,0.9558506412438996
0,,sub_106,2024-07-15 10:43:55,3,distance,cathedral,numerosity_judgement,1,32,4,countries_forward,"['_Yemen_', '_Oman_', '_Peru_', '_Togo_']","['m', 'm', 'f', 'm']","['p229', 'p307', 'p268', 'p256']","[9, 5, 3, 10]","[92.00610777531934, 90.34149293193902, 89.14911522239515, 93.00003341222717]",3.0,False,8.75,3.304037933599835,2.059760332107544,0.6414935875610033
0,,sub_106,2024-07-15 10:44:01,3,distance,cathedral,numerosity_judgement,1,33,6,countries_forward,"['_Cuba_', '_Peru_', '_Tonga_', '_Yemen_', '_Mali_', '_Oman_']","['f', 'f', 'm', 'f', 'm', 'f']","['p284', 'p245', 'p229', 'p248', 'p307', 'p268']","[0, 8, 10, 3, 6, 9]","[84.40078082039426, 92.0152836843556, 93.00003341222717, 89.14911522239515, 91.58892582949886, 92.00610777531934]",5.0,False,8.0,3.847076812334269,3.9381816387176514,0.7394393371921462
0,,sub_106,2024-07-15 10:44:05,3,distance,cathedral,numerosity_judgement,1,34,2,countries_forward,"['_Congo_', '_Oman_']","['m', 'm']","['p307', 'p256']","[3, 7]","[89.14911522239515, 91.73820004985969]",3.0,False,7.0,2.8284271247461903,2.624859571456909,0.6425604358188628
0,,sub_106,2024-07-15 10:44:10,3,distance,cathedral,numerosity_judgement,1,35,4,countries_forward,"['_Cuba_', '_Peru_', '_Mali_', '_Sudan_']","['f', 'm', 'm', 'm']","['p248', 'p318', 'p256', 'p307']","[4, 7, 5, 6]","[89.31368318402099, 91.73820004985969, 90.34149293193902, 91.58892582949886]",4.0,True,7.5,1.2909944487358056,2.7508294582366943,0.7435137895812053
0,,sub_106,2024-07-15 10:44:16,3,distance,cathedral,numerosity_judgement,1,36,6,countries_forward,"['_Belgium_', '_Congo_', '_Yemen_', '_Sudan_', '_Britain_', '_Japan_']","['f', 'm', 'm', 'f', 'm', 'f']","['p284', 'p318', 'p229', 'p245', 'p307', 'p248']","[3, 1, 4, 0, 5, 10]","[89.14911522239515, 86.2038576498559, 89.31368318402099, 84.40078082039426, 90.34149293193902, 93.00003341222717]",4.0,False,5.833333333333333,3.5449494589721118,3.7497031688690186,0.9283622744296902
0,,sub_106,2024-07-15 10:44:19,3,distance,cathedral,numerosity_judgement,1,37,2,countries_forward,"['_Oman_', '_Yemen_']","['m', 'm']","['p229', 'p256']","[3, 6]","[89.14911522239515, 91.58892582949886]",2.0,True,6.5,2.1213203435596424,2.2510640621185303,0.5410623084780388
0,,sub_106,2024-07-15 10:44:24,3,distance,cathedral,numerosity_judgement,1,38,5,countries_forward,"['_Japan_', '_Sudan_', '_Belgium_', '_Peru_', '_Oman_']","['m', 'm', 'f', 'f', 'm']","['p256', 'p307', 'p245', 'p284', 'p229']","[7, 9, 3, 0, 8]","[91.73820004985969, 92.00610777531934, 89.14911522239515, 84.40078082039426, 92.0152836843556]",3.0,False,7.4,3.7815340802378072,2.93705153465271,0.7927590511860175
0,,sub_106,2024-07-15 10:44:28,3,distance,cathedral,numerosity_judgement,1,39,3,countries_forward,"['_Peru_', '_Togo_', '_Mali_']","['f', 'f', 'f']","['p268', 'p248', 'p245']","[9, 0, 5]","[92.00610777531934, 84.40078082039426, 90.34149293193902]",2.0,False,6.666666666666667,4.509249752822894,2.376845598220825,0.7896266031097492
0,,sub_106,2024-07-15 10:44:32,3,distance,cathedral,numerosity_judgement,1,40,4,countries_forward,"['_Congo_', '_Oman_', '_Peru_', '_Yemen_']","['m', 'm', 'f', 'f']","['p307', 'p229', 'p284', 'p248']","[3, 10, 2, 6]","[89.14911522239515, 93.00003341222717, 87.57049330475357, 91.58892582949886]",4.0,True,7.25,3.593976442141304,2.3748066425323486,0.672829417773238
0,,sub_106,2024-07-15 10:44:38,3,distance,cathedral,numerosity_judgement,1,41,6,countries_forward,"['_Congo_', '_Tonga_', '_Cuba_', '_Peru_', '_Mali_', '_Belgium_']","['f', 'm', 'f', 'm', 'm', 'f']","['p284', 'p307', 'p248', 'p229', 'p318', 'p268']","[7, 9, 1, 3, 5, 10]","[91.73820004985969, 92.00610777531934, 86.2038576498559, 89.14911522239515, 90.34149293193902, 93.00003341222717]",4.0,False,7.833333333333333,3.488074922742725,3.4997544288635254,0.9613210759278176
0,,sub_106,2024-07-15 10:44:44,3,distance,cathedral,numerosity_judgement,1,42,2,countries_forward,"['_Syria_', '_Sudan_']","['m', 'f']","['p229', 'p284']","[3, 0]","[89.14911522239515, 84.40078082039426]",2.0,True,3.5,2.1213203435596424,4.24964451789856,0.9347066167290886
0,,sub_106,2024-07-15 10:44:52,3,distance,cathedral,numerosity_judgement,1,43,5,countries_forward,"['_Yemen_', '_Cuba_', '_Tonga_', '_Oman_', '_Peru_']","['f', 'm', 'f', 'f', 'm']","['p284', 'p229', 'p248', 'p245', 'p307']","[7, 3, 5, 6, 2]","[91.73820004985969, 89.14911522239515, 90.34149293193902, 91.58892582949886, 87.57049330475357]",4.0,False,6.6,2.073644135332772,6.063024044036865,0.6934740665077743
0,,sub_106,2024-07-15 10:44:55,3,distance,cathedral,numerosity_judgement,1,44,3,countries_forward,"['_Syria_', '_Belgium_', '_Togo_']","['f', 'f', 'f']","['p284', 'p248', 'p245']","[3, 2, 0]","[89.14911522239515, 87.57049330475357, 84.40078082039426]",3.0,True,3.6666666666666665,1.5275252316519468,2.061671733856201,0.9649755986834638
0,,sub_106,2024-07-15 10:45:01,3,distance,cathedral,numerosity_judgement,1,45,5,countries_forward,"['_Togo_', '_Syria_', '_Peru_', '_Japan_', '_Oman_']","['m', 'f', 'm', 'f', 'm']","['p307', 'p248', 'p256', 'p284', 'p318']","[5, 7, 8, 0, 9]","[90.34149293193902, 91.73820004985969, 92.0152836843556, 84.40078082039426, 92.00610777531934]",4.0,False,7.8,3.5637059362410923,3.7505736351013184,0.9193962092838496
0,,sub_106,2024-07-15 10:45:04,3,distance,cathedral,numerosity_judgement,1,46,6,countries_forward,"['_Japan_', '_Yemen_', '_Britain_', '_Belgium_', '_Oman_', '_Syria_']","['m', 'm', 'f', 'm', 'f', 'f']","['p318', 'p307', 'p248', 'p229', 'p245', 'p268']","[10, 6, 0, 7, 8, 1]","[93.00003341222717, 91.58892582949886, 84.40078082039426, 91.73820004985969, 92.0152836843556, 86.2038576498559]",5.0,False,7.333333333333333,3.9832984656772417,1.185896635055542,0.9110089660651458
0,,sub_106,2024-07-15 10:45:09,3,distance,cathedral,numerosity_judgement,1,47,4,countries_forward,"['_Syria_', '_Yemen_', '_Tonga_', '_Mali_']","['f', 'f', 'm', 'f']","['p268', 'p245', 'p307', 'p248']","[5, 1, 0, 4]","[90.34149293193902, 86.2038576498559, 84.40078082039426, 89.31368318402099]",4.0,True,4.5,2.3804761428476167,3.1975784301757812,0.9336170695721258
0,,sub_106,2024-07-15 10:45:16,3,distance,cathedral,numerosity_judgement,1,48,2,countries_forward,"['_Congo_', '_Yemen_']","['m', 'm']","['p229', 'p256']","[0, 10]","[84.40078082039426, 93.00003341222717]",4.0,False,7.0,7.0710678118654755,5.173488140106201,0.7137555328566565
0,,sub_106,2024-07-15 10:45:21,3,distance,cathedral,numerosity_judgement,1,49,3,countries_forward,"['_Cuba_', '_Congo_', '_Japan_']","['m', 'm', 'f']","['p229', 'p318', 'p284']","[8, 7, 4]","[92.0152836843556, 91.73820004985969, 89.31368318402099]",3.0,True,8.333333333333334,2.0816659994661326,3.6234004497528076,0.8641697877652934
0,,sub_106,2024-07-15 10:45:25,3,distance,cathedral,numerosity_judgement,1,50,5,countries_forward,"['_Japan_', '_Peru_', '_Togo_', '_Sudan_', '_Mali_']","['m', 'f', 'm', 'f', 'f']","['p256', 'p248', 'p229', 'p245', 'p268']","[4, 7, 8, 3, 9]","[89.31368318402099, 91.73820004985969, 92.0152836843556, 89.14911522239515, 92.00610777531934]",5.0,True,8.2,2.588435821108957,2.141719341278076,0.848916127567813
0,,sub_106,2024-07-15 10:45:29,3,distance,cathedral,numerosity_judgement,1,51,4,countries_forward,"['_Yemen_', '_Britain_', '_Oman_', '_Mali_']","['f', 'm', 'm', 'm']","['p248', 'p256', 'p307', 'p318']","[6, 10, 3, 0]","[91.58892582949886, 93.00003341222717, 89.14911522239515, 84.40078082039426]",4.0,True,6.75,4.272001872658765,2.0650432109832764,0.7150607195551015
0,,sub_106,2024-07-15 10:45:32,3,distance,cathedral,numerosity_judgement,1,52,3,countries_forward,"['_Congo_', '_Syria_', '_Oman_']","['f', 'm', 'm']","['p245', 'p256', 'p307']","[0, 1, 4]","[84.40078082039426, 86.2038576498559, 89.31368318402099]",3.0,True,3.6666666666666665,2.081665999466133,1.562366008758545,0.8412892974690728
0,,sub_106,2024-07-15 10:45:36,3,distance,cathedral,numerosity_judgement,1,53,2,countries_forward,"['_Oman_', '_Belgium_']","['m', 'm']","['p256', 'p229']","[7, 4]","[91.73820004985969, 89.31368318402099]",2.0,True,7.5,2.1213203435596424,2.499112129211426,0.6596867551923732
0,,sub_106,2024-07-15 10:45:40,3,distance,cathedral,numerosity_judgement,1,54,6,countries_forward,"['_Oman_', '_Yemen_', '_Congo_', '_Tonga_', '_Syria_', '_Sudan_']","['m', 'f', 'm', 'f', 'f', 'm']","['p318', 'p268', 'p229', 'p245', 'p248', 'p256']","[3, 1, 2, 10, 0, 8]","[89.14911522239515, 86.2038576498559, 87.57049330475357, 93.00003341222717, 84.40078082039426, 92.0152836843556]",4.0,False,6.0,4.049691346263317,1.9374778270721436,0.8250141868119396
0,,sub_106,2024-07-15 10:45:44,3,distance,cathedral,numerosity_judgement,1,55,2,countries_forward,"['_Oman_', '_Britain_']","['m', 'm']","['p307', 'p256']","[5, 10]","[90.34149293193902, 93.00003341222717]",3.0,False,9.5,3.5355339059327378,2.950547456741333,0.6204744069912609
0,,sub_106,2024-07-15 10:45:51,3,distance,cathedral,numerosity_judgement,1,56,5,countries_forward,"['_Cuba_', '_Yemen_', '_Sudan_', '_Togo_', '_Japan_']","['m', 'm', 'f', 'f', 'f']","['p318', 'p307', 'p284', 'p245', 'p248']","[1, 6, 10, 3, 4]","[86.2038576498559, 91.58892582949886, 93.00003341222717, 89.14911522239515, 89.31368318402099]",3.0,False,6.8,3.420526275297414,4.875828742980957,0.9072295993644308
0,,sub_106,2024-07-15 10:45:56,3,distance,cathedral,numerosity_judgement,1,57,3,countries_forward,"['_Mali_', '_Tonga_', '_Oman_']","['m', 'f', 'f']","['p229', 'p245', 'p248']","[8, 7, 9]","[92.0152836843556, 91.73820004985969, 92.00610777531934]",3.0,True,10.0,1.0,3.1247169971466064,0.6949154466008398
0,,sub_106,2024-07-15 10:46:00,3,distance,cathedral,numerosity_judgement,1,58,6,countries_forward,"['_Japan_', '_Tonga_', '_Oman_', '_Sudan_', '_Mali_', '_Togo_']","['f', 'f', 'f', 'm', 'm', 'm']","['p245', 'p268', 'p284', 'p256', 'p318', 'p307']","[9, 6, 7, 8, 3, 2]","[92.00610777531934, 91.58892582949886, 91.73820004985969, 92.0152836843556, 89.14911522239515, 87.57049330475357]",5.0,False,7.833333333333333,2.786873995477131,2.251340389251709,0.890829644762229
0,,sub_106,2024-07-15 10:46:06,3,distance,cathedral,numerosity_judgement,1,59,4,countries_forward,"['_Peru_', '_Tonga_', '_Syria_', '_Mali_']","['m', 'm', 'm', 'f']","['p256', 'p307', 'p318', 'p245']","[8, 5, 2, 9]","[92.0152836843556, 90.34149293193902, 87.57049330475357, 92.00610777531934]",4.0,True,8.0,3.1622776601683795,4.436963796615601,0.9204176597435024
0,,sub_106,2024-07-15 10:46:14,3,distance,cathedral,numerosity_judgement,1,60,5,countries_forward,"['_Yemen_', '_Japan_', '_Cuba_', '_Oman_', '_Congo_']","['f', 'm', 'f', 'm', 'f']","['p248', 'p318', 'p245', 'p307', 'p268']","[10, 3, 1, 9, 6]","[93.00003341222717, 89.14911522239515, 86.2038576498559, 92.00610777531934, 91.58892582949886]",5.0,True,7.8,3.8340579025361627,5.627804756164551,0.729043241402792
0,,sub_106,2024-07-15 10:46:21,3,distance,cathedral,numerosity_judgement,1,61,2,countries_forward,"['_Togo_', '_Sudan_']","['m', 'f']","['p229', 'p268']","[3, 4]","[89.14911522239515, 89.31368318402099]",3.0,False,5.5,0.7071067811865476,5.624559640884399,0.9616161616161616
0,,sub_106,2024-07-15 10:46:26,3,distance,cathedral,numerosity_judgement,1,62,6,countries_forward,"['_Tonga_', '_Peru_', '_Britain_', '_Oman_', '_Yemen_', '_Mali_']","['f', 'f', 'm', 'f', 'm', 'f']","['p245', 'p268', 'p318', 'p248', 'p307', 'p284']","[10, 8, 6, 9, 2, 7]","[93.00003341222717, 92.0152836843556, 91.58892582949886, 92.00610777531934, 87.57049330475357, 91.73820004985969]",5.0,False,9.0,2.8284271247461903,3.8130664825439453,0.7124843945068664
0,,sub_106,2024-07-15 10:46:34,3,distance,cathedral,numerosity_judgement,1,63,4,countries_forward,"['_Britain_', '_Oman_', '_Cuba_', '_Japan_']","['f', 'm', 'f', 'm']","['p248', 'p256', 'p245', 'p307']","[7, 6, 8, 3]","[91.73820004985969, 91.58892582949886, 92.0152836843556, 89.14911522239515]",4.0,True,8.0,2.160246899469287,5.504324436187744,0.766133242537737
0,,sub_106,2024-07-15 10:46:38,3,distance,cathedral,numerosity_judgement,1,64,3,countries_forward,"['_Syria_', '_Tonga_', '_Japan_']","['f', 'f', 'm']","['p268', 'p248', 'p307']","[9, 8, 4]","[92.00610777531934, 92.0152836843556, 89.31368318402099]",3.0,True,9.0,2.6457513110645907,2.3123388290405273,0.9456020882987176
0,,sub_106,2024-07-15 10:46:46,3,distance,cathedral,numerosity_judgement,1,65,6,countries_forward,"['_Japan_', '_Cuba_', '_Britain_', '_Sudan_', '_Togo_', '_Congo_']","['m', 'f', 'f', 'm', 'f', 'm']","['p307', 'p248', 'p245', 'p229', 'p284', 'p318']","[2, 3, 1, 0, 7, 9]","[87.57049330475357, 89.14911522239515, 86.2038576498559, 84.40078082039426, 91.73820004985969, 92.00610777531934]",4.0,False,5.666666666666667,3.559026084010437,6.359760522842407,0.9444444444444444
0,,sub_106,2024-07-15 10:46:53,3,distance,cathedral,numerosity_judgement,1,66,5,countries_forward,"['_Cuba_', '_Oman_', '_Mali_', '_Belgium_', '_Britain_']","['f', 'm', 'm', 'f', 'm']","['p248', 'p229', 'p256', 'p284', 'p318']","[7, 1, 6, 9, 0]","[91.73820004985969, 86.2038576498559, 91.58892582949886, 92.00610777531934, 84.40078082039426]",4.0,False,6.6,3.9115214431215892,4.937124013900757,0.8585972080354103
0,,sub_106,2024-07-15 10:46:58,3,distance,cathedral,numerosity_judgement,1,67,2,countries_forward,"['_Japan_', '_Britain_']","['f', 'f']","['p248', 'p284']","[5, 7]","[90.34149293193902, 91.73820004985969]",3.0,False,8.0,1.4142135623730951,3.4877164363861084,0.8611281352854386
0,,sub_106,2024-07-15 10:47:05,3,distance,cathedral,numerosity_judgement,1,68,3,countries_forward,"['_Togo_', '_Congo_', '_Tonga_']","['m', 'f', 'm']","['p256', 'p245', 'p318']","[9, 7, 1]","[92.00610777531934, 91.73820004985969, 86.2038576498559]",3.0,True,7.666666666666667,4.163331998932266,5.299084901809692,0.9192032686414708
0,,sub_106,2024-07-15 10:47:11,3,distance,cathedral,numerosity_judgement,1,69,4,countries_forward,"['_Sudan_', '_Congo_', '_Britain_', '_Mali_']","['m', 'f', 'm', 'f']","['p318', 'p268', 'p307', 'p284']","[0, 9, 1, 10]","[84.40078082039426, 92.00610777531934, 86.2038576498559, 93.00003341222717]",3.0,False,7.0,5.228129047119374,4.68721342086792,0.956281920326864
0,,sub_106,2024-07-15 10:47:15,3,distance,cathedral,numerosity_judgement,1,70,3,countries_forward,"['_Britain_', '_Togo_', '_Belgium_']","['m', 'm', 'f']","['p307', 'p229', 'p284']","[10, 0, 4]","[93.00003341222717, 84.40078082039426, 89.31368318402099]",3.0,True,6.666666666666667,5.033222956847167,2.125741720199585,0.8990693451367608
0,,sub_106,2024-07-15 10:47:19,3,distance,cathedral,numerosity_judgement,1,71,6,countries_forward,"['_Britain_', '_Togo_', '_Tonga_', '_Japan_', '_Congo_', '_Oman_']","['f', 'm', 'm', 'm', 'f', 'f']","['p245', 'p307', 'p229', 'p256', 'p284', 'p268']","[8, 0, 4, 9, 6, 10]","[92.0152836843556, 84.40078082039426, 89.31368318402099, 92.00610777531934, 91.58892582949886, 93.00003341222717]",4.0,False,8.166666666666666,3.7103458958251676,1.8784551620483398,0.7601180342753376
0,,sub_106,2024-07-15 10:47:22,3,distance,cathedral,numerosity_judgement,1,72,4,countries_forward,"['_Sudan_', '_Japan_', '_Belgium_', '_Britain_']","['f', 'f', 'm', 'f']","['p284', 'p248', 'p307', 'p268']","[4, 7, 8, 0]","[89.31368318402099, 91.73820004985969, 92.0152836843556, 84.40078082039426]",5.0,False,6.75,3.593976442141304,1.7498774528503418,0.8924866643967767
0,,sub_106,2024-07-15 10:47:27,3,distance,cathedral,numerosity_judgement,1,73,2,countries_forward,"['_Cuba_', '_Congo_']","['m', 'm']","['p318', 'p256']","[8, 5]","[92.0152836843556, 90.34149293193902]",2.0,True,8.5,2.1213203435596424,3.612241744995117,0.816093519464306
0,,sub_106,2024-07-15 10:47:31,3,distance,cathedral,numerosity_judgement,1,74,5,countries_forward,"['_Togo_', '_Mali_', '_Cuba_', '_Congo_', '_Tonga_']","['f', 'f', 'm', 'm', 'f']","['p268', 'p245', 'p307', 'p256', 'p284']","[4, 10, 3, 9, 1]","[89.31368318402099, 93.00003341222717, 89.14911522239515, 92.00610777531934, 86.2038576498559]",5.0,True,7.4,3.9115214431215892,1.8704030513763428,0.8116331857904892
0,,sub_106,2024-07-15 10:52:16,3,distance,cathedral,numerosity_judgement,2,0,2,countries_forward,"['_Britain_', '_Sudan_']","['f', 'm']","['p248', 'p229']","[7, 3]","[91.73820004985969, 89.14911522239515]",3.0,False,7.0,2.8284271247461903,3.5647027492523193,0.933083645443196
0,,sub_106,2024-07-15 10:52:22,3,distance,cathedral,numerosity_judgement,2,1,3,countries_forward,"['_Yemen_', '_Japan_', '_Cuba_']","['m', 'f', 'f']","['p229', 'p245', 'p268']","[4, 2, 8]","[89.31368318402099, 87.57049330475357, 92.0152836843556]",3.0,True,6.666666666666667,3.0550504633038935,4.061912775039673,0.8338440585631597
0,,sub_106,2024-07-15 10:52:25,3,distance,cathedral,numerosity_judgement,2,2,5,countries_forward,"['_Belgium_', '_Yemen_', '_Congo_', '_Togo_', '_Sudan_']","['m', 'm', 'f', 'f', 'm']","['p318', 'p229', 'p284', 'p268', 'p307']","[9, 10, 2, 6, 0]","[92.00610777531934, 93.00003341222717, 87.57049330475357, 91.58892582949886, 84.40078082039426]",4.0,False,7.4,4.33589667773576,1.688410997390747,0.919305413687436
0,,sub_106,2024-07-15 10:52:29,3,distance,cathedral,numerosity_judgement,2,3,4,countries_forward,"['_Cuba_', '_Mali_', '_Togo_', '_Yemen_']","['m', 'm', 'f', 'f']","['p307', 'p256', 'p268', 'p284']","[8, 9, 10, 4]","[92.0152836843556, 92.00610777531934, 93.00003341222717, 89.31368318402099]",5.0,False,9.75,2.6299556396765835,1.6248869895935059,0.7401089547156963
0,,sub_106,2024-07-15 10:52:34,3,distance,cathedral,numerosity_judgement,2,4,6,countries_forward,"['_Oman_', '_Japan_', '_Togo_', '_Yemen_', '_Cuba_', '_Belgium_']","['m', 'f', 'm', 'f', 'm', 'f']","['p307', 'p245', 'p318', 'p284', 'p256', 'p268']","[1, 3, 4, 9, 5, 10]","[86.2038576498559, 89.14911522239515, 89.31368318402099, 92.00610777531934, 90.34149293193902, 93.00003341222717]",5.0,False,7.333333333333333,3.5023801430836525,3.309565305709839,0.8875610032913404
0,,sub_106,2024-07-15 10:52:38,3,distance,cathedral,numerosity_judgement,2,5,4,countries_forward,"['_Yemen_', '_Belgium_', '_Peru_', '_Cuba_']","['f', 'm', 'm', 'f']","['p248', 'p318', 'p307', 'p245']","[3, 10, 4, 2]","[89.14911522239515, 93.00003341222717, 89.31368318402099, 87.57049330475357]",3.0,False,6.75,3.593976442141304,2.4373292922973633,0.8475541936216093
0,,sub_106,2024-07-15 10:52:41,3,distance,cathedral,numerosity_judgement,2,6,2,countries_forward,"['_Yemen_', '_Peru_']","['m', 'f']","['p256', 'p245']","[7, 5]","[91.73820004985969, 90.34149293193902]",2.0,True,8.0,1.4142135623730951,1.4348688125610352,0.5815457950289411
0,,sub_106,2024-07-15 10:52:45,3,distance,cathedral,numerosity_judgement,2,7,3,countries_forward,"['_Tonga_', '_Togo_', '_Mali_']","['m', 'm', 'f']","['p256', 'p229', 'p248']","[7, 5, 2]","[91.73820004985969, 90.34149293193902, 87.57049330475357]",3.0,True,6.666666666666667,2.516611478423583,1.6883325576782227,0.8564975598683464
0,,sub_106,2024-07-15 10:52:54,3,distance,cathedral,numerosity_judgement,2,8,5,countries_forward,"['_Japan_', '_Yemen_', '_Sudan_', '_Syria_', '_Congo_']","['f', 'm', 'm', 'f', 'f']","['p245', 'p307', 'p256', 'p248', 'p284']","[2, 0, 8, 10, 1]","[87.57049330475357, 84.40078082039426, 92.0152836843556, 93.00003341222717, 86.2038576498559]",5.0,True,6.2,4.494441010848846,7.748739242553711,0.8785041425490864
0,,sub_106,2024-07-15 10:52:59,3,distance,cathedral,numerosity_judgement,2,9,6,countries_forward,"['_Togo_', '_Oman_', '_Congo_', '_Yemen_', '_Tonga_', '_Cuba_']","['m', 'm', 'm', 'f', 'f', 'f']","['p229', 'p307', 'p256', 'p284', 'p268', 'p248']","[7, 0, 4, 8, 3, 2]","[91.73820004985969, 84.40078082039426, 89.31368318402099, 92.0152836843556, 89.14911522239515, 87.57049330475357]",4.0,False,6.0,3.03315017762062,2.873584032058716,0.7453297015094767
0,,sub_106,2024-07-15 10:53:04,3,distance,cathedral,numerosity_judgement,2,10,5,countries_forward,"['_Yemen_', '_Sudan_', '_Peru_', '_Tonga_', '_Congo_']","['m', 'f', 'm', 'f', 'm']","['p318', 'p268', 'p229', 'p284', 'p307']","[1, 4, 0, 10, 8]","[86.2038576498559, 89.31368318402099, 84.40078082039426, 93.00003341222717, 92.0152836843556]",4.0,False,6.6,4.33589667773576,2.998504638671875,0.9571671773918964
0,,sub_106,2024-07-15 10:53:08,3,distance,cathedral,numerosity_judgement,2,11,2,countries_forward,"['_Mali_', '_Cuba_']","['m', 'f']","['p307', 'p268']","[7, 8]","[91.73820004985969, 92.0152836843556]",3.0,False,9.5,0.7071067811865476,2.5623207092285156,0.7326296674611281
0,,sub_106,2024-07-15 10:53:15,3,distance,cathedral,numerosity_judgement,2,12,3,countries_forward,"['_Congo_', '_Oman_', '_Yemen_']","['f', 'm', 'f']","['p268', 'p307', 'p245']","[3, 4, 6]","[89.14911522239515, 89.31368318402099, 91.58892582949886]",2.0,False,6.333333333333333,1.5275252316519465,5.061939477920532,0.6248439450686641
0,,sub_106,2024-07-15 10:53:20,3,distance,cathedral,numerosity_judgement,2,13,4,countries_forward,"['_Congo_', '_Oman_', '_Yemen_', '_Tonga_']","['m', 'm', 'f', 'f']","['p318', 'p229', 'p248', 'p245']","[4, 1, 5, 3]","[89.31368318402099, 86.2038576498559, 90.34149293193902, 89.14911522239515]",3.0,False,5.25,1.707825127659933,3.0615620613098145,0.6943593235728067
0,,sub_106,2024-07-15 10:53:25,3,distance,cathedral,numerosity_judgement,2,14,6,countries_forward,"['_Cuba_', '_Congo_', '_Togo_', '_Yemen_', '_Mali_', '_Peru_']","['m', 'f', 'f', 'f', 'm', 'f']","['p307', 'p245', 'p268', 'p248', 'p256', 'p284']","[4, 2, 10, 3, 6, 8]","[89.31368318402099, 87.57049330475357, 93.00003341222717, 89.14911522239515, 91.58892582949886, 92.0152836843556]",4.0,False,7.5,3.082207001484488,3.1867194175720215,0.721632050845534
0,,sub_106,2024-07-15 10:53:29,3,distance,cathedral,numerosity_judgement,2,15,5,countries_forward,"['_Mali_', '_Peru_', '_Congo_', '_Sudan_', '_Yemen_']","['m', 'f', 'f', 'f', 'm']","['p229', 'p268', 'p248', 'p245', 'p318']","[8, 4, 10, 3, 0]","[92.0152836843556, 89.31368318402099, 93.00003341222717, 89.14911522239515, 84.40078082039426]",4.0,False,7.0,4.0,2.5607690811157227,0.8692089433662468
0,,sub_106,2024-07-15 10:53:33,3,distance,cathedral,numerosity_judgement,2,16,3,countries_forward,"['_Yemen_', '_Peru_', '_Tonga_']","['f', 'm', 'm']","['p268', 'p318', 'p307']","[8, 3, 5]","[92.0152836843556, 89.14911522239515, 90.34149293193902]",5.0,False,7.333333333333333,2.516611478423583,1.4373986721038818,0.649211213256157
0,,sub_106,2024-07-15 10:53:38,3,distance,cathedral,numerosity_judgement,2,17,4,countries_forward,"['_Oman_', '_Peru_', '_Britain_', '_Cuba_']","['f', 'm', 'm', 'f']","['p248', 'p307', 'p318', 'p268']","[7, 5, 10, 3]","[91.73820004985969, 90.34149293193902, 93.00003341222717, 89.14911522239515]",4.0,True,8.25,2.9860788111948193,3.938774585723877,0.6691067983202814
0,,sub_106,2024-07-15 10:53:42,3,distance,cathedral,numerosity_judgement,2,18,2,countries_forward,"['_Congo_', '_Yemen_']","['f', 'f']","['p284', 'p268']","[7, 4]","[91.73820004985969, 89.31368318402099]",2.0,True,7.5,2.1213203435596424,2.1261980533599854,0.8596754057428214
0,,sub_106,2024-07-15 10:53:48,3,distance,cathedral,numerosity_judgement,2,19,6,countries_forward,"['_Tonga_', '_Congo_', '_Cuba_', '_Togo_', '_Syria_', '_Oman_']","['f', 'm', 'f', 'm', 'f', 'm']","['p245', 'p229', 'p268', 'p307', 'p248', 'p256']","[7, 9, 5, 6, 0, 3]","[91.73820004985969, 92.00610777531934, 90.34149293193902, 91.58892582949886, 84.40078082039426, 89.14911522239515]",4.0,False,7.0,3.1622776601683795,4.063482046127319,0.7532062194983543
0,,sub_106,2024-07-15 10:53:53,3,distance,cathedral,numerosity_judgement,2,20,5,countries_forward,"['_Mali_', '_Japan_', '_Syria_', '_Britain_', '_Yemen_']","['m', 'f', 'f', 'f', 'm']","['p307', 'p268', 'p284', 'p248', 'p229']","[8, 4, 1, 10, 3]","[92.0152836843556, 89.31368318402099, 86.2038576498559, 93.00003341222717, 89.14911522239515]",5.0,True,7.2,3.7013511046643495,3.2518064975738525,0.8934173192600159
0,,sub_106,2024-07-15 10:53:57,3,distance,cathedral,numerosity_judgement,2,21,4,countries_forward,"['_Yemen_', '_Congo_', '_Syria_', '_Oman_']","['m', 'm', 'f', 'f']","['p256', 'p229', 'p284', 'p245']","[5, 9, 7, 3]","[90.34149293193902, 92.00610777531934, 91.73820004985969, 89.14911522239515]",4.0,True,8.0,2.581988897471611,2.3137333393096924,0.7817387356713199
0,,sub_106,2024-07-15 10:54:01,3,distance,cathedral,numerosity_judgement,2,22,3,countries_forward,"['_Peru_', '_Oman_', '_Yemen_']","['m', 'm', 'f']","['p256', 'p318', 'p248']","[3, 6, 5]","[89.14911522239515, 91.58892582949886, 90.34149293193902]",3.0,True,6.666666666666667,1.5275252316519465,2.0000200271606445,0.6972534332084894
0,,sub_106,2024-07-15 10:54:05,3,distance,cathedral,numerosity_judgement,2,23,6,countries_forward,"['_Syria_', '_Yemen_', '_Togo_', '_Belgium_', '_Mali_', '_Britain_']","['f', 'f', 'm', 'm', 'm', 'f']","['p268', 'p248', 'p318', 'p229', 'p256', 'p245']","[9, 1, 6, 3, 8, 4]","[92.00610777531934, 86.2038576498559, 91.58892582949886, 89.14911522239515, 92.0152836843556, 89.31368318402099]",5.0,False,7.166666666666667,3.0605010483034745,1.9961869716644287,0.9515151515151516
0,,sub_106,2024-07-15 10:54:10,3,distance,cathedral,numerosity_judgement,2,24,2,countries_forward,"['_Oman_', '_Britain_']","['m', 'm']","['p229', 'p256']","[8, 7]","[92.0152836843556, 91.73820004985969]",4.0,False,9.5,0.7071067811865476,4.313748836517334,0.6166042446941323
0,,sub_106,2024-07-15 10:54:17,3,distance,cathedral,numerosity_judgement,2,25,4,countries_forward,"['_Yemen_', '_Oman_', '_Tonga_', '_Peru_']","['f', 'm', 'f', 'm']","['p268', 'p229', 'p245', 'p307']","[7, 2, 4, 10]","[91.73820004985969, 87.57049330475357, 89.31368318402099, 93.00003341222717]",4.0,True,7.75,3.5,4.608572483062744,0.7081148564294631
0,,sub_106,2024-07-15 10:54:21,3,distance,cathedral,numerosity_judgement,2,26,3,countries_forward,"['_Congo_', '_Tonga_', '_Oman_']","['f', 'f', 'f']","['p248', 'p268', 'p284']","[5, 4, 0]","[90.34149293193902, 89.31368318402099, 84.40078082039426]",3.0,True,5.0,2.6457513110645907,2.6883022785186768,0.7819089774145954
0,,sub_106,2024-07-15 10:54:25,3,distance,cathedral,numerosity_judgement,2,27,2,countries_forward,"['_Yemen_', '_Sudan_']","['f', 'f']","['p245', 'p248']","[0, 5]","[84.40078082039426, 90.34149293193902]",2.0,True,4.5,3.5355339059327378,2.921715497970581,0.90628759505164
0,,sub_106,2024-07-15 10:54:29,3,distance,cathedral,numerosity_judgement,2,28,6,countries_forward,"['_Belgium_', '_Japan_', '_Togo_', '_Cuba_', '_Yemen_', '_Sudan_']","['m', 'f', 'm', 'm', 'm', 'f']","['p318', 'p284', 'p307', 'p256', 'p229', 'p248']","[2, 3, 6, 4, 5, 7]","[87.57049330475357, 89.14911522239515, 91.58892582949886, 89.31368318402099, 90.34149293193902, 91.73820004985969]",4.0,False,6.5,1.8708286933869707,1.9968924522399902,0.8451027125184428
0,,sub_106,2024-07-15 10:54:33,3,distance,cathedral,numerosity_judgement,2,29,5,countries_forward,"['_Belgium_', '_Tonga_', '_Yemen_', '_Syria_', '_Britain_']","['m', 'f', 'm', 'f', 'f']","['p307', 'p268', 'p256', 'p245', 'p248']","[2, 6, 10, 5, 1]","[87.57049330475357, 91.58892582949886, 93.00003341222717, 90.34149293193902, 86.2038576498559]",5.0,True,6.8,3.5637059362410923,1.374903678894043,0.8199977301100897
0,,sub_106,2024-07-15 10:54:36,3,distance,cathedral,numerosity_judgement,2,30,2,countries_forward,"['_Peru_', '_Mali_']","['m', 'm']","['p318', 'p256']","[7, 9]","[91.73820004985969, 92.00610777531934]",3.0,False,10.0,1.4142135623730951,1.5587215423583984,0.8128816252411758
0,,sub_106,2024-07-15 10:54:40,3,distance,cathedral,numerosity_judgement,2,31,3,countries_forward,"['_Peru_', '_Yemen_', '_Oman_']","['m', 'f', 'f']","['p318', 'p245', 'p248']","[10, 1, 4]","[93.00003341222717, 86.2038576498559, 89.31368318402099]",4.0,False,7.0,4.58257569495584,3.063103199005127,0.7309385994779253
0,,sub_106,2024-07-15 10:54:46,3,distance,cathedral,numerosity_judgement,2,32,4,countries_forward,"['_Syria_', '_Yemen_', '_Togo_', '_Cuba_']","['m', 'm', 'f', 'f']","['p256', 'p318', 'p284', 'p245']","[6, 10, 3, 5]","[91.58892582949886, 93.00003341222717, 89.14911522239515, 90.34149293193902]",4.0,True,8.0,2.943920288775949,3.437581777572632,0.7675859720803541
0,,sub_106,2024-07-15 10:54:49,3,distance,cathedral,numerosity_judgement,2,33,6,countries_forward,"['_Cuba_', '_Oman_', '_Togo_', '_Yemen_', '_Britain_', '_Mali_']","['f', 'm', 'm', 'f', 'm', 'm']","['p268', 'p256', 'p318', 'p284', 'p229', 'p307']","[0, 3, 6, 1, 10, 5]","[84.40078082039426, 89.14911522239515, 91.58892582949886, 86.2038576498559, 93.00003341222717, 90.34149293193902]",5.0,False,6.166666666666667,3.65604522218567,1.3749008178710938,0.7721371013505844
0,,sub_106,2024-07-15 10:54:52,3,distance,cathedral,numerosity_judgement,2,34,5,countries_forward,"['_Oman_', '_Tonga_', '_Japan_', '_Peru_', '_Yemen_']","['f', 'm', 'm', 'm', 'f']","['p268', 'p307', 'p256', 'p229', 'p248']","[8, 3, 7, 1, 5]","[92.0152836843556, 89.14911522239515, 91.73820004985969, 86.2038576498559, 90.34149293193902]",6.0,False,6.8,2.863564212655271,1.3749043941497803,0.7620701395982294
0,,sub_106,2024-07-15 10:54:56,3,distance,cathedral,numerosity_judgement,2,35,3,countries_forward,"['_Sudan_', '_Tonga_', '_Peru_']","['m', 'm', 'f']","['p229', 'p307', 'p284']","[9, 1, 5]","[92.00610777531934, 86.2038576498559, 90.34149293193902]",3.0,True,7.0,4.0,1.6884589195251465,0.9732266485075474
0,,sub_106,2024-07-15 10:55:00,3,distance,cathedral,numerosity_judgement,2,36,2,countries_forward,"['_Congo_', '_Japan_']","['m', 'm']","['p318', 'p256']","[1, 6]","[86.2038576498559, 91.58892582949886]",3.0,False,5.5,3.5355339059327378,2.873326063156128,0.8736919759391669
0,,sub_106,2024-07-15 10:55:16,3,distance,cathedral,numerosity_judgement,2,37,6,countries_forward,"['_Mali_', '_Peru_', '_Oman_', '_Congo_', '_Belgium_', '_Sudan_']","['f', 'm', 'f', 'm', 'm', 'f']","['p248', 'p318', 'p245', 'p229', 'p256', 'p268']","[8, 6, 0, 7, 4, 10]","[92.0152836843556, 91.58892582949886, 84.40078082039426, 91.73820004985969, 89.31368318402099, 93.00003341222717]",4.0,False,7.833333333333333,3.488074922742725,14.311160802841187,0.9169220292815798
0,,sub_106,2024-07-15 10:55:22,3,distance,cathedral,numerosity_judgement,2,38,5,countries_forward,"['_Congo_', '_Yemen_', '_Cuba_', '_Togo_', '_Tonga_']","['m', 'f', 'f', 'm', 'f']","['p307', 'p245', 'p268', 'p318', 'p248']","[8, 9, 6, 2, 1]","[92.0152836843556, 92.00610777531934, 91.58892582949886, 87.57049330475357, 86.2038576498559]",4.0,False,7.2,3.5637059362410923,4.125611305236816,0.7940642378844626
0,,sub_106,2024-07-15 10:55:27,3,distance,cathedral,numerosity_judgement,2,39,4,countries_forward,"['_Togo_', '_Cuba_', '_Peru_', '_Mali_']","['m', 'f', 'f', 'f']","['p307', 'p284', 'p268', 'p245']","[8, 3, 1, 0]","[92.0152836843556, 89.14911522239515, 86.2038576498559, 84.40078082039426]",5.0,False,5.0,3.559026084010437,3.124732732772827,0.8180569742367495
0,,sub_106,2024-07-15 10:55:36,3,distance,cathedral,numerosity_judgement,2,40,2,countries_forward,"['_Belgium_', '_Tonga_']","['m', 'f']","['p256', 'p245']","[8, 7]","[92.0152836843556, 91.73820004985969]",5.0,False,9.5,0.7071067811865476,7.125588417053223,0.7982294858699354
0,,sub_106,2024-07-15 10:55:42,3,distance,cathedral,numerosity_judgement,2,41,3,countries_forward,"['_Japan_', '_Syria_', '_Oman_']","['m', 'm', 'm']","['p318', 'p256', 'p307']","[8, 7, 6]","[92.0152836843556, 91.73820004985969, 91.58892582949886]",4.0,False,9.0,1.0,4.313188791275024,0.8102258540460787
0,,sub_106,2024-07-15 10:55:48,3,distance,cathedral,numerosity_judgement,2,42,5,countries_forward,"['_Cuba_', '_Mali_', '_Britain_', '_Tonga_', '_Oman_']","['m', 'f', 'm', 'm', 'f']","['p229', 'p245', 'p256', 'p307', 'p284']","[9, 5, 7, 10, 6]","[92.00610777531934, 90.34149293193902, 91.73820004985969, 93.00003341222717, 91.58892582949886]",4.0,False,9.4,2.073644135332772,4.124804258346558,0.729531267733515
0,,sub_106,2024-07-15 10:55:53,3,distance,cathedral,numerosity_judgement,2,43,6,countries_forward,"['_Mali_', '_Yemen_', '_Britain_', '_Cuba_', '_Syria_', '_Congo_']","['m', 'f', 'm', 'f', 'm', 'f']","['p307', 'p268', 'p229', 'p245', 'p256', 'p248']","[1, 0, 5, 9, 6, 7]","[86.2038576498559, 84.40078082039426, 90.34149293193902, 92.00610777531934, 91.58892582949886, 91.73820004985969]",5.0,False,6.666666666666667,3.5023801430836525,3.128640651702881,0.7922596754057428
0,,sub_106,2024-07-15 10:55:58,3,distance,cathedral,numerosity_judgement,2,44,4,countries_forward,"['_Cuba_', '_Yemen_', '_Congo_', '_Oman_']","['m', 'f', 'f', 'f']","['p307', 'p268', 'p245', 'p248']","[7, 8, 4, 3]","[91.73820004985969, 92.0152836843556, 89.31368318402099, 89.14911522239515]",4.0,True,7.5,2.3804761428476167,3.8105108737945557,0.629043241402792
0,,sub_106,2024-07-15 10:56:03,3,distance,cathedral,numerosity_judgement,2,45,3,countries_forward,"['_Sudan_', '_Belgium_', '_Togo_']","['f', 'f', 'f']","['p248', 'p284', 'p245']","[7, 6, 0]","[91.73820004985969, 91.58892582949886, 84.40078082039426]",4.0,False,6.333333333333333,3.7859388972001824,2.9397411346435547,0.9034615821132675
0,,sub_106,2024-07-15 10:56:07,3,distance,cathedral,numerosity_judgement,2,46,2,countries_forward,"['_Oman_', '_Yemen_']","['m', 'm']","['p229', 'p256']","[3, 6]","[89.14911522239515, 91.58892582949886]",3.0,False,6.5,2.1213203435596424,2.5617177486419678,0.5410623084780388
0,,sub_106,2024-07-15 10:56:11,3,distance,cathedral,numerosity_judgement,2,47,6,countries_forward,"['_Congo_', '_Oman_', '_Mali_', '_Togo_', '_Japan_', '_Belgium_']","['m', 'm', 'm', 'f', 'f', 'f']","['p256', 'p318', 'p307', 'p268', 'p245', 'p248']","[5, 4, 2, 6, 10, 0]","[90.34149293193902, 89.31368318402099, 87.57049330475357, 91.58892582949886, 93.00003341222717, 84.40078082039426]",4.0,False,6.5,3.449637662132068,2.124621629714966,0.8127567812961072
0,,sub_106,2024-07-15 10:56:15,3,distance,cathedral,numerosity_judgement,2,48,4,countries_forward,"['_Britain_', '_Sudan_', '_Belgium_', '_Japan_']","['f', 'f', 'm', 'm']","['p248', 'p284', 'p307', 'p256']","[4, 7, 1, 2]","[89.31368318402099, 91.73820004985969, 86.2038576498559, 87.57049330475357]",4.0,True,5.5,2.6457513110645907,2.0155539512634277,0.9541255249120416
0,,sub_106,2024-07-15 10:56:18,3,distance,cathedral,numerosity_judgement,2,49,5,countries_forward,"['_Syria_', '_Cuba_', '_Mali_', '_Japan_', '_Belgium_']","['f', 'm', 'f', 'm', 'f']","['p248', 'p256', 'p284', 'p229', 'p245']","[1, 3, 5, 10, 4]","[86.2038576498559, 89.14911522239515, 90.34149293193902, 93.00003341222717, 89.31368318402099]",5.0,True,6.6,3.361547262794322,1.3124735355377197,0.9306548632391328
0,,sub_106,2024-07-15 10:56:21,3,distance,cathedral,numerosity_judgement,2,50,3,countries_forward,"['_Yemen_', '_Congo_', '_Peru_']","['m', 'm', 'f']","['p256', 'p307', 'p268']","[10, 7, 4]","[93.00003341222717, 91.73820004985969, 89.31368318402099]",3.0,True,9.0,3.0,1.1268184185028076,0.6730791056633754
0,,sub_106,2024-07-15 10:56:24,3,distance,cathedral,numerosity_judgement,2,51,5,countries_forward,"['_Congo_', '_Oman_', '_Belgium_', '_Yemen_', '_Britain_']","['f', 'f', 'm', 'f', 'm']","['p268', 'p245', 'p318', 'p248', 'p307']","[3, 7, 5, 10, 6]","[89.14911522239515, 91.73820004985969, 90.34149293193902, 93.00003341222717, 91.58892582949886]",6.0,False,8.2,2.588435821108957,1.1249208450317383,0.7399500624219726
0,,sub_106,2024-07-15 10:56:27,3,distance,cathedral,numerosity_judgement,2,52,4,countries_forward,"['_Cuba_', '_Yemen_', '_Japan_', '_Oman_']","['m', 'f', 'f', 'f']","['p307', 'p248', 'p284', 'p268']","[1, 7, 0, 6]","[86.2038576498559, 91.73820004985969, 84.40078082039426, 91.58892582949886]",5.0,False,5.5,3.5118845842842465,2.064926862716675,0.8043581886278516
0,,sub_106,2024-07-15 10:56:31,3,distance,cathedral,numerosity_judgement,2,53,6,countries_forward,"['_Tonga_', '_Peru_', '_Britain_', '_Oman_', '_Yemen_', '_Mali_']","['f', 'f', 'm', 'f', 'm', 'f']","['p245', 'p268', 'p318', 'p248', 'p307', 'p284']","[10, 8, 6, 9, 2, 7]","[93.00003341222717, 92.0152836843556, 91.58892582949886, 92.00610777531934, 87.57049330475357, 91.73820004985969]",6.0,True,9.0,2.8284271247461903,1.235234022140503,0.7124843945068664
0,,sub_106,2024-07-15 10:56:36,3,distance,cathedral,numerosity_judgement,2,54,2,countries_forward,"['_Mali_', '_Oman_']","['f', 'm']","['p268', 'p307']","[10, 6]","[93.00003341222717, 91.58892582949886]",3.0,False,10.0,2.8284271247461903,3.6715738773345947,0.7475201452729543
0,,sub_106,2024-07-15 10:56:41,3,distance,cathedral,numerosity_judgement,2,55,5,countries_forward,"['_Cuba_', '_Yemen_', '_Belgium_', '_Mali_', '_Syria_']","['f', 'f', 'm', 'f', 'm']","['p268', 'p245', 'p229', 'p284', 'p256']","[3, 6, 5, 10, 9]","[89.14911522239515, 91.58892582949886, 90.34149293193902, 93.00003341222717, 92.00610777531934]",4.0,False,8.6,2.8809720581775866,3.4226701259613037,0.794949494949495
0,,sub_106,2024-07-15 10:56:46,3,distance,cathedral,numerosity_judgement,2,56,4,countries_forward,"['_Oman_', '_Congo_', '_Cuba_', '_Tonga_']","['f', 'm', 'f', 'm']","['p268', 'p229', 'p284', 'p256']","[4, 0, 10, 1]","[89.31368318402099, 84.40078082039426, 93.00003341222717, 86.2038576498559]",3.0,False,5.75,4.5,3.3747527599334717,0.8764385427306776
0,,sub_106,2024-07-15 10:56:52,3,distance,cathedral,numerosity_judgement,2,57,3,countries_forward,"['_Togo_', '_Syria_', '_Tonga_']","['f', 'f', 'f']","['p245', 'p268', 'p248']","[6, 2, 3]","[91.58892582949886, 87.57049330475357, 89.14911522239515]",3.0,True,5.666666666666667,2.0816659994661326,4.125913619995117,0.9069004653274316
0,,sub_106,2024-07-15 10:56:57,3,distance,cathedral,numerosity_judgement,2,58,6,countries_forward,"['_Oman_', '_Yemen_', '_Tonga_', '_Belgium_', '_Sudan_', '_Britain_']","['m', 'f', 'f', 'm', 'f', 'm']","['p256', 'p245', 'p284', 'p318', 'p268', 'p229']","[4, 8, 7, 2, 10, 0]","[89.31368318402099, 92.0152836843556, 91.73820004985969, 87.57049330475357, 93.00003341222717, 84.40078082039426]",5.0,False,7.166666666666667,3.8166302763912916,2.62483811378479,0.9389853592100784
0,,sub_106,2024-07-15 10:57:01,3,distance,cathedral,numerosity_judgement,2,59,2,countries_forward,"['_Tonga_', '_Japan_']","['f', 'm']","['p245', 'p307']","[5, 4]","[90.34149293193902, 89.31368318402099]",3.0,False,6.5,0.7071067811865476,3.2504234313964844,0.7031324480762683
0,,sub_106,2024-07-15 10:57:06,3,distance,cathedral,numerosity_judgement,2,60,5,countries_forward,"['_Congo_', '_Cuba_', '_Yemen_', '_Tonga_', '_Oman_']","['m', 'm', 'f', 'm', 'm']","['p256', 'p307', 'p245', 'p229', 'p318']","[6, 9, 4, 2, 8]","[91.58892582949886, 92.00610777531934, 89.31368318402099, 87.57049330475357, 92.0152836843556]",4.0,False,7.8,2.863564212655271,2.688676595687866,0.7028487118374759
0,,sub_106,2024-07-15 10:57:10,3,distance,cathedral,numerosity_judgement,2,61,4,countries_forward,"['_Congo_', '_Britain_', '_Belgium_', '_Syria_']","['m', 'm', 'm', 'm']","['p318', 'p229', 'p307', 'p256']","[6, 2, 3, 0]","[91.58892582949886, 87.57049330475357, 89.14911522239515, 84.40078082039426]",3.0,False,4.75,2.5,2.3731307983398438,0.934842810123709
0,,sub_106,2024-07-15 10:57:16,3,distance,cathedral,numerosity_judgement,2,62,6,countries_forward,"['_Peru_', '_Cuba_', '_Belgium_', '_Sudan_', '_Yemen_', '_Togo_']","['m', 'm', 'm', 'f', 'm', 'f']","['p307', 'p256', 'p229', 'p284', 'p318', 'p248']","[6, 4, 5, 3, 8, 1]","[91.58892582949886, 89.31368318402099, 90.34149293193902, 89.14911522239515, 92.0152836843556, 86.2038576498559]",5.0,False,6.5,2.4289915602982237,4.312422513961792,0.904868913857678
0,,sub_106,2024-07-15 10:57:24,3,distance,cathedral,numerosity_judgement,2,63,2,countries_forward,"['_Sudan_', '_Mali_']","['f', 'f']","['p268', 'p284']","[2, 4]","[87.57049330475357, 89.31368318402099]",5.0,False,5.0,1.4142135623730951,6.062769651412964,0.9611735330836454
0,,sub_106,2024-07-15 10:57:27,3,distance,cathedral,numerosity_judgement,2,64,3,countries_forward,"['_Britain_', '_Tonga_', '_Congo_']","['f', 'f', 'f']","['p284', 'p245', 'p248']","[7, 9, 5]","[91.73820004985969, 92.00610777531934, 90.34149293193902]",6.0,False,9.0,2.0,1.6872076988220215,0.7525139030757009
0,,sub_106,2024-07-15 10:57:31,3,distance,cathedral,numerosity_judgement,2,65,6,countries_forward,"['_Tonga_', '_Syria_', '_Sudan_', '_Belgium_', '_Cuba_', '_Peru_']","['f', 'm', 'm', 'f', 'f', 'm']","['p248', 'p307', 'p256', 'p284', 'p245', 'p229']","[10, 4, 2, 9, 1, 7]","[93.00003341222717, 89.31368318402099, 87.57049330475357, 92.00610777531934, 86.2038576498559, 91.73820004985969]",6.0,True,7.5,3.7282703764614498,1.3710176944732666,0.8658608557484962
0,,sub_106,2024-07-15 10:57:35,3,distance,cathedral,numerosity_judgement,2,66,4,countries_forward,"['_Japan_', '_Britain_', '_Tonga_', '_Peru_']","['m', 'f', 'f', 'm']","['p256', 'p268', 'p284', 'p229']","[1, 10, 5, 0]","[86.2038576498559, 93.00003341222717, 90.34149293193902, 84.40078082039426]",5.0,False,6.0,4.546060565661952,3.1244871616363525,0.9170809215753036
0,,sub_106,2024-07-15 10:57:41,3,distance,cathedral,numerosity_judgement,2,67,3,countries_forward,"['_Tonga_', '_Togo_', '_Peru_']","['m', 'f', 'f']","['p229', 'p268', 'p245']","[6, 10, 2]","[91.58892582949886, 93.00003341222717, 87.57049330475357]",4.0,False,8.0,4.0,4.001873731613159,0.8004085801838611
0,,sub_106,2024-07-15 10:57:46,3,distance,cathedral,numerosity_judgement,2,68,5,countries_forward,"['_Belgium_', '_Japan_', '_Yemen_', '_Peru_', '_Togo_']","['m', 'f', 'f', 'm', 'm']","['p318', 'p248', 'p245', 'p307', 'p229']","[4, 8, 9, 3, 5]","[89.31368318402099, 92.0152836843556, 92.00610777531934, 89.14911522239515, 90.34149293193902]",3.0,False,7.8,2.588435821108957,3.499434471130371,0.8347066167290886
0,,sub_106,2024-07-15 10:57:49,3,distance,cathedral,numerosity_judgement,2,69,2,countries_forward,"['_Oman_', '_Peru_']","['m', 'f']","['p307', 'p245']","[7, 6]","[91.73820004985969, 91.58892582949886]",2.0,True,8.5,0.7071067811865476,1.5623908042907715,0.6476336397684712
0,,sub_106,2024-07-15 10:57:55,3,distance,cathedral,numerosity_judgement,2,70,3,countries_forward,"['_Yemen_', '_Sudan_', '_Congo_']","['f', 'f', 'f']","['p268', 'p248', 'p284']","[5, 4, 9]","[90.34149293193902, 89.31368318402099, 92.00610777531934]",4.0,False,8.0,2.6457513110645907,3.810131311416626,0.9450346158211328
0,,sub_106,2024-07-15 10:58:01,3,distance,cathedral,numerosity_judgement,2,71,2,countries_forward,"['_Yemen_', '_Cuba_']","['f', 'm']","['p268', 'p307']","[10, 5]","[93.00003341222717, 90.34149293193902]",3.0,False,9.5,3.5355339059327378,4.313032150268555,0.6640676427193282
0,,sub_106,2024-07-15 10:58:06,3,distance,cathedral,numerosity_judgement,2,72,5,countries_forward,"['_Yemen_', '_Oman_', '_Sudan_', '_Cuba_', '_Congo_']","['f', 'm', 'f', 'm', 'm']","['p268', 'p256', 'p248', 'p307', 'p229']","[10, 9, 0, 5, 2]","[93.00003341222717, 92.00610777531934, 84.40078082039426, 90.34149293193902, 87.57049330475357]",4.0,False,7.2,4.324349662087931,2.9348535537719727,0.6902962206332993
0,,sub_106,2024-07-15 10:58:14,3,distance,cathedral,numerosity_judgement,2,73,4,countries_forward,"['_Oman_', '_Yemen_', '_Syria_', '_Congo_']","['m', 'm', 'm', 'f']","['p256', 'p307', 'p229', 'p284']","[1, 6, 9, 5]","[86.2038576498559, 91.58892582949886, 92.00610777531934, 90.34149293193902]",3.0,False,7.25,3.304037933599835,6.251612663269043,0.9032459425717853
0,,sub_106,2024-07-15 10:58:17,3,distance,cathedral,numerosity_judgement,2,74,6,countries_forward,"['_Togo_', '_Tonga_', '_Britain_', '_Cuba_', '_Belgium_', '_Mali_']","['m', 'f', 'f', 'f', 'm', 'm']","['p318', 'p245', 'p284', 'p268', 'p307', 'p256']","[6, 2, 0, 3, 9, 5]","[91.58892582949886, 87.57049330475357, 84.40078082039426, 89.14911522239515, 92.00610777531934, 90.34149293193902]",5.0,False,6.166666666666667,3.1885210782848317,1.6888952255249023,0.8236976506639428
0,,sub_106,2024-07-15 10:59:23,3,distance,cathedral,numerosity_judgement,3,0,3,countries_reversed,"['_Japan_reversed', '_Oman_reversed', '_Peru_reversed']","['m', 'f', 'f']","['p229', 'p268', 'p248']","[5, 3, 10]","[90.34149293193902, 89.14911522239515, 93.00003341222717]",4.0,False,8.0,3.605551275463989,4.252110481262207,0.9071615026671206
0,,sub_106,2024-07-15 10:59:25,3,distance,cathedral,numerosity_judgement,3,1,4,countries_reversed,"['_Oman_reversed', '_Sudan_reversed', '_Togo_reversed', '_Yemen_reversed']","['m', 'm', 'm', 'f']","['p229', 'p256', 'p307', 'p248']","[6, 8, 4, 1]","[91.58892582949886, 92.0152836843556, 89.31368318402099, 86.2038576498559]",5.0,False,6.75,2.9860788111948193,1.3742308616638184,0.6650663942798775
0,,sub_106,2024-07-15 10:59:29,3,distance,cathedral,numerosity_judgement,3,2,5,countries_reversed,"['_Cuba_reversed', '_Japan_reversed', '_Belgium_reversed', '_Yemen_reversed', '_Oman_reversed']","['f', 'm', 'm', 'm', 'f']","['p245', 'p229', 'p307', 'p318', 'p248']","[1, 5, 10, 8, 3]","[86.2038576498559, 90.34149293193902, 93.00003341222717, 92.0152836843556, 89.14911522239515]",5.0,True,7.4,3.646916505762094,1.812375783920288,0.8976279650436954
0,,sub_106,2024-07-15 10:59:32,3,distance,cathedral,numerosity_judgement,3,3,6,countries_reversed,"['_Tonga_reversed', '_Togo_reversed', '_Yemen_reversed', '_Sudan_reversed', '_Belgium_reversed', '_Syria_reversed']","['m', 'm', 'f', 'f', 'm', 'm']","['p229', 'p318', 'p268', 'p248', 'p256', 'p307']","[8, 6, 3, 9, 0, 2]","[92.0152836843556, 91.58892582949886, 89.14911522239515, 92.00610777531934, 84.40078082039426, 87.57049330475357]",6.0,True,6.666666666666667,3.559026084010437,1.687448263168335,0.9203041652479854
0,,sub_106,2024-07-15 10:59:35,3,distance,cathedral,numerosity_judgement,3,4,2,countries_reversed,"['_Belgium_reversed', '_Britain_reversed']","['f', 'm']","['p248', 'p229']","[1, 2]","[86.2038576498559, 87.57049330475357]",2.0,True,3.5,0.7071067811865476,2.2482500076293945,0.9573828169333788
0,,sub_106,2024-07-15 10:59:40,3,distance,cathedral,numerosity_judgement,3,5,6,countries_reversed,"['_Britain_reversed', '_Oman_reversed', '_Mali_reversed', '_Togo_reversed', '_Yemen_reversed', '_Belgium_reversed']","['m', 'm', 'f', 'f', 'f', 'm']","['p318', 'p307', 'p245', 'p248', 'p284', 'p256']","[1, 7, 5, 6, 9, 3]","[86.2038576498559, 91.73820004985969, 90.34149293193902, 91.58892582949886, 92.00610777531934, 89.14911522239515]",4.0,False,7.166666666666667,2.857738033247041,3.7475788593292236,0.7176937918510953
0,,sub_106,2024-07-15 10:59:43,3,distance,cathedral,numerosity_judgement,3,6,2,countries_reversed,"['_Togo_reversed', '_Cuba_reversed']","['m', 'm']","['p318', 'p256']","[8, 10]","[92.0152836843556, 93.00003341222717]",3.0,False,11.0,1.4142135623730951,1.499894618988037,0.7054477357848145
0,,sub_106,2024-07-15 10:59:46,3,distance,cathedral,numerosity_judgement,3,7,4,countries_reversed,"['_Japan_reversed', '_Oman_reversed', '_Togo_reversed', '_Yemen_reversed']","['m', 'f', 'f', 'm']","['p256', 'p268', 'p284', 'p318']","[2, 7, 5, 10]","[87.57049330475357, 91.73820004985969, 90.34149293193902, 93.00003341222717]",4.0,True,8.0,3.366501646120693,2.23508620262146,0.8910679832028147
0,,sub_106,2024-07-15 10:59:52,3,distance,cathedral,numerosity_judgement,3,8,3,countries_reversed,"['_Cuba_reversed', '_Yemen_reversed', '_Peru_reversed']","['f', 'm', 'f']","['p245', 'p307', 'p248']","[7, 5, 1]","[91.73820004985969, 90.34149293193902, 86.2038576498559]",3.0,True,6.333333333333333,3.0550504633038935,4.0011045932769775,0.5953013278855975
0,,sub_106,2024-07-15 10:59:58,3,distance,cathedral,numerosity_judgement,3,9,5,countries_reversed,"['_Oman_reversed', '_Cuba_reversed', '_Yemen_reversed', '_Tonga_reversed', '_Britain_reversed']","['m', 'f', 'm', 'f', 'f']","['p318', 'p268', 'p256', 'p245', 'p248']","[7, 3, 10, 9, 5]","[91.73820004985969, 89.14911522239515, 93.00003341222717, 92.00610777531934, 90.34149293193902]",4.0,False,8.8,2.8635642126552705,4.937639236450195,0.7011122460560663
0,,sub_106,2024-07-15 11:00:01,3,distance,cathedral,numerosity_judgement,3,10,2,countries_reversed,"['_Yemen_reversed', '_Congo_reversed']","['f', 'm']","['p268', 'p307']","[6, 7]","[91.58892582949886, 91.73820004985969]",3.0,False,8.5,0.7071067811865476,1.8594393730163574,0.6102712518442855
0,,sub_106,2024-07-15 11:00:07,3,distance,cathedral,numerosity_judgement,3,11,4,countries_reversed,"['_Mali_reversed', '_Belgium_reversed', '_Cuba_reversed', '_Oman_reversed']","['m', 'f', 'f', 'm']","['p318', 'p268', 'p245', 'p307']","[7, 0, 8, 6]","[91.73820004985969, 84.40078082039426, 92.0152836843556, 91.58892582949886]",4.0,True,7.25,3.593976442141304,4.3135740756988525,0.780615140165702
0,,sub_106,2024-07-15 11:00:11,3,distance,cathedral,numerosity_judgement,3,12,3,countries_reversed,"['_Britain_reversed', '_Belgium_reversed', '_Japan_reversed']","['f', 'm', 'f']","['p268', 'p256', 'p284']","[0, 1, 7]","[84.40078082039426, 86.2038576498559, 91.73820004985969]",4.0,False,4.666666666666667,3.7859388972001824,2.8733816146850586,0.9600499375780276
0,,sub_106,2024-07-15 11:00:13,3,distance,cathedral,numerosity_judgement,3,13,6,countries_reversed,"['_Yemen_reversed', '_Oman_reversed', '_Sudan_reversed', '_Japan_reversed', '_Syria_reversed', '_Mali_reversed']","['f', 'm', 'f', 'm', 'm', 'f']","['p248', 'p307', 'p284', 'p318', 'p256', 'p268']","[5, 1, 3, 9, 10, 8]","[90.34149293193902, 86.2038576498559, 89.14911522239515, 92.00610777531934, 93.00003341222717, 92.0152836843556]",5.0,False,8.0,3.5777087639996634,1.312408685684204,0.8199750312109862
0,,sub_106,2024-07-15 11:00:17,3,distance,cathedral,numerosity_judgement,3,14,5,countries_reversed,"['_Yemen_reversed', '_Mali_reversed', '_Sudan_reversed', '_Belgium_reversed', '_Peru_reversed']","['f', 'm', 'f', 'm', 'f']","['p245', 'p307', 'p268', 'p318', 'p284']","[1, 5, 9, 0, 2]","[86.2038576498559, 90.34149293193902, 92.00610777531934, 84.40078082039426, 87.57049330475357]",4.0,False,5.4,3.646916505762094,2.3002305030822754,0.9341164453524003
0,,sub_106,2024-07-15 11:00:23,3,distance,cathedral,numerosity_judgement,3,15,3,countries_reversed,"['_Belgium_reversed', '_Britain_reversed', '_Tonga_reversed']","['m', 'm', 'f']","['p229', 'p318', 'p268']","[7, 0, 5]","[91.73820004985969, 84.40078082039426, 90.34149293193902]",4.0,False,6.0,3.605551275463989,4.562445402145386,0.8738168198842357
0,,sub_106,2024-07-15 11:00:25,3,distance,cathedral,numerosity_judgement,3,16,4,countries_reversed,"['_Syria_reversed', '_Britain_reversed', '_Cuba_reversed', '_Congo_reversed']","['f', 'm', 'f', 'f']","['p284', 'p256', 'p245', 'p248']","[5, 6, 0, 1]","[90.34149293193902, 91.58892582949886, 84.40078082039426, 86.2038576498559]",5.0,False,5.0,2.943920288775949,1.4348950386047363,0.950675292248326
0,,sub_106,2024-07-15 11:00:28,3,distance,cathedral,numerosity_judgement,3,17,2,countries_reversed,"['_Cuba_reversed', '_Oman_reversed']","['f', 'f']","['p284', 'p248']","[6, 2]","[91.58892582949886, 87.57049330475357]",4.0,False,6.0,2.8284271247461903,1.4373984336853027,0.7541709227102485
0,,sub_106,2024-07-15 11:00:30,3,distance,cathedral,numerosity_judgement,3,18,5,countries_reversed,"['_Mali_reversed', '_Peru_reversed', '_Tonga_reversed', '_Cuba_reversed', '_Britain_reversed']","['m', 'f', 'f', 'f', 'm']","['p307', 'p245', 'p248', 'p268', 'p256']","[10, 9, 8, 7, 3]","[93.00003341222717, 92.00610777531934, 92.0152836843556, 91.73820004985969, 89.14911522239515]",6.0,False,9.4,2.701851217221259,0.997159481048584,0.7256611054363863
0,,sub_106,2024-07-15 11:00:33,3,distance,cathedral,numerosity_judgement,3,19,6,countries_reversed,"['_Oman_reversed', '_Cuba_reversed', '_Peru_reversed', '_Togo_reversed', '_Japan_reversed', '_Tonga_reversed']","['m', 'f', 'f', 'm', 'f', 'm']","['p307', 'p248', 'p245', 'p256', 'p268', 'p318']","[4, 7, 0, 9, 5, 10]","[89.31368318402099, 91.73820004985969, 84.40078082039426, 92.00610777531934, 90.34149293193902, 93.00003341222717]",6.0,True,7.833333333333333,3.65604522218567,1.1248939037322998,0.8281920326864147
0,,sub_106,2024-07-15 11:00:36,3,distance,cathedral,numerosity_judgement,3,20,5,countries_reversed,"['_Togo_reversed', '_Yemen_reversed', '_Oman_reversed', '_Tonga_reversed', '_Britain_reversed']","['m', 'm', 'm', 'f', 'm']","['p229', 'p318', 'p307', 'p245', 'p256']","[4, 2, 7, 3, 6]","[89.31368318402099, 87.57049330475357, 91.73820004985969, 89.14911522239515, 91.58892582949886]",6.0,False,6.4,2.073644135332772,1.6866319179534912,0.7764385427306776
0,,sub_106,2024-07-15 11:00:39,3,distance,cathedral,numerosity_judgement,3,21,6,countries_reversed,"['_Yemen_reversed', '_Oman_reversed', '_Britain_reversed', '_Togo_reversed', '_Cuba_reversed', '_Japan_reversed']","['m', 'f', 'm', 'f', 'f', 'm']","['p318', 'p248', 'p307', 'p284', 'p245', 'p256']","[1, 7, 6, 9, 0, 4]","[86.2038576498559, 91.73820004985969, 91.58892582949886, 92.00610777531934, 84.40078082039426, 89.31368318402099]",6.0,True,6.5,3.5071355833500366,1.6873815059661865,0.747940074906367
0,,sub_106,2024-07-15 11:00:44,3,distance,cathedral,numerosity_judgement,3,22,2,countries_reversed,"['_Peru_reversed', '_Oman_reversed']","['m', 'm']","['p307', 'p256']","[3, 5]","[89.14911522239515, 90.34149293193902]",3.0,False,6.0,1.4142135623730951,3.6761999130249023,0.5539098853705595
0,,sub_106,2024-07-15 11:00:48,3,distance,cathedral,numerosity_judgement,3,23,3,countries_reversed,"['_Mali_reversed', '_Oman_reversed', '_Yemen_reversed']","['m', 'm', 'm']","['p318', 'p229', 'p256']","[8, 6, 3]","[92.0152836843556, 91.58892582949886, 89.14911522239515]",3.0,True,7.666666666666667,2.516611478423583,3.188751459121704,0.6290886392009988
0,,sub_106,2024-07-15 11:00:55,3,distance,cathedral,numerosity_judgement,3,24,4,countries_reversed,"['_Peru_reversed', '_Oman_reversed', '_Congo_reversed', '_Cuba_reversed']","['m', 'f', 'm', 'm']","['p318', 'p248', 'p256', 'p229']","[3, 8, 2, 10]","[89.14911522239515, 92.0152836843556, 87.57049330475357, 93.00003341222717]",4.0,True,7.75,3.8622100754188224,5.436379671096802,0.7281239359891045
0,,sub_106,2024-07-15 11:00:59,3,distance,cathedral,numerosity_judgement,3,25,3,countries_reversed,"['_Sudan_reversed', '_Japan_reversed', '_Syria_reversed']","['m', 'f', 'm']","['p256', 'p248', 'p229']","[7, 3, 8]","[91.73820004985969, 89.14911522239515, 92.0152836843556]",4.0,False,8.0,2.6457513110645907,2.7498667240142822,0.7802860061287028
0,,sub_106,2024-07-15 11:01:01,3,distance,cathedral,numerosity_judgement,3,26,2,countries_reversed,"['_Sudan_reversed', '_Japan_reversed']","['m', 'f']","['p229', 'p268']","[6, 8]","[91.58892582949886, 92.0152836843556]",3.0,False,9.0,1.4142135623730951,1.0653669834136963,0.9259561911247304
0,,sub_106,2024-07-15 11:01:04,3,distance,cathedral,numerosity_judgement,3,27,4,countries_reversed,"['_Britain_reversed', '_Peru_reversed', '_Oman_reversed', '_Syria_reversed']","['m', 'f', 'm', 'm']","['p318', 'p245', 'p229', 'p256']","[6, 9, 7, 5]","[91.58892582949886, 92.00610777531934, 91.73820004985969, 90.34149293193902]",5.0,False,8.75,1.707825127659933,1.7498774528503418,0.6560549313358303
0,,sub_106,2024-07-15 11:01:07,3,distance,cathedral,numerosity_judgement,3,28,5,countries_reversed,"['_Peru_reversed', '_Belgium_reversed', '_Sudan_reversed', '_Yemen_reversed', '_Oman_reversed']","['m', 'm', 'f', 'f', 'f']","['p307', 'p318', 'p245', 'p284', 'p268']","[4, 10, 9, 6, 7]","[89.31368318402099, 93.00003341222717, 92.00610777531934, 91.58892582949886, 91.73820004985969]",6.0,False,9.2,2.3874672772626644,1.4989771842956543,0.8194756554307117
0,,sub_106,2024-07-15 11:01:10,3,distance,cathedral,numerosity_judgement,3,29,6,countries_reversed,"['_Belgium_reversed', '_Sudan_reversed', '_Togo_reversed', '_Cuba_reversed', '_Japan_reversed', '_Syria_reversed']","['f', 'm', 'm', 'm', 'm', 'f']","['p268', 'p229', 'p318', 'p307', 'p256', 'p245']","[8, 7, 4, 1, 9, 10]","[92.0152836843556, 91.73820004985969, 89.31368318402099, 86.2038576498559, 92.00610777531934, 93.00003341222717]",6.0,True,8.5,3.391164991562634,0.9999914169311523,0.9541709227102484
0,,sub_106,2024-07-15 11:01:13,3,distance,cathedral,numerosity_judgement,3,30,3,countries_reversed,"['_Peru_reversed', '_Yemen_reversed', '_Britain_reversed']","['m', 'f', 'f']","['p307', 'p248', 'p245']","[1, 2, 8]","[86.2038576498559, 87.57049330475357, 92.0152836843556]",4.0,False,5.666666666666667,3.7859388972001824,2.061920166015625,0.8057541709227103
0,,sub_106,2024-07-15 11:01:16,3,distance,cathedral,numerosity_judgement,3,31,5,countries_reversed,"['_Togo_reversed', '_Syria_reversed', '_Peru_reversed', '_Belgium_reversed', '_Yemen_reversed']","['f', 'm', 'm', 'f', 'f']","['p245', 'p318', 'p256', 'p268', 'p284']","[4, 3, 8, 0, 9]","[89.31368318402099, 89.14911522239515, 92.0152836843556, 84.40078082039426, 92.00610777531934]",6.0,False,6.8,3.7013511046643495,1.8748986721038818,0.8796504369538077
0,,sub_106,2024-07-15 11:01:20,3,distance,cathedral,numerosity_judgement,3,32,2,countries_reversed,"['_Cuba_reversed', '_Togo_reversed']","['m', 'm']","['p307', 'p318']","[9, 7]","[92.00610777531934, 91.73820004985969]",3.0,False,10.0,1.4142135623730951,2.187346935272217,0.763625014186812
0,,sub_106,2024-07-15 11:01:26,3,distance,cathedral,numerosity_judgement,3,33,6,countries_reversed,"['_Britain_reversed', '_Belgium_reversed', '_Cuba_reversed', '_Sudan_reversed', '_Congo_reversed', '_Togo_reversed']","['f', 'm', 'f', 'f', 'f', 'm']","['p284', 'p318', 'p245', 'p248', 'p268', 'p256']","[0, 5, 7, 4, 3, 6]","[84.40078082039426, 90.34149293193902, 91.73820004985969, 89.31368318402099, 89.14911522239515, 91.58892582949886]",5.0,False,6.166666666666667,2.48327740429189,5.188209056854248,0.8741232550221314
0,,sub_106,2024-07-15 11:01:31,3,distance,cathedral,numerosity_judgement,3,34,4,countries_reversed,"['_Syria_reversed', '_Togo_reversed', '_Peru_reversed', '_Britain_reversed']","['f', 'f', 'm', 'f']","['p284', 'p268', 'p256', 'p245']","[2, 10, 5, 8]","[87.57049330475357, 93.00003341222717, 90.34149293193902, 92.0152836843556]",4.0,True,8.25,3.5,4.187248229980469,0.8647032118942232
0,,sub_106,2024-07-15 11:01:37,3,distance,cathedral,numerosity_judgement,3,35,5,countries_reversed,"['_Peru_reversed', '_Britain_reversed', '_Mali_reversed', '_Yemen_reversed', '_Togo_reversed']","['m', 'm', 'm', 'f', 'f']","['p307', 'p229', 'p256', 'p268', 'p248']","[2, 10, 9, 7, 1]","[87.57049330475357, 93.00003341222717, 92.00610777531934, 91.73820004985969, 86.2038576498559]",4.0,False,7.8,4.08656334834051,3.7975597381591797,0.8427193281125865
0,,sub_106,2024-07-15 11:01:40,3,distance,cathedral,numerosity_judgement,3,36,3,countries_reversed,"['_Tonga_reversed', '_Oman_reversed', '_Cuba_reversed']","['f', 'm', 'f']","['p284', 'p318', 'p268']","[2, 8, 3]","[87.57049330475357, 92.0152836843556, 89.14911522239515]",5.0,False,6.333333333333333,3.2145502536643185,2.185396194458008,0.7595278628986494
0,,sub_106,2024-07-15 11:01:43,3,distance,cathedral,numerosity_judgement,3,37,6,countries_reversed,"['_Oman_reversed', '_Cuba_reversed', '_Togo_reversed', '_Congo_reversed', '_Yemen_reversed', '_Tonga_reversed']","['m', 'f', 'm', 'f', 'm', 'm']","['p256', 'p268', 'p318', 'p245', 'p229', 'p307']","[1, 3, 9, 2, 7, 4]","[86.2038576498559, 89.14911522239515, 92.00610777531934, 87.57049330475357, 91.73820004985969, 89.31368318402099]",4.0,False,6.333333333333333,3.0767948691238205,1.437398910522461,0.6967540574282147
0,,sub_106,2024-07-15 11:01:47,3,distance,cathedral,numerosity_judgement,3,38,4,countries_reversed,"['_Japan_reversed', '_Togo_reversed', '_Cuba_reversed', '_Mali_reversed']","['f', 'f', 'm', 'm']","['p248', 'p245', 'p318', 'p256']","[5, 0, 10, 9]","[90.34149293193902, 84.40078082039426, 93.00003341222717, 92.00610777531934]",4.0,True,8.0,4.546060565661952,3.0631484985351562,0.8254454658949041
0,,sub_106,2024-07-15 11:01:50,3,distance,cathedral,numerosity_judgement,3,39,2,countries_reversed,"['_Syria_reversed', '_Britain_reversed']","['m', 'm']","['p229', 'p256']","[5, 7]","[90.34149293193902, 91.73820004985969]",3.0,False,8.0,1.4142135623730951,1.8739912509918213,0.8160140733174441
0,,sub_106,2024-07-15 11:01:53,3,distance,cathedral,numerosity_judgement,3,40,6,countries_reversed,"['_Yemen_reversed', '_Congo_reversed', '_Syria_reversed', '_Britain_reversed', '_Belgium_reversed', '_Tonga_reversed']","['m', 'm', 'm', 'f', 'm', 'f']","['p229', 'p256', 'p318', 'p268', 'p307', 'p245']","[10, 7, 1, 4, 6, 9]","[93.00003341222717, 91.73820004985969, 86.2038576498559, 89.31368318402099, 91.58892582949886, 92.00610777531934]",4.0,False,8.166666666666666,3.3115957885386114,1.312345027923584,0.8984337759618658
0,,sub_106,2024-07-15 11:01:56,3,distance,cathedral,numerosity_judgement,3,41,2,countries_reversed,"['_Cuba_reversed', '_Belgium_reversed']","['f', 'f']","['p284', 'p245']","[10, 8]","[93.00003341222717, 92.0152836843556]",4.0,False,11.0,1.4142135623730951,1.5625238418579102,0.8965838156849393
0,,sub_106,2024-07-15 11:01:59,3,distance,cathedral,numerosity_judgement,3,42,5,countries_reversed,"['_Yemen_reversed', '_Togo_reversed', '_Japan_reversed', '_Britain_reversed', '_Mali_reversed']","['m', 'f', 'm', 'f', 'f']","['p229', 'p284', 'p307', 'p248', 'p245']","[10, 3, 9, 4, 1]","[93.00003341222717, 89.14911522239515, 92.00610777531934, 89.31368318402099, 86.2038576498559]",6.0,False,7.4,3.9115214431215892,2.1248512268066406,0.915832482124617
0,,sub_106,2024-07-15 11:02:04,3,distance,cathedral,numerosity_judgement,3,43,4,countries_reversed,"['_Mali_reversed', '_Britain_reversed', '_Togo_reversed', '_Peru_reversed']","['m', 'm', 'm', 'f']","['p307', 'p256', 'p318', 'p245']","[8, 10, 6, 5]","[92.0152836843556, 93.00003341222717, 91.58892582949886, 90.34149293193902]",3.0,False,9.25,2.217355782608345,3.9273624420166016,0.7044716831233685
0,,sub_106,2024-07-15 11:02:08,3,distance,cathedral,numerosity_judgement,3,44,3,countries_reversed,"['_Peru_reversed', '_Mali_reversed', '_Oman_reversed']","['f', 'm', 'f']","['p268', 'p256', 'p245']","[9, 6, 3]","[92.00610777531934, 91.58892582949886, 89.14911522239515]",4.0,False,8.0,3.0,2.0609374046325684,0.8295766655317217
0,,sub_106,2024-07-15 11:02:11,3,distance,cathedral,numerosity_judgement,3,45,5,countries_reversed,"['_Oman_reversed', '_Peru_reversed', '_Tonga_reversed', '_Yemen_reversed', '_Britain_reversed']","['m', 'm', 'f', 'f', 'm']","['p229', 'p318', 'p268', 'p245', 'p256']","[4, 7, 6, 5, 2]","[89.31368318402099, 91.73820004985969, 91.58892582949886, 90.34149293193902, 87.57049330475357]",4.0,False,6.8,1.9235384061671346,2.251070022583008,0.7697310180456248
0,,sub_106,2024-07-15 11:02:16,3,distance,cathedral,numerosity_judgement,3,46,6,countries_reversed,"['_Sudan_reversed', '_Belgium_reversed', '_Oman_reversed', '_Peru_reversed', '_Congo_reversed', '_Japan_reversed']","['f', 'm', 'f', 'm', 'm', 'f']","['p284', 'p256', 'p245', 'p307', 'p318', 'p248']","[9, 2, 4, 3, 10, 7]","[92.00610777531934, 87.57049330475357, 89.31368318402099, 89.14911522239515, 93.00003341222717, 91.73820004985969]",5.0,False,7.833333333333333,3.3115957885386114,3.4364585876464844,0.86227442969016
0,,sub_106,2024-07-15 11:02:19,3,distance,cathedral,numerosity_judgement,3,47,2,countries_reversed,"['_Peru_reversed', '_Yemen_reversed']","['m', 'f']","['p318', 'p248']","[2, 5]","[87.57049330475357, 90.34149293193902]",2.0,True,5.5,2.1213203435596424,1.6873822212219238,0.6340710475541936
0,,sub_106,2024-07-15 11:02:24,3,distance,cathedral,numerosity_judgement,3,48,3,countries_reversed,"['_Sudan_reversed', '_Cuba_reversed', '_Oman_reversed']","['m', 'm', 'm']","['p307', 'p256', 'p229']","[6, 8, 4]","[91.58892582949886, 92.0152836843556, 89.31368318402099]",2.0,False,8.0,2.0,4.12722635269165,0.7077516740438089
0,,sub_106,2024-07-15 11:02:28,3,distance,cathedral,numerosity_judgement,3,49,4,countries_reversed,"['_Cuba_reversed', '_Togo_reversed', '_Peru_reversed', '_Britain_reversed']","['m', 'f', 'f', 'm']","['p256', 'p268', 'p284', 'p229']","[2, 1, 7, 4]","[87.57049330475357, 86.2038576498559, 91.73820004985969, 89.31368318402099]",3.0,False,5.5,2.6457513110645907,2.4398996829986572,0.9077743729429124
0,,sub_106,2024-07-15 11:02:31,3,distance,cathedral,numerosity_judgement,3,50,3,countries_reversed,"['_Oman_reversed', '_Yemen_reversed', '_Britain_reversed']","['f', 'f', 'm']","['p248', 'p245', 'p318']","[5, 9, 6]","[90.34149293193902, 92.00610777531934, 91.58892582949886]",3.0,True,8.666666666666666,2.0816659994661326,1.938302755355835,0.6615707638179549
0,,sub_106,2024-07-15 11:02:36,3,distance,cathedral,numerosity_judgement,3,51,5,countries_reversed,"['_Britain_reversed', '_Syria_reversed', '_Tonga_reversed', '_Congo_reversed', '_Peru_reversed']","['f', 'f', 'm', 'm', 'm']","['p248', 'p268', 'p307', 'p318', 'p229']","[6, 2, 0, 4, 7]","[91.58892582949886, 87.57049330475357, 84.40078082039426, 89.31368318402099, 91.73820004985969]",4.0,False,5.8,2.863564212655271,3.2451980113983154,0.9639427987742596
0,,sub_106,2024-07-15 11:02:40,3,distance,cathedral,numerosity_judgement,3,52,4,countries_reversed,"['_Oman_reversed', '_Yemen_reversed', '_Cuba_reversed', '_Peru_reversed']","['f', 'f', 'f', 'm']","['p268', 'p284', 'p248', 'p307']","[0, 6, 9, 10]","[84.40078082039426, 91.58892582949886, 92.00610777531934, 93.00003341222717]",5.0,False,8.25,4.5,3.124727964401245,0.7329588014981273
0,,sub_106,2024-07-15 11:02:43,3,distance,cathedral,numerosity_judgement,3,53,6,countries_reversed,"['_Syria_reversed', '_Yemen_reversed', '_Oman_reversed', '_Peru_reversed', '_Sudan_reversed', '_Cuba_reversed']","['m', 'f', 'm', 'f', 'f', 'm']","['p256', 'p248', 'p307', 'p268', 'p284', 'p318']","[2, 3, 5, 6, 0, 10]","[87.57049330475357, 89.14911522239515, 90.34149293193902, 91.58892582949886, 84.40078082039426, 93.00003341222717]",6.0,True,6.333333333333333,3.5023801430836525,1.4998948574066162,0.6612870275791624
0,,sub_106,2024-07-15 11:02:46,3,distance,cathedral,numerosity_judgement,3,54,2,countries_reversed,"['_Syria_reversed', '_Mali_reversed']","['m', 'f']","['p256', 'p245']","[10, 8]","[93.00003341222717, 92.0152836843556]",4.0,False,11.0,1.4142135623730951,1.8111350536346436,0.8048575644081262
0,,sub_106,2024-07-15 11:02:50,3,distance,cathedral,numerosity_judgement,3,55,5,countries_reversed,"['_Peru_reversed', '_Oman_reversed', '_Belgium_reversed', '_Yemen_reversed', '_Tonga_reversed']","['m', 'm', 'f', 'm', 'm']","['p307', 'p318', 'p284', 'p256', 'p229']","[6, 10, 9, 7, 5]","[91.58892582949886, 93.00003341222717, 92.00610777531934, 91.73820004985969, 90.34149293193902]",5.0,True,9.4,2.073644135332772,2.9357893466949463,0.7490409715128816
0,,sub_106,2024-07-15 11:02:55,3,distance,cathedral,numerosity_judgement,3,56,2,countries_reversed,"['_Oman_reversed', '_Yemen_reversed']","['f', 'm']","['p245', 'p318']","[6, 1]","[91.58892582949886, 86.2038576498559]",3.0,False,5.5,3.5355339059327378,3.624403476715088,0.6516740438088753
0,,sub_106,2024-07-15 11:03:02,3,distance,cathedral,numerosity_judgement,3,57,4,countries_reversed,"['_Oman_reversed', '_Japan_reversed', '_Sudan_reversed', '_Yemen_reversed']","['f', 'f', 'm', 'm']","['p245', 'p248', 'p229', 'p318']","[2, 5, 6, 0]","[87.57049330475357, 90.34149293193902, 91.58892582949886, 84.40078082039426]",4.0,True,5.25,2.753785273643051,5.2507123947143555,0.9251276813074566
0,,sub_106,2024-07-15 11:03:05,3,distance,cathedral,numerosity_judgement,3,58,6,countries_reversed,"['_Mali_reversed', '_Peru_reversed', '_Syria_reversed', '_Sudan_reversed', '_Oman_reversed', '_Britain_reversed']","['f', 'm', 'm', 'm', 'm', 'f']","['p248', 'p318', 'p229', 'p256', 'p307', 'p245']","[4, 0, 2, 7, 6, 3]","[89.31368318402099, 84.40078082039426, 87.57049330475357, 91.73820004985969, 91.58892582949886, 89.14911522239515]",5.0,False,5.666666666666667,2.581988897471611,1.6248795986175537,0.7931562819203268
0,,sub_106,2024-07-15 11:03:08,3,distance,cathedral,numerosity_judgement,3,59,3,countries_reversed,"['_Sudan_reversed', '_Cuba_reversed', '_Britain_reversed']","['f', 'm', 'm']","['p284', 'p256', 'p229']","[1, 5, 2]","[86.2038576498559, 90.34149293193902, 87.57049330475357]",4.0,False,4.666666666666667,2.0816659994661326,1.876650333404541,0.9199636817614346
0,,sub_106,2024-07-15 11:03:11,3,distance,cathedral,numerosity_judgement,3,60,2,countries_reversed,"['_Togo_reversed', '_Peru_reversed']","['m', 'f']","['p318', 'p248']","[0, 9]","[84.40078082039426, 92.00610777531934]",2.0,True,6.5,6.363961030678928,1.4351935386657715,0.901498127340824
0,,sub_106,2024-07-15 11:03:14,3,distance,cathedral,numerosity_judgement,3,61,3,countries_reversed,"['_Oman_reversed', '_Peru_reversed', '_Congo_reversed']","['m', 'f', 'f']","['p307', 'p268', 'p284']","[5, 6, 3]","[90.34149293193902, 91.58892582949886, 89.14911522239515]",3.0,True,6.666666666666667,1.5275252316519465,1.9998583793640137,0.6465781409601634
0,,sub_106,2024-07-15 11:03:17,3,distance,cathedral,numerosity_judgement,3,62,6,countries_reversed,"['_Syria_reversed', '_Belgium_reversed', '_Oman_reversed', '_Cuba_reversed', '_Yemen_reversed', '_Congo_reversed']","['f', 'f', 'm', 'm', 'f', 'f']","['p284', 'p245', 'p229', 'p307', 'p248', 'p268']","[0, 3, 10, 8, 5, 4]","[84.40078082039426, 89.14911522239515, 93.00003341222717, 92.0152836843556, 90.34149293193902, 89.31368318402099]",4.0,False,7.0,3.5777087639996634,1.500657558441162,0.7294745204857565
0,,sub_106,2024-07-15 11:03:19,3,distance,cathedral,numerosity_judgement,3,63,5,countries_reversed,"['_Britain_reversed', '_Oman_reversed', '_Cuba_reversed', '_Congo_reversed', '_Peru_reversed']","['f', 'f', 'f', 'm', 'm']","['p245', 'p268', 'p248', 'p307', 'p256']","[3, 9, 10, 5, 4]","[89.14911522239515, 92.00610777531934, 93.00003341222717, 90.34149293193902, 89.31368318402099]",5.0,True,8.2,3.1144823004794873,1.1873705387115479,0.6833163091590058
0,,sub_106,2024-07-15 11:03:21,3,distance,cathedral,numerosity_judgement,3,64,4,countries_reversed,"['_Britain_reversed', '_Cuba_reversed', '_Togo_reversed', '_Syria_reversed']","['f', 'm', 'f', 'm']","['p248', 'p318', 'p268', 'p256']","[10, 9, 7, 1]","[93.00003341222717, 92.00610777531934, 91.73820004985969, 86.2038576498559]",6.0,False,8.75,4.031128874149275,1.0004727840423584,0.8391442515038021
0,,sub_106,2024-07-15 11:03:24,3,distance,cathedral,numerosity_judgement,3,65,5,countries_reversed,"['_Britain_reversed', '_Yemen_reversed', '_Cuba_reversed', '_Tonga_reversed', '_Belgium_reversed']","['f', 'f', 'f', 'm', 'm']","['p248', 'p268', 'p284', 'p307', 'p318']","[4, 9, 0, 10, 7]","[89.31368318402099, 92.00610777531934, 84.40078082039426, 93.00003341222717, 91.73820004985969]",6.0,False,8.0,4.06201920231798,1.0624260902404785,0.8067869708319146
0,,sub_106,2024-07-15 11:03:28,3,distance,cathedral,numerosity_judgement,3,66,2,countries_reversed,"['_Oman_reversed', '_Mali_reversed']","['m', 'f']","['p229', 'p248']","[6, 9]","[91.58892582949886, 92.00610777531934]",3.0,False,9.5,2.1213203435596424,3.047241449356079,0.6855861990693451
0,,sub_106,2024-07-15 11:03:32,3,distance,cathedral,numerosity_judgement,3,67,4,countries_reversed,"['_Britain_reversed', '_Congo_reversed', '_Peru_reversed', '_Mali_reversed']","['m', 'f', 'm', 'f']","['p256', 'p268', 'p307', 'p245']","[8, 7, 2, 6]","[92.0152836843556, 91.73820004985969, 87.57049330475357, 91.58892582949886]",3.0,False,7.75,2.6299556396765835,3.001058340072632,0.8035410282601294
0,,sub_106,2024-07-15 11:03:36,3,distance,cathedral,numerosity_judgement,3,68,3,countries_reversed,"['_Cuba_reversed', '_Togo_reversed', '_Sudan_reversed']","['m', 'm', 'm']","['p307', 'p256', 'p229']","[2, 8, 4]","[87.57049330475357, 92.0152836843556, 89.31368318402099]",3.0,True,6.666666666666667,3.0550504633038935,2.68648362159729,0.8521280217909432
0,,sub_106,2024-07-15 11:03:41,3,distance,cathedral,numerosity_judgement,3,69,6,countries_reversed,"['_Belgium_reversed', '_Mali_reversed', '_Congo_reversed', '_Japan_reversed', '_Britain_reversed', '_Syria_reversed']","['f', 'm', 'm', 'f', 'f', 'f']","['p284', 'p318', 'p307', 'p245', 'p268', 'p248']","[7, 1, 6, 0, 9, 2]","[91.73820004985969, 86.2038576498559, 91.58892582949886, 84.40078082039426, 92.00610777531934, 87.57049330475357]",4.0,False,6.166666666666667,3.65604522218567,3.376598358154297,0.939677675632732
0,,sub_106,2024-07-15 11:03:45,3,distance,cathedral,numerosity_judgement,3,70,3,countries_reversed,"['_Sudan_reversed', '_Yemen_reversed', '_Tonga_reversed']","['m', 'f', 'f']","['p256', 'p245', 'p248']","[9, 7, 1]","[92.00610777531934, 91.73820004985969, 86.2038576498559]",3.0,True,7.666666666666667,4.163331998932266,2.749807596206665,0.715980024968789
0,,sub_106,2024-07-15 11:03:48,3,distance,cathedral,numerosity_judgement,3,71,2,countries_reversed,"['_Syria_reversed', '_Congo_reversed']","['f', 'f']","['p248', 'p245']","[1, 8]","[86.2038576498559, 92.0152836843556]",2.0,True,6.5,4.949747468305833,1.6875331401824951,0.8658835546475996
0,,sub_106,2024-07-15 11:03:52,3,distance,cathedral,numerosity_judgement,3,72,5,countries_reversed,"['_Belgium_reversed', '_Cuba_reversed', '_Congo_reversed', '_Oman_reversed', '_Britain_reversed']","['f', 'm', 'f', 'f', 'm']","['p268', 'p307', 'p248', 'p245', 'p229']","[9, 7, 4, 6, 10]","[92.00610777531934, 91.73820004985969, 89.31368318402099, 91.58892582949886, 93.00003341222717]",3.0,False,9.2,2.3874672772626644,3.1724650859832764,0.6419362160935195
0,,sub_106,2024-07-15 11:03:57,3,distance,cathedral,numerosity_judgement,3,73,6,countries_reversed,"['_Oman_reversed', '_Britain_reversed', '_Yemen_reversed', '_Belgium_reversed', '_Syria_reversed', '_Cuba_reversed']","['m', 'm', 'f', 'f', 'm', 'f']","['p229', 'p307', 'p248', 'p245', 'p318', 'p284']","[0, 7, 3, 8, 4, 9]","[84.40078082039426, 91.73820004985969, 89.14911522239515, 92.0152836843556, 89.31368318402099, 92.00610777531934]",4.0,False,7.166666666666667,3.430257521916783,3.0624122619628906,0.7767449778685733
0,,sub_106,2024-07-15 11:04:01,3,distance,cathedral,numerosity_judgement,3,74,4,countries_reversed,"['_Oman_reversed', '_Yemen_reversed', '_Britain_reversed', '_Mali_reversed']","['m', 'm', 'm', 'm']","['p229', 'p318', 'p307', 'p256']","[5, 7, 9, 6]","[90.34149293193902, 91.73820004985969, 92.00610777531934, 91.58892582949886]",5.0,False,8.75,1.707825127659933,3.5483953952789307,0.6135966405629327
0,,sub_106,2024-07-15 11:06:22,3,distance,cathedral,numerosity_judgement,4,0,6,countries_reversed,"['_Sudan_reversed', '_Cuba_reversed', '_Mali_reversed', '_Congo_reversed', '_Belgium_reversed', '_Oman_reversed']","['f', 'f', 'f', 'f', 'm', 'm']","['p268', 'p248', 'p284', 'p245', 'p229', 'p256']","[5, 3, 9, 0, 6, 1]","[90.34149293193902, 89.14911522239515, 92.00610777531934, 84.40078082039426, 91.58892582949886, 86.2038576498559]",3.0,False,6.0,3.3466401061363023,5.922094345092773,0.9295766655317216
0,,sub_106,2024-07-15 11:06:25,3,distance,cathedral,numerosity_judgement,4,1,2,countries_reversed,"['_Oman_reversed', '_Cuba_reversed']","['f', 'm']","['p245', 'p307']","[7, 10]","[91.73820004985969, 93.00003341222717]",3.0,False,10.5,2.1213203435596424,1.812394142150879,0.6613551242764726
0,,sub_106,2024-07-15 11:06:28,3,distance,cathedral,numerosity_judgement,4,2,5,countries_reversed,"['_Togo_reversed', '_Tonga_reversed', '_Oman_reversed', '_Mali_reversed', '_Yemen_reversed']","['f', 'm', 'm', 'm', 'f']","['p245', 'p256', 'p307', 'p318', 'p248']","[10, 3, 6, 9, 5]","[93.00003341222717, 89.14911522239515, 91.58892582949886, 92.00610777531934, 90.34149293193902]",4.0,False,8.6,2.8809720581775866,1.3134491443634033,0.6536828963795256
0,,sub_106,2024-07-15 11:06:30,3,distance,cathedral,numerosity_judgement,4,3,4,countries_reversed,"['_Congo_reversed', '_Belgium_reversed', '_Japan_reversed', '_Mali_reversed']","['m', 'f', 'm', 'm']","['p229', 'p248', 'p307', 'p256']","[5, 2, 10, 1]","[90.34149293193902, 87.57049330475357, 93.00003341222717, 86.2038576498559]",3.0,False,6.5,4.041451884327381,1.3124065399169922,0.9491204176597436
0,,sub_106,2024-07-15 11:06:33,3,distance,cathedral,numerosity_judgement,4,4,3,countries_reversed,"['_Japan_reversed', '_Britain_reversed', '_Mali_reversed']","['m', 'f', 'm']","['p229', 'p268', 'p256']","[2, 5, 10]","[87.57049330475357, 90.34149293193902, 93.00003341222717]",4.0,False,7.666666666666667,4.041451884327381,1.0624258518218994,0.8043354897287481
0,,sub_106,2024-07-15 11:06:35,3,distance,cathedral,numerosity_judgement,4,5,5,countries_reversed,"['_Togo_reversed', '_Japan_reversed', '_Congo_reversed', '_Syria_reversed', '_Belgium_reversed']","['m', 'f', 'f', 'f', 'm']","['p307', 'p245', 'p248', 'p284', 'p256']","[4, 2, 3, 7, 0]","[89.31368318402099, 87.57049330475357, 89.14911522239515, 91.73820004985969, 84.40078082039426]",5.0,True,5.2,2.588435821108957,0.9999294281005859,0.9455566905005108
0,,sub_106,2024-07-15 11:06:37,3,distance,cathedral,numerosity_judgement,4,6,4,countries_reversed,"['_Peru_reversed', '_Tonga_reversed', '_Congo_reversed', '_Belgium_reversed']","['f', 'f', 'f', 'm']","['p245', 'p268', 'p284', 'p256']","[6, 9, 0, 5]","[91.58892582949886, 92.00610777531934, 84.40078082039426, 90.34149293193902]",6.0,False,7.0,3.7416573867739413,1.061352252960205,0.8748042219952332
0,,sub_106,2024-07-15 11:06:40,3,distance,cathedral,numerosity_judgement,4,7,2,countries_reversed,"['_Mali_reversed', '_Japan_reversed']","['m', 'm']","['p256', 'p307']","[10, 8]","[93.00003341222717, 92.0152836843556]",4.0,False,11.0,1.4142135623730951,1.1874432563781738,0.7245261604812167
0,,sub_106,2024-07-15 11:06:42,3,distance,cathedral,numerosity_judgement,4,8,3,countries_reversed,"['_Oman_reversed', '_Yemen_reversed', '_Cuba_reversed']","['f', 'm', 'f']","['p284', 'p307', 'p268']","[9, 7, 3]","[92.00610777531934, 91.73820004985969, 89.14911522239515]",5.0,False,8.333333333333334,3.055050463303893,1.1278884410858154,0.5765633866757462
0,,sub_106,2024-07-15 11:06:45,3,distance,cathedral,numerosity_judgement,4,9,6,countries_reversed,"['_Oman_reversed', '_Cuba_reversed', '_Togo_reversed', '_Congo_reversed', '_Yemen_reversed', '_Tonga_reversed']","['m', 'f', 'm', 'f', 'm', 'm']","['p256', 'p268', 'p318', 'p245', 'p229', 'p307']","[1, 3, 9, 2, 7, 4]","[86.2038576498559, 89.14911522239515, 92.00610777531934, 87.57049330475357, 91.73820004985969, 89.31368318402099]",5.0,False,6.333333333333333,3.0767948691238205,1.5623910427093506,0.6967540574282147
0,,sub_106,2024-07-15 11:06:49,3,distance,cathedral,numerosity_judgement,4,10,2,countries_reversed,"['_Sudan_reversed', '_Yemen_reversed']","['m', 'm']","['p307', 'p318']","[6, 1]","[91.58892582949886, 86.2038576498559]",3.0,False,5.5,3.5355339059327378,2.5001637935638428,0.8055271819316763
0,,sub_106,2024-07-15 11:06:52,3,distance,cathedral,numerosity_judgement,4,11,3,countries_reversed,"['_Peru_reversed', '_Oman_reversed', '_Yemen_reversed']","['m', 'f', 'm']","['p307', 'p268', 'p256']","[7, 9, 2]","[91.73820004985969, 92.00610777531934, 87.57049330475357]",4.0,False,8.0,3.605551275463989,1.498058795928955,0.7485642946317104
0,,sub_106,2024-07-15 11:06:54,3,distance,cathedral,numerosity_judgement,4,12,4,countries_reversed,"['_Oman_reversed', '_Yemen_reversed', '_Syria_reversed', '_Belgium_reversed']","['m', 'f', 'm', 'm']","['p229', 'p284', 'p318', 'p256']","[10, 8, 0, 2]","[93.00003341222717, 92.0152836843556, 84.40078082039426, 87.57049330475357]",5.0,False,7.0,4.760952285695233,1.2499117851257324,0.7958234025649756
0,,sub_106,2024-07-15 11:06:57,3,distance,cathedral,numerosity_judgement,4,13,6,countries_reversed,"['_Oman_reversed', '_Britain_reversed', '_Togo_reversed', '_Cuba_reversed', '_Mali_reversed', '_Yemen_reversed']","['m', 'f', 'm', 'f', 'f', 'm']","['p307', 'p284', 'p229', 'p268', 'p248', 'p318']","[10, 9, 0, 5, 6, 3]","[93.00003341222717, 92.00610777531934, 84.40078082039426, 90.34149293193902, 91.58892582949886, 89.14911522239515]",5.0,False,7.5,3.7282703764614498,1.1255178451538086,0.7902735217341958
0,,sub_106,2024-07-15 11:07:01,3,distance,cathedral,numerosity_judgement,4,14,5,countries_reversed,"['_Cuba_reversed', '_Togo_reversed', '_Syria_reversed', '_Oman_reversed', '_Tonga_reversed']","['f', 'f', 'm', 'm', 'f']","['p268', 'p248', 'p256', 'p307', 'p284']","[6, 5, 3, 7, 2]","[91.58892582949886, 90.34149293193902, 89.14911522239515, 91.73820004985969, 87.57049330475357]",6.0,False,6.6,2.073644135332772,2.9973692893981934,0.7439791170128249
0,,sub_106,2024-07-15 11:07:06,3,distance,cathedral,numerosity_judgement,4,15,2,countries_reversed,"['_Cuba_reversed', '_Congo_reversed']","['f', 'f']","['p245', 'p268']","[5, 8]","[90.34149293193902, 92.0152836843556]",4.0,False,8.5,2.1213203435596424,3.4372525215148926,0.6777437294291226
0,,sub_106,2024-07-15 11:07:08,3,distance,cathedral,numerosity_judgement,4,16,6,countries_reversed,"['_Belgium_reversed', '_Yemen_reversed', '_Sudan_reversed', '_Syria_reversed', '_Congo_reversed', '_Peru_reversed']","['f', 'f', 'm', 'm', 'm', 'm']","['p245', 'p268', 'p256', 'p229', 'p307', 'p318']","[6, 4, 8, 9, 5, 1]","[91.58892582949886, 89.31368318402099, 92.0152836843556, 92.00610777531934, 90.34149293193902, 86.2038576498559]",5.0,False,7.5,2.8809720581775866,1.4998977184295654,0.7536374985813188
0,,sub_106,2024-07-15 11:07:12,3,distance,cathedral,numerosity_judgement,4,17,3,countries_reversed,"['_Oman_reversed', '_Yemen_reversed', '_Peru_reversed']","['m', 'm', 'm']","['p229', 'p318', 'p256']","[6, 5, 1]","[91.58892582949886, 90.34149293193902, 86.2038576498559]",4.0,False,6.0,2.6457513110645907,2.7350142002105713,0.6271819316763138
0,,sub_106,2024-07-15 11:07:15,3,distance,cathedral,numerosity_judgement,4,18,5,countries_reversed,"['_Britain_reversed', '_Congo_reversed', '_Cuba_reversed', '_Belgium_reversed', '_Oman_reversed']","['m', 'f', 'f', 'm', 'f']","['p256', 'p268', 'p284', 'p307', 'p245']","[5, 7, 10, 8, 6]","[90.34149293193902, 91.73820004985969, 93.00003341222717, 92.0152836843556, 91.58892582949886]",5.0,True,9.2,1.9235384061671346,1.687425136566162,0.7949948927477017
0,,sub_106,2024-07-15 11:07:18,3,distance,cathedral,numerosity_judgement,4,19,4,countries_reversed,"['_Britain_reversed', '_Cuba_reversed', '_Oman_reversed', '_Syria_reversed']","['m', 'm', 'f', 'f']","['p256', 'p307', 'p268', 'p245']","[8, 5, 10, 3]","[92.0152836843556, 90.34149293193902, 93.00003341222717, 89.14911522239515]",4.0,True,8.5,3.1091263510296048,1.9383068084716797,0.7520826239927364
0,,sub_106,2024-07-15 11:07:21,3,distance,cathedral,numerosity_judgement,4,20,5,countries_reversed,"['_Britain_reversed', '_Japan_reversed', '_Togo_reversed', '_Tonga_reversed', '_Cuba_reversed']","['f', 'f', 'm', 'f', 'm']","['p245', 'p268', 'p307', 'p248', 'p229']","[8, 1, 7, 0, 6]","[92.0152836843556, 86.2038576498559, 91.73820004985969, 84.40078082039426, 91.58892582949886]",5.0,True,6.4,3.6469165057620936,1.4344635009765625,0.8260696856202474
0,,sub_106,2024-07-15 11:07:24,3,distance,cathedral,numerosity_judgement,4,21,4,countries_reversed,"['_Peru_reversed', '_Congo_reversed', '_Togo_reversed', '_Tonga_reversed']","['m', 'f', 'm', 'f']","['p318', 'p248', 'p307', 'p245']","[0, 6, 7, 8]","[84.40078082039426, 91.58892582949886, 91.73820004985969, 92.0152836843556]",4.0,True,7.25,3.593976442141304,1.6873822212219238,0.7750085120871638
0,,sub_106,2024-07-15 11:07:27,3,distance,cathedral,numerosity_judgement,4,22,3,countries_reversed,"['_Sudan_reversed', '_Syria_reversed', '_Tonga_reversed']","['m', 'f', 'f']","['p318', 'p268', 'p248']","[3, 2, 6]","[89.14911522239515, 87.57049330475357, 91.58892582949886]",3.0,True,5.666666666666667,2.0816659994661326,1.6274855136871338,0.9471456134377484
0,,sub_106,2024-07-15 11:07:30,3,distance,cathedral,numerosity_judgement,4,23,6,countries_reversed,"['_Sudan_reversed', '_Togo_reversed', '_Peru_reversed', '_Cuba_reversed', '_Congo_reversed', '_Oman_reversed']","['m', 'm', 'f', 'f', 'm', 'f']","['p256', 'p229', 'p284', 'p245', 'p307', 'p248']","[5, 3, 4, 7, 1, 9]","[90.34149293193902, 89.14911522239515, 89.31368318402099, 91.73820004985969, 86.2038576498559, 92.00610777531934]",5.0,False,6.833333333333333,2.857738033247041,1.874870777130127,0.7336738168198842
0,,sub_106,2024-07-15 11:07:34,3,distance,cathedral,numerosity_judgement,4,24,2,countries_reversed,"['_Yemen_reversed', '_Cuba_reversed']","['m', 'f']","['p229', 'p284']","[4, 2]","[89.31368318402099, 87.57049330475357]",3.0,False,5.0,1.4142135623730951,2.875922679901123,0.8987969583475202
0,,sub_106,2024-07-15 11:07:38,3,distance,cathedral,numerosity_judgement,4,25,4,countries_reversed,"['_Yemen_reversed', '_Oman_reversed', '_Sudan_reversed', '_Congo_reversed']","['m', 'f', 'f', 'f']","['p256', 'p248', 'p268', 'p284']","[0, 2, 1, 10]","[84.40078082039426, 87.57049330475357, 86.2038576498559, 93.00003341222717]",4.0,True,5.25,4.573474244670748,2.188361406326294,0.9461922596754058
0,,sub_106,2024-07-15 11:07:41,3,distance,cathedral,numerosity_judgement,4,26,6,countries_reversed,"['_Sudan_reversed', '_Belgium_reversed', '_Oman_reversed', '_Japan_reversed', '_Britain_reversed', '_Mali_reversed']","['m', 'f', 'f', 'm', 'm', 'f']","['p229', 'p268', 'p245', 'p318', 'p307', 'p248']","[7, 2, 9, 4, 1, 0]","[91.73820004985969, 87.57049330475357, 92.00610777531934, 89.31368318402099, 86.2038576498559, 84.40078082039426]",5.0,False,5.833333333333333,3.5449494589721118,1.3124091625213623,0.961230280331404
0,,sub_106,2024-07-15 11:07:44,3,distance,cathedral,numerosity_judgement,4,27,2,countries_reversed,"['_Mali_reversed', '_Togo_reversed']","['f', 'f']","['p268', 'p248']","[1, 8]","[86.2038576498559, 92.0152836843556]",3.0,False,6.5,4.949747468305833,2.624816417694092,0.9426171830666212
0,,sub_106,2024-07-15 11:07:47,3,distance,cathedral,numerosity_judgement,4,28,3,countries_reversed,"['_Cuba_reversed', '_Syria_reversed', '_Oman_reversed']","['m', 'm', 'm']","['p256', 'p318', 'p229']","[4, 10, 5]","[89.31368318402099, 93.00003341222717, 90.34149293193902]",4.0,False,8.333333333333334,3.214550253664318,1.625929832458496,0.7331744410396096
0,,sub_106,2024-07-15 11:07:52,3,distance,cathedral,numerosity_judgement,4,29,5,countries_reversed,"['_Mali_reversed', '_Yemen_reversed', '_Peru_reversed', '_Belgium_reversed', '_Sudan_reversed']","['f', 'm', 'm', 'f', 'm']","['p248', 'p256', 'p318', 'p284', 'p307']","[9, 10, 2, 0, 6]","[92.00610777531934, 93.00003341222717, 87.57049330475357, 84.40078082039426, 91.58892582949886]",3.0,False,7.4,4.33589667773576,3.061915874481201,0.768675519237317
0,,sub_106,2024-07-15 11:07:56,3,distance,cathedral,numerosity_judgement,4,30,2,countries_reversed,"['_Sudan_reversed', '_Mali_reversed']","['m', 'f']","['p318', 'p268']","[7, 5]","[91.73820004985969, 90.34149293193902]",3.0,False,8.0,1.4142135623730951,2.687312364578247,0.890829644762229
0,,sub_106,2024-07-15 11:08:00,3,distance,cathedral,numerosity_judgement,4,31,5,countries_reversed,"['_Togo_reversed', '_Britain_reversed', '_Sudan_reversed', '_Syria_reversed', '_Cuba_reversed']","['m', 'f', 'f', 'm', 'm']","['p256', 'p284', 'p245', 'p307', 'p318']","[2, 8, 6, 4, 10]","[87.57049330475357, 92.0152836843556, 91.58892582949886, 89.31368318402099, 93.00003341222717]",4.0,False,8.0,3.1622776601683795,2.9372949600219727,0.8834752014527295
0,,sub_106,2024-07-15 11:08:07,3,distance,cathedral,numerosity_judgement,4,32,6,countries_reversed,"['_Oman_reversed', '_Togo_reversed', '_Cuba_reversed', '_Tonga_reversed', '_Peru_reversed', '_Yemen_reversed']","['f', 'f', 'f', 'm', 'm', 'm']","['p284', 'p248', 'p268', 'p229', 'p318', 'p256']","[9, 1, 8, 5, 3, 7]","[92.00610777531934, 86.2038576498559, 92.0152836843556, 90.34149293193902, 89.14911522239515, 91.73820004985969]",5.0,False,7.5,3.082207001484488,5.752084016799927,0.7762909998865055
0,,sub_106,2024-07-15 11:08:10,3,distance,cathedral,numerosity_judgement,4,33,3,countries_reversed,"['_Sudan_reversed', '_Tonga_reversed', '_Cuba_reversed']","['m', 'f', 'f']","['p256', 'p248', 'p245']","[8, 10, 5]","[92.0152836843556, 93.00003341222717, 90.34149293193902]",5.0,False,9.666666666666666,2.516611478423583,1.6873829364776611,0.6367268187492907
0,,sub_106,2024-07-15 11:08:13,3,distance,cathedral,numerosity_judgement,4,34,4,countries_reversed,"['_Cuba_reversed', '_Togo_reversed', '_Mali_reversed', '_Britain_reversed']","['f', 'f', 'm', 'm']","['p245', 'p284', 'p307', 'p256']","[1, 4, 3, 8]","[86.2038576498559, 89.31368318402099, 89.14911522239515, 92.0152836843556]",4.0,True,6.0,2.943920288775949,1.8120076656341553,0.8319146521393712
