event_id,timestamp,subject_id,session_index,plane,setup,task,block,trial_index,headpose_offset_azi,headpose_offset_ele,target_number,target_filename,target_talker,target_sex,target_speaker_id,step_number:,distance_masker,distance_target,target_speaker_proc,target_speaker_chan,target_speaker_azi,target_speaker_ele,target_speaker_dist,target_stim_level,masker_filename,masker_speaker_id,masker_speaker_proc,masker_speaker_chan,masker_speaker_azi,masker_speaker_ele,masker_speaker_dist,masker_stim_level,normalisation_method,normalisation_level_masker,normalisation_level_target,played_number,resp_number,is_correct,reaction_time
,2024-06-27 15:37:12,sub_104,3,distance,cathedral,spatial_unmasking,1,0,0,0,_two_,talker-p284_sex-f_text-_two_.wav,p284,f,5,1,12.0,7.0,RX81,6,0.0,0.0,7.0,92.34149293193902,babble-reversed_n13_p229-five-p256-three-p318-nine-p248-two-p284-four-p268-one.wav,10,RX81,11,0.0,0.0,12.0,93.00003341222718,mgb_normalisation,93.00003341222715,90.34149293193902,2,2.0,True,1.4998977184295654
,2024-06-27 15:37:15,sub_104,3,distance,cathedral,spatial_unmasking,1,1,0,0,_two_,talker-p284_sex-f_text-_two_.wav,p284,f,5,2,12.0,7.0,RX81,6,0.0,0.0,7.0,88.34149293193902,babble-reversed_n13_p229-two-p318-eight-p256-three-p268-one-p248-nine-p284-five.wav,10,RX81,11,0.0,0.0,12.0,93.00003341222715,mgb_normalisation,93.00003341222715,90.34149293193902,2,2.0,True,1.312410831451416
,2024-06-27 15:37:19,sub_104,3,distance,cathedral,spatial_unmasking,1,2,0,0,_five_,talker-p284_sex-f_text-_five_.wav,p284,f,5,3,12.0,7.0,RX81,6,0.0,0.0,7.0,84.341492931939,babble-reversed_n13_p307-five-p229-two-p318-four-p248-three-p245-nine-p268-eight.wav,10,RX81,11,0.0,0.0,12.0,93.00003341222715,mgb_normalisation,93.00003341222715,90.34149293193902,5,5.0,True,1.7498822212219238
,2024-06-27 15:37:23,sub_104,3,distance,cathedral,spatial_unmasking,1,3,0,0,_three_,talker-p284_sex-f_text-_three_.wav,p284,f,5,4,12.0,7.0,RX81,6,0.0,0.0,7.0,80.34149293193903,babble-reversed_n13_p256-two-p307-five-p318-nine-p248-eight-p245-four-p284-one.wav,10,RX81,11,0.0,0.0,12.0,93.00003341222718,mgb_normalisation,93.00003341222715,90.34149293193902,3,3.0,True,1.1249241828918457
,2024-06-27 15:37:26,sub_104,3,distance,cathedral,spatial_unmasking,1,4,0,0,_one_,talker-p284_sex-f_text-_one_.wav,p284,f,5,5,12.0,7.0,RX81,6,0.0,0.0,7.0,76.34149293193902,babble-reversed_n13_p307-nine-p229-one-p256-eight-p248-four-p284-two-p268-three.wav,10,RX81,11,0.0,0.0,12.0,93.00003341222718,mgb_normalisation,93.00003341222715,90.34149293193902,1,1.0,True,0.9999327659606934
,2024-06-27 15:37:30,sub_104,3,distance,cathedral,spatial_unmasking,1,5,0,0,_three_,talker-p284_sex-f_text-_three_.wav,p284,f,5,6,12.0,7.0,RX81,6,0.0,0.0,7.0,72.34149293193903,babble-reversed_n13_p229-eight-p256-nine-p318-four-p245-three-p268-five-p284-two.wav,10,RX81,11,0.0,0.0,12.0,93.00003341222715,mgb_normalisation,93.00003341222715,90.34149293193902,3,3.0,True,1.2499146461486816
,2024-06-27 15:37:36,sub_104,3,distance,cathedral,spatial_unmasking,1,6,0,0,_five_,talker-p284_sex-f_text-_five_.wav,p284,f,5,7,12.0,7.0,RX81,6,0.0,0.0,7.0,68.34149293193902,babble-reversed_n13_p256-three-p318-two-p229-nine-p248-four-p284-one-p268-eight.wav,10,RX81,11,0.0,0.0,12.0,93.00003341222715,mgb_normalisation,93.00003341222715,90.34149293193902,5,3.0,False,3.9372341632843018
,2024-06-27 15:37:42,sub_104,3,distance,cathedral,spatial_unmasking,1,7,0,0,_four_,talker-p284_sex-f_text-_four_.wav,p284,f,5,8,12.0,7.0,RX81,6,0.0,0.0,7.0,70.341492931939,babble-reversed_n13_p318-nine-p256-five-p307-eight-p268-three-p248-one-p245-four.wav,10,RX81,11,0.0,0.0,12.0,93.00003341222718,mgb_normalisation,93.00003341222715,90.34149293193902,4,3.0,False,2.874800443649292
,2024-06-27 15:37:48,sub_104,3,distance,cathedral,spatial_unmasking,1,8,0,0,_three_,talker-p284_sex-f_text-_three_.wav,p284,f,5,9,12.0,7.0,RX81,6,0.0,0.0,7.0,72.34149293193903,babble-reversed_n13_p229-one-p318-eight-p256-three-p268-two-p245-five-p248-nine.wav,10,RX81,11,0.0,0.0,12.0,93.00003341222715,mgb_normalisation,93.00003341222715,90.34149293193902,3,3.0,True,3.687249660491944
,2024-06-27 15:37:55,sub_104,3,distance,cathedral,spatial_unmasking,1,9,0,0,_four_,talker-p284_sex-f_text-_four_.wav,p284,f,5,10,12.0,7.0,RX81,6,0.0,0.0,7.0,72.341492931939,babble-reversed_n13_p256-eight-p229-three-p307-nine-p245-five-p248-four-p268-two.wav,10,RX81,11,0.0,0.0,12.0,93.00003341222715,mgb_normalisation,93.00003341222715,90.34149293193902,4,2.0,False,4.624686241149902
,2024-06-27 15:37:58,sub_104,3,distance,cathedral,spatial_unmasking,1,10,0,0,_three_,talker-p284_sex-f_text-_three_.wav,p284,f,5,11,12.0,7.0,RX81,6,0.0,0.0,7.0,74.34149293193903,babble-reversed_n13_p307-two-p229-one-p256-five-p248-nine-p284-three-p268-eight.wav,10,RX81,11,0.0,0.0,12.0,93.00003341222718,mgb_normalisation,93.00003341222715,90.34149293193902,3,3.0,True,1.499842643737793
,2024-06-27 15:38:05,sub_104,3,distance,cathedral,spatial_unmasking,1,11,0,0,_four_,talker-p284_sex-f_text-_four_.wav,p284,f,5,12,12.0,7.0,RX81,6,0.0,0.0,7.0,74.341492931939,babble-reversed_n13_p318-nine-p256-five-p307-eight-p268-three-p248-one-p245-four.wav,10,RX81,11,0.0,0.0,12.0,93.00003341222718,mgb_normalisation,93.00003341222715,90.34149293193902,4,2.0,False,3.749746322631836
,2024-06-27 15:38:09,sub_104,3,distance,cathedral,spatial_unmasking,1,12,0,0,_two_,talker-p284_sex-f_text-_two_.wav,p284,f,5,13,12.0,7.0,RX81,6,0.0,0.0,7.0,76.34149293193902,babble-reversed_n13_p318-five-p256-nine-p307-eight-p248-two-p245-four-p284-three.wav,10,RX81,11,0.0,0.0,12.0,93.00003341222718,mgb_normalisation,93.00003341222715,90.34149293193902,2,2.0,True,1.7498807907104492
,2024-06-27 15:38:12,sub_104,3,distance,cathedral,spatial_unmasking,1,13,0,0,_five_,talker-p284_sex-f_text-_five_.wav,p284,f,5,14,12.0,7.0,RX81,6,0.0,0.0,7.0,76.34149293193902,babble-reversed_n13_p229-three-p307-one-p318-two-p245-eight-p268-five-p284-four.wav,10,RX81,11,0.0,0.0,12.0,93.00003341222718,mgb_normalisation,93.00003341222715,90.34149293193902,5,5.0,True,1.1873972415924072
,2024-06-27 15:38:18,sub_104,3,distance,cathedral,spatial_unmasking,1,14,0,0,_one_,talker-p284_sex-f_text-_one_.wav,p284,f,5,15,12.0,7.0,RX81,6,0.0,0.0,7.0,74.34149293193902,babble-reversed_n13_p307-nine-p318-two-p256-one-p245-three-p268-four-p248-eight.wav,10,RX81,11,0.0,0.0,12.0,93.00003341222715,mgb_normalisation,93.00003341222715,90.34149293193902,1,1.0,True,3.5622589588165283
,2024-06-27 15:38:22,sub_104,3,distance,cathedral,spatial_unmasking,1,15,0,0,_two_,talker-p284_sex-f_text-_two_.wav,p284,f,5,16,12.0,7.0,RX81,6,0.0,0.0,7.0,74.34149293193902,babble-reversed_n13_p229-three-p307-one-p318-two-p245-eight-p268-five-p284-four.wav,10,RX81,11,0.0,0.0,12.0,93.00003341222718,mgb_normalisation,93.00003341222715,90.34149293193902,2,2.0,True,1.7498815059661863
,2024-06-27 15:38:26,sub_104,3,distance,cathedral,spatial_unmasking,1,16,0,0,_four_,talker-p284_sex-f_text-_four_.wav,p284,f,5,17,12.0,7.0,RX81,6,0.0,0.0,7.0,72.341492931939,babble-reversed_n13_p229-three-p256-one-p307-two-p284-eight-p268-five-p248-nine.wav,10,RX81,11,0.0,0.0,12.0,93.00003341222718,mgb_normalisation,93.00003341222715,90.34149293193902,4,4.0,True,1.6873857975006104
,2024-06-27 15:38:30,sub_104,3,distance,cathedral,spatial_unmasking,1,17,0,0,_five_,talker-p284_sex-f_text-_five_.wav,p284,f,5,18,12.0,7.0,RX81,6,0.0,0.0,7.0,72.34149293193902,babble-reversed_n13_p229-one-p318-eight-p256-three-p268-nine-p248-five-p284-four.wav,10,RX81,11,0.0,0.0,12.0,93.00003341222715,mgb_normalisation,93.00003341222715,90.34149293193902,5,5.0,True,0.9999322891235352
,2024-06-27 15:38:36,sub_104,3,distance,cathedral,spatial_unmasking,1,18,0,0,_one_,talker-p284_sex-f_text-_one_.wav,p284,f,5,19,12.0,7.0,RX81,6,0.0,0.0,7.0,70.34149293193902,babble-reversed_n13_p307-nine-p318-two-p256-one-p245-three-p268-four-p248-eight.wav,10,RX81,11,0.0,0.0,12.0,93.00003341222715,mgb_normalisation,93.00003341222715,90.34149293193902,1,1.0,True,3.687249660491944
,2024-06-27 15:38:40,sub_104,3,distance,cathedral,spatial_unmasking,1,19,0,0,_three_,talker-p284_sex-f_text-_three_.wav,p284,f,5,20,12.0,7.0,RX81,6,0.0,0.0,7.0,70.34149293193903,babble-reversed_n13_p229-nine-p318-one-p307-two-p248-eight-p245-five-p284-four.wav,10,RX81,11,0.0,0.0,12.0,93.00003341222718,mgb_normalisation,93.00003341222715,90.34149293193902,3,3.0,True,1.8748719692230225
,2024-06-27 15:38:48,sub_104,3,distance,cathedral,spatial_unmasking,1,20,0,0,_two_,talker-p284_sex-f_text-_two_.wav,p284,f,5,21,12.0,7.0,RX81,6,0.0,0.0,7.0,68.34149293193902,babble-reversed_n13_p307-four-p318-three-p256-eight-p284-two-p245-nine-p248-five.wav,10,RX81,11,0.0,0.0,12.0,93.00003341222715,mgb_normalisation,93.00003341222715,90.34149293193902,2,2.0,True,5.2496421337127686
,2024-06-27 15:38:51,sub_104,3,distance,cathedral,spatial_unmasking,1,21,0,0,_two_,talker-p284_sex-f_text-_two_.wav,p284,f,5,22,12.0,7.0,RX81,6,0.0,0.0,7.0,68.34149293193902,babble-reversed_n13_p229-nine-p318-one-p307-two-p248-eight-p245-five-p284-four.wav,10,RX81,11,0.0,0.0,12.0,93.00003341222718,mgb_normalisation,93.00003341222715,90.34149293193902,2,2.0,True,1.3123533725738523
,2024-06-27 15:38:56,sub_104,3,distance,cathedral,spatial_unmasking,1,22,0,0,_two_,talker-p284_sex-f_text-_two_.wav,p284,f,5,23,12.0,7.0,RX81,6,0.0,0.0,7.0,66.34149293193902,babble-reversed_n13_p318-four-p256-five-p229-three-p284-one-p245-eight-p248-nine.wav,10,RX81,11,0.0,0.0,12.0,93.00003341222718,mgb_normalisation,93.00003341222715,90.34149293193902,2,3.0,False,1.9373643398284912
,2024-06-27 15:39:01,sub_104,3,distance,cathedral,spatial_unmasking,1,23,0,0,_five_,talker-p284_sex-f_text-_five_.wav,p284,f,5,24,12.0,7.0,RX81,6,0.0,0.0,7.0,67.34149293193902,babble-reversed_n13_p229-one-p318-eight-p256-three-p268-two-p245-five-p248-nine.wav,10,RX81,11,0.0,0.0,12.0,93.00003341222715,mgb_normalisation,93.00003341222715,90.34149293193902,5,1.0,False,2.999797105789185
,2024-06-27 15:39:09,sub_104,3,distance,cathedral,spatial_unmasking,1,24,0,0,_one_,talker-p284_sex-f_text-_one_.wav,p284,f,5,25,12.0,7.0,RX81,6,0.0,0.0,7.0,68.34149293193902,babble-reversed_n13_p256-four-p307-eight-p318-two-p248-three-p284-nine-p268-one.wav,10,RX81,11,0.0,0.0,12.0,93.00003341222718,mgb_normalisation,93.00003341222715,90.34149293193902,1,4.0,False,5.812105894088745
,2024-06-27 15:39:13,sub_104,3,distance,cathedral,spatial_unmasking,1,25,0,0,_four_,talker-p284_sex-f_text-_four_.wav,p284,f,5,26,12.0,7.0,RX81,6,0.0,0.0,7.0,69.341492931939,babble-reversed_n13_p307-nine-p229-one-p256-eight-p248-four-p284-two-p268-three.wav,10,RX81,11,0.0,0.0,12.0,93.00003341222718,mgb_normalisation,93.00003341222715,90.34149293193902,4,3.0,False,1.4374010562896729
,2024-06-27 15:39:17,sub_104,3,distance,cathedral,spatial_unmasking,1,26,0,0,_two_,talker-p284_sex-f_text-_two_.wav,p284,f,5,27,12.0,7.0,RX81,6,0.0,0.0,7.0,70.34149293193903,babble-reversed_n13_p229-eight-p256-nine-p318-four-p245-three-p268-five-p284-two.wav,10,RX81,11,0.0,0.0,12.0,93.00003341222715,mgb_normalisation,93.00003341222715,90.34149293193902,2,2.0,True,1.062452793121338
,2024-06-27 15:39:20,sub_104,3,distance,cathedral,spatial_unmasking,1,27,0,0,_three_,talker-p284_sex-f_text-_three_.wav,p284,f,5,28,12.0,7.0,RX81,6,0.0,0.0,7.0,70.34149293193903,babble-reversed_n13_p256-four-p307-eight-p318-two-p248-three-p284-nine-p268-one.wav,10,RX81,11,0.0,0.0,12.0,93.00003341222718,mgb_normalisation,93.00003341222715,90.34149293193902,3,5.0,False,1.3749127388000488
,2024-06-27 15:39:24,sub_104,3,distance,cathedral,spatial_unmasking,1,28,0,0,_four_,talker-p284_sex-f_text-_four_.wav,p284,f,5,29,12.0,7.0,RX81,6,0.0,0.0,7.0,71.34149293193902,babble-reversed_n13_p229-five-p256-one-p318-three-p248-nine-p268-four-p284-eight.wav,10,RX81,11,0.0,0.0,12.0,93.00003341222715,mgb_normalisation,93.00003341222715,90.34149293193902,4,4.0,True,0.9999327659606934
,2024-06-27 15:39:29,sub_104,3,distance,cathedral,spatial_unmasking,1,29,0,0,_five_,talker-p284_sex-f_text-_five_.wav,p284,f,5,30,12.0,7.0,RX81,6,0.0,0.0,7.0,71.34149293193902,babble-reversed_n13_p256-five-p307-nine-p318-three-p284-eight-p268-one-p248-two.wav,10,RX81,11,0.0,0.0,12.0,93.00003341222715,mgb_normalisation,93.00003341222715,90.34149293193902,5,1.0,False,2.9372754096984863
,2024-06-27 15:39:33,sub_104,3,distance,cathedral,spatial_unmasking,1,30,0,0,_one_,talker-p284_sex-f_text-_one_.wav,p284,f,5,31,12.0,7.0,RX81,6,0.0,0.0,7.0,72.34149293193902,babble-reversed_n13_p307-nine-p229-one-p256-eight-p248-four-p284-two-p268-three.wav,10,RX81,11,0.0,0.0,12.0,93.00003341222718,mgb_normalisation,93.00003341222715,90.34149293193902,1,3.0,False,1.4374089241027832
,2024-06-27 15:39:37,sub_104,3,distance,cathedral,spatial_unmasking,1,31,0,0,_three_,talker-p284_sex-f_text-_three_.wav,p284,f,5,32,12.0,7.0,RX81,6,0.0,0.0,7.0,73.34149293193902,babble-reversed_n13_p256-eight-p229-three-p307-nine-p245-five-p248-four-p268-two.wav,10,RX81,11,0.0,0.0,12.0,93.00003341222715,mgb_normalisation,93.00003341222715,90.34149293193902,3,3.0,True,1.3124110698699951
,2024-06-27 15:39:43,sub_104,3,distance,cathedral,spatial_unmasking,1,32,0,0,_four_,talker-p284_sex-f_text-_four_.wav,p284,f,5,33,12.0,7.0,RX81,6,0.0,0.0,7.0,73.34149293193902,babble-reversed_n13_p256-five-p307-nine-p318-three-p284-eight-p268-one-p248-two.wav,10,RX81,11,0.0,0.0,12.0,93.00003341222715,mgb_normalisation,93.00003341222715,90.34149293193902,4,1.0,False,4.062226057052612
,2024-06-27 15:39:48,sub_104,3,distance,cathedral,spatial_unmasking,1,33,0,0,_four_,talker-p284_sex-f_text-_four_.wav,p284,f,5,34,12.0,7.0,RX81,6,0.0,0.0,7.0,74.341492931939,babble-reversed_n13_p256-eight-p318-five-p307-four-p245-three-p268-one-p284-nine.wav,10,RX81,11,0.0,0.0,12.0,93.00003341222715,mgb_normalisation,93.00003341222715,90.34149293193902,4,4.0,True,2.2499120235443115
,2024-06-27 15:39:51,sub_104,3,distance,cathedral,spatial_unmasking,1,34,0,0,_three_,talker-p284_sex-f_text-_three_.wav,p284,f,5,35,12.0,7.0,RX81,6,0.0,0.0,7.0,74.34149293193903,babble-reversed_n13_p229-three-p256-nine-p318-five-p248-one-p245-eight-p284-two.wav,10,RX81,11,0.0,0.0,12.0,93.00003341222718,mgb_normalisation,93.00003341222715,90.34149293193902,3,3.0,True,0.9999344348907472
,2024-06-27 15:39:55,sub_104,3,distance,cathedral,spatial_unmasking,1,35,0,0,_four_,talker-p284_sex-f_text-_four_.wav,p284,f,5,36,12.0,7.0,RX81,6,0.0,0.0,7.0,73.34149293193902,babble-reversed_n13_p229-one-p318-eight-p256-three-p268-two-p245-five-p248-nine.wav,10,RX81,11,0.0,0.0,12.0,93.00003341222715,mgb_normalisation,93.00003341222715,90.34149293193902,4,2.0,False,1.4374313354492188
,2024-06-27 15:40:00,sub_104,3,distance,cathedral,spatial_unmasking,1,36,0,0,_four_,talker-p284_sex-f_text-_four_.wav,p284,f,5,37,12.0,7.0,RX81,6,0.0,0.0,7.0,74.341492931939,babble-reversed_n13_p229-one-p318-nine-p256-four-p284-eight-p268-five-p245-two.wav,10,RX81,11,0.0,0.0,12.0,93.00003341222715,mgb_normalisation,93.00003341222715,90.34149293193902,4,1.0,False,2.687335252761841
,2024-06-27 15:40:03,sub_104,3,distance,cathedral,spatial_unmasking,1,37,0,0,_five_,talker-p284_sex-f_text-_five_.wav,p284,f,5,38,12.0,7.0,RX81,6,0.0,0.0,7.0,75.34149293193902,babble-reversed_n13_p229-five-p256-one-p318-three-p248-nine-p268-four-p284-eight.wav,10,RX81,11,0.0,0.0,12.0,93.00003341222715,mgb_normalisation,93.00003341222715,90.34149293193902,5,5.0,True,1.062427997589111
,2024-06-27 15:40:07,sub_104,3,distance,cathedral,spatial_unmasking,1,38,0,0,_five_,talker-p284_sex-f_text-_five_.wav,p284,f,5,39,12.0,7.0,RX81,6,0.0,0.0,7.0,75.34149293193902,babble-reversed_n13_p256-five-p229-one-p318-three-p248-nine-p284-eight-p268-two.wav,10,RX81,11,0.0,0.0,12.0,93.00003341222718,mgb_normalisation,93.00003341222715,90.34149293193902,5,5.0,True,1.1874206066131592
,2024-06-27 15:40:11,sub_104,3,distance,cathedral,spatial_unmasking,1,39,0,0,_five_,talker-p284_sex-f_text-_five_.wav,p284,f,5,40,12.0,7.0,RX81,6,0.0,0.0,7.0,74.34149293193902,babble-reversed_n13_p318-four-p256-five-p229-three-p284-one-p245-eight-p248-nine.wav,10,RX81,11,0.0,0.0,12.0,93.00003341222718,mgb_normalisation,93.00003341222715,90.34149293193902,5,5.0,True,1.5624017715454102
,2024-06-27 15:40:15,sub_104,3,distance,cathedral,spatial_unmasking,1,40,0,0,_one_,talker-p284_sex-f_text-_one_.wav,p284,f,5,41,12.0,7.0,RX81,6,0.0,0.0,7.0,74.34149293193902,babble-reversed_n13_p307-one-p318-five-p229-four-p268-eight-p284-two-p245-three.wav,10,RX81,11,0.0,0.0,12.0,93.00003341222715,mgb_normalisation,93.00003341222715,90.34149293193902,1,1.0,True,1.562394380569458
,2024-06-27 15:40:21,sub_104,3,distance,cathedral,spatial_unmasking,1,41,0,0,_four_,talker-p284_sex-f_text-_four_.wav,p284,f,5,42,12.0,7.0,RX81,6,0.0,0.0,7.0,73.34149293193902,babble-reversed_n13_p256-eight-p318-five-p307-four-p245-three-p268-one-p284-nine.wav,10,RX81,11,0.0,0.0,12.0,93.00003341222715,mgb_normalisation,93.00003341222715,90.34149293193902,4,4.0,True,3.5622599124908447
,2024-06-27 15:40:24,sub_104,3,distance,cathedral,spatial_unmasking,1,42,0,0,_one_,talker-p284_sex-f_text-_one_.wav,p284,f,5,43,12.0,7.0,RX81,6,0.0,0.0,7.0,73.34149293193902,babble-reversed_n13_p229-two-p256-three-p318-eight-p284-five-p268-four-p245-one.wav,10,RX81,11,0.0,0.0,12.0,93.00003341222718,mgb_normalisation,93.00003341222715,90.34149293193902,1,1.0,True,1.1874465942382812
,2024-06-27 15:40:34,sub_104,3,distance,cathedral,spatial_unmasking,1,43,0,0,_five_,talker-p284_sex-f_text-_five_.wav,p284,f,5,44,12.0,7.0,RX81,6,0.0,0.0,7.0,72.34149293193902,babble-reversed_n13_p256-nine-p307-four-p229-one-p284-three-p248-two-p245-five.wav,10,RX81,11,0.0,0.0,12.0,93.00003341222718,mgb_normalisation,93.00003341222715,90.34149293193902,5,4.0,False,7.249508619308472
,2024-06-27 15:40:38,sub_104,3,distance,cathedral,spatial_unmasking,1,44,0,0,_one_,talker-p284_sex-f_text-_one_.wav,p284,f,5,45,12.0,7.0,RX81,6,0.0,0.0,7.0,73.34149293193902,babble-reversed_n13_p318-four-p256-five-p229-three-p284-one-p245-eight-p248-nine.wav,10,RX81,11,0.0,0.0,12.0,93.00003341222718,mgb_normalisation,93.00003341222715,90.34149293193902,1,5.0,False,1.3124117851257324
,2024-06-27 15:40:41,sub_104,3,distance,cathedral,spatial_unmasking,1,45,0,0,_one_,talker-p284_sex-f_text-_one_.wav,p284,f,5,46,12.0,7.0,RX81,6,0.0,0.0,7.0,74.34149293193902,babble-reversed_n13_p318-nine-p307-eight-p229-two-p284-one-p248-three-p245-five.wav,10,RX81,11,0.0,0.0,12.0,93.00003341222718,mgb_normalisation,93.00003341222715,90.34149293193902,1,1.0,True,0.9374361038208008
,2024-06-27 15:40:44,sub_104,3,distance,cathedral,spatial_unmasking,1,46,0,0,_three_,talker-p284_sex-f_text-_three_.wav,p284,f,5,47,12.0,7.0,RX81,6,0.0,0.0,7.0,74.34149293193903,babble-reversed_n13_p229-five-p318-two-p307-eight-p268-three-p248-four-p245-one.wav,10,RX81,11,0.0,0.0,12.0,93.00003341222718,mgb_normalisation,93.00003341222715,90.34149293193902,3,3.0,True,0.9999322891235352
,2024-06-27 15:40:48,sub_104,3,distance,cathedral,spatial_unmasking,1,47,0,0,_five_,talker-p284_sex-f_text-_five_.wav,p284,f,5,48,12.0,7.0,RX81,6,0.0,0.0,7.0,73.34149293193902,babble-reversed_n13_p307-nine-p318-two-p256-one-p245-three-p268-four-p248-eight.wav,10,RX81,11,0.0,0.0,12.0,93.00003341222715,mgb_normalisation,93.00003341222715,90.34149293193902,5,5.0,True,1.1874268054962158
,2024-06-27 15:40:54,sub_104,3,distance,cathedral,spatial_unmasking,1,48,0,0,_three_,talker-p284_sex-f_text-_three_.wav,p284,f,5,49,12.0,7.0,RX81,6,0.0,0.0,7.0,73.34149293193902,babble-reversed_n13_p307-two-p256-four-p318-three-p284-eight-p248-five-p245-nine.wav,10,RX81,11,0.0,0.0,12.0,93.00003341222718,mgb_normalisation,93.00003341222715,90.34149293193902,3,2.0,False,3.8747382164001465
,2024-06-27 15:40:58,sub_104,3,distance,cathedral,spatial_unmasking,1,49,0,0,_three_,talker-p284_sex-f_text-_three_.wav,p284,f,5,50,12.0,7.0,RX81,6,0.0,0.0,7.0,74.34149293193903,babble-reversed_n13_p307-four-p318-three-p256-eight-p284-two-p245-nine-p248-five.wav,10,RX81,11,0.0,0.0,12.0,93.00003341222715,mgb_normalisation,93.00003341222715,90.34149293193902,3,3.0,True,1.0624277591705322
,2024-06-27 15:41:01,sub_104,3,distance,cathedral,spatial_unmasking,1,50,0,0,_one_,talker-p284_sex-f_text-_one_.wav,p284,f,5,51,12.0,7.0,RX81,6,0.0,0.0,7.0,74.34149293193902,babble-reversed_n13_p229-nine-p318-one-p307-two-p248-eight-p245-five-p284-four.wav,10,RX81,11,0.0,0.0,12.0,93.00003341222718,mgb_normalisation,93.00003341222715,90.34149293193902,1,1.0,True,1.1874456405639648
,2024-06-27 15:41:05,sub_104,3,distance,cathedral,spatial_unmasking,1,51,0,0,_one_,talker-p284_sex-f_text-_one_.wav,p284,f,5,52,12.0,7.0,RX81,6,0.0,0.0,7.0,73.34149293193902,babble-reversed_n13_p229-five-p256-three-p318-nine-p248-two-p284-four-p268-one.wav,10,RX81,11,0.0,0.0,12.0,93.00003341222718,mgb_normalisation,93.00003341222715,90.34149293193902,1,4.0,False,1.499833106994629
,2024-06-27 15:41:12,sub_104,3,distance,cathedral,spatial_unmasking,1,52,0,0,_four_,talker-p284_sex-f_text-_four_.wav,p284,f,5,53,12.0,7.0,RX81,6,0.0,0.0,7.0,74.341492931939,babble-reversed_n13_p229-one-p318-eight-p256-three-p268-two-p245-five-p248-nine.wav,10,RX81,11,0.0,0.0,12.0,93.00003341222715,mgb_normalisation,93.00003341222715,90.34149293193902,4,1.0,False,4.312208652496338
,2024-06-27 15:41:16,sub_104,3,distance,cathedral,spatial_unmasking,1,53,0,0,_one_,talker-p284_sex-f_text-_one_.wav,p284,f,5,54,12.0,7.0,RX81,6,0.0,0.0,7.0,75.34149293193902,babble-reversed_n13_p229-three-p307-one-p318-two-p245-eight-p268-five-p284-four.wav,10,RX81,11,0.0,0.0,12.0,93.00003341222718,mgb_normalisation,93.00003341222715,90.34149293193902,1,1.0,True,1.3749079704284668
,2024-06-27 15:41:20,sub_104,3,distance,cathedral,spatial_unmasking,1,54,0,0,_four_,talker-p284_sex-f_text-_four_.wav,p284,f,5,55,12.0,7.0,RX81,6,0.0,0.0,7.0,75.341492931939,babble-reversed_n13_p307-two-p229-one-p256-five-p248-nine-p284-three-p268-eight.wav,10,RX81,11,0.0,0.0,12.0,93.00003341222718,mgb_normalisation,93.00003341222715,90.34149293193902,4,3.0,False,2.187350988388061
,2024-06-27 15:41:27,sub_104,3,distance,cathedral,spatial_unmasking,1,55,0,0,_three_,talker-p284_sex-f_text-_three_.wav,p284,f,5,56,12.0,7.0,RX81,6,0.0,0.0,7.0,76.34149293193902,babble-reversed_n13_p229-two-p318-eight-p256-three-p268-one-p248-nine-p284-five.wav,10,RX81,11,0.0,0.0,12.0,93.00003341222715,mgb_normalisation,93.00003341222715,90.34149293193902,3,3.0,True,3.9997286796569824
,2024-06-27 15:41:30,sub_104,3,distance,cathedral,spatial_unmasking,1,56,0,0,_one_,talker-p284_sex-f_text-_one_.wav,p284,f,5,57,12.0,7.0,RX81,6,0.0,0.0,7.0,76.34149293193902,babble-reversed_n13_p318-nine-p256-five-p307-eight-p268-three-p248-one-p245-four.wav,10,RX81,11,0.0,0.0,12.0,93.00003341222718,mgb_normalisation,93.00003341222715,90.34149293193902,1,1.0,True,1.187419891357422
,2024-06-27 15:41:34,sub_104,3,distance,cathedral,spatial_unmasking,1,57,0,0,_four_,talker-p284_sex-f_text-_four_.wav,p284,f,5,58,12.0,7.0,RX81,6,0.0,0.0,7.0,75.341492931939,babble-reversed_n13_p256-three-p318-two-p229-nine-p248-four-p284-one-p268-eight.wav,10,RX81,11,0.0,0.0,12.0,93.00003341222715,mgb_normalisation,93.00003341222715,90.34149293193902,4,3.0,False,1.4999022483825684
,2024-06-27 15:41:38,sub_104,3,distance,cathedral,spatial_unmasking,1,58,0,0,_one_,talker-p284_sex-f_text-_one_.wav,p284,f,5,59,12.0,7.0,RX81,6,0.0,0.0,7.0,76.34149293193902,babble-reversed_n13_p256-five-p229-one-p318-three-p248-nine-p284-eight-p268-two.wav,10,RX81,11,0.0,0.0,12.0,93.00003341222718,mgb_normalisation,93.00003341222715,90.34149293193902,1,1.0,True,1.1249525547027588
,2024-06-27 15:41:43,sub_104,3,distance,cathedral,spatial_unmasking,1,59,0,0,_four_,talker-p284_sex-f_text-_four_.wav,p284,f,5,60,12.0,7.0,RX81,6,0.0,0.0,7.0,76.34149293193902,babble-reversed_n13_p307-four-p318-three-p256-eight-p284-two-p245-nine-p248-five.wav,10,RX81,11,0.0,0.0,12.0,93.00003341222715,mgb_normalisation,93.00003341222715,90.34149293193902,4,5.0,False,2.624826669692993
,2024-06-27 15:41:49,sub_104,3,distance,cathedral,spatial_unmasking,1,60,0,0,_four_,talker-p284_sex-f_text-_four_.wav,p284,f,5,61,12.0,7.0,RX81,6,0.0,0.0,7.0,77.341492931939,babble-reversed_n13_p318-three-p307-one-p256-five-p248-nine-p245-two-p284-eight.wav,10,RX81,11,0.0,0.0,12.0,93.00003341222718,mgb_normalisation,93.00003341222715,90.34149293193902,4,4.0,True,4.249711751937866
,2024-06-27 15:41:53,sub_104,3,distance,cathedral,spatial_unmasking,1,61,0,0,_one_,talker-p284_sex-f_text-_one_.wav,p284,f,5,62,12.0,7.0,RX81,6,0.0,0.0,7.0,77.34149293193902,babble-reversed_n13_p256-two-p307-five-p318-nine-p248-eight-p245-four-p284-one.wav,10,RX81,11,0.0,0.0,12.0,93.00003341222718,mgb_normalisation,93.00003341222715,90.34149293193902,1,1.0,True,0.93743634223938
,2024-06-27 15:41:56,sub_104,3,distance,cathedral,spatial_unmasking,1,62,0,0,_three_,talker-p284_sex-f_text-_three_.wav,p284,f,5,63,12.0,7.0,RX81,6,0.0,0.0,7.0,76.34149293193902,babble-reversed_n13_p256-eight-p318-five-p307-four-p245-three-p268-one-p284-nine.wav,10,RX81,11,0.0,0.0,12.0,93.00003341222715,mgb_normalisation,93.00003341222715,90.34149293193902,3,3.0,True,1.1249234676361084
,2024-06-27 15:42:00,sub_104,3,distance,cathedral,spatial_unmasking,1,63,0,0,_one_,talker-p284_sex-f_text-_one_.wav,p284,f,5,64,12.0,7.0,RX81,6,0.0,0.0,7.0,76.34149293193902,babble-reversed_n13_p307-four-p318-three-p256-eight-p284-two-p245-nine-p248-five.wav,10,RX81,11,0.0,0.0,12.0,93.00003341222715,mgb_normalisation,93.00003341222715,90.34149293193902,1,1.0,True,1.2498610019683838
,2024-06-27 15:42:03,sub_104,3,distance,cathedral,spatial_unmasking,1,64,0,0,_two_,talker-p284_sex-f_text-_two_.wav,p284,f,5,65,12.0,7.0,RX81,6,0.0,0.0,7.0,75.34149293193903,babble-reversed_n13_p229-five-p256-three-p318-nine-p248-two-p284-four-p268-one.wav,10,RX81,11,0.0,0.0,12.0,93.00003341222718,mgb_normalisation,93.00003341222715,90.34149293193902,2,2.0,True,0.8749403953552246
,2024-06-27 15:42:07,sub_104,3,distance,cathedral,spatial_unmasking,1,65,0,0,_three_,talker-p284_sex-f_text-_three_.wav,p284,f,5,66,12.0,7.0,RX81,6,0.0,0.0,7.0,75.34149293193903,babble-reversed_n13_p318-three-p307-one-p256-five-p248-nine-p245-two-p284-eight.wav,10,RX81,11,0.0,0.0,12.0,93.00003341222718,mgb_normalisation,93.00003341222715,90.34149293193902,3,3.0,True,1.7498815059661863
,2024-06-27 15:42:11,sub_104,3,distance,cathedral,spatial_unmasking,1,66,0,0,_one_,talker-p284_sex-f_text-_one_.wav,p284,f,5,67,12.0,7.0,RX81,6,0.0,0.0,7.0,74.34149293193902,babble-reversed_n13_p318-five-p229-four-p256-eight-p284-one-p245-three-p248-two.wav,10,RX81,11,0.0,0.0,12.0,93.00003341222718,mgb_normalisation,93.00003341222715,90.34149293193902,1,1.0,True,1.1874206066131592
,2024-06-27 15:42:14,sub_104,3,distance,cathedral,spatial_unmasking,1,67,0,0,_five_,talker-p284_sex-f_text-_five_.wav,p284,f,5,68,12.0,7.0,RX81,6,0.0,0.0,7.0,74.34149293193902,babble-reversed_n13_p229-five-p256-three-p318-nine-p248-two-p284-four-p268-one.wav,10,RX81,11,0.0,0.0,12.0,93.00003341222718,mgb_normalisation,93.00003341222715,90.34149293193902,5,5.0,True,1.3124182224273682
,2024-06-27 15:42:19,sub_104,3,distance,cathedral,spatial_unmasking,1,68,0,0,_three_,talker-p284_sex-f_text-_three_.wav,p284,f,5,69,12.0,7.0,RX81,6,0.0,0.0,7.0,73.34149293193902,babble-reversed_n13_p318-five-p256-nine-p307-eight-p248-two-p245-four-p284-three.wav,10,RX81,11,0.0,0.0,12.0,93.00003341222718,mgb_normalisation,93.00003341222715,90.34149293193902,3,3.0,True,2.374837875366211
,2024-06-27 15:42:25,sub_104,3,distance,cathedral,spatial_unmasking,1,69,0,0,_three_,talker-p284_sex-f_text-_three_.wav,p284,f,5,70,12.0,7.0,RX81,6,0.0,0.0,7.0,73.34149293193902,babble-reversed_n13_p229-nine-p307-five-p256-two-p248-three-p245-one-p268-eight.wav,10,RX81,11,0.0,0.0,12.0,93.00003341222715,mgb_normalisation,93.00003341222715,90.34149293193902,3,4.0,False,3.124788284301758
,2024-06-27 15:42:33,sub_104,3,distance,cathedral,spatial_unmasking,1,70,0,0,_one_,talker-p284_sex-f_text-_one_.wav,p284,f,5,71,12.0,7.0,RX81,6,0.0,0.0,7.0,74.34149293193902,babble-reversed_n13_p307-five-p229-two-p318-four-p248-three-p245-nine-p268-eight.wav,10,RX81,11,0.0,0.0,12.0,93.00003341222715,mgb_normalisation,93.00003341222715,90.34149293193902,1,1.0,True,5.749610424041748
,2024-06-27 15:42:36,sub_104,3,distance,cathedral,spatial_unmasking,1,71,0,0,_two_,talker-p284_sex-f_text-_two_.wav,p284,f,5,72,12.0,7.0,RX81,6,0.0,0.0,7.0,74.34149293193902,babble-reversed_n13_p256-three-p318-two-p229-nine-p248-four-p284-one-p268-eight.wav,10,RX81,11,0.0,0.0,12.0,93.00003341222715,mgb_normalisation,93.00003341222715,90.34149293193902,2,2.0,True,1.0624275207519531
,2024-06-27 15:44:33,sub_104,3,distance,cathedral,spatial_unmasking,2,72,0,0,_three_,talker-p284_sex-f_text-_three_.wav,p284,f,5,1,6.0,7.0,RX81,6,0.0,0.0,7.0,92.34149293193902,babble-reversed_n13_p307-two-p256-four-p318-three-p284-eight-p248-five-p245-nine.wav,4,RX81,5,0.0,0.0,6.0,89.313683184021,mgb_normalisation,89.31368318402099,90.34149293193902,3,3.0,True,3.124857187271118
,2024-06-27 15:44:37,sub_104,3,distance,cathedral,spatial_unmasking,2,73,0,0,_one_,talker-p284_sex-f_text-_one_.wav,p284,f,5,2,6.0,7.0,RX81,6,0.0,0.0,7.0,88.34149293193902,babble-reversed_n13_p229-one-p318-eight-p256-three-p268-two-p245-five-p248-nine.wav,4,RX81,5,0.0,0.0,6.0,89.31368318402099,mgb_normalisation,89.31368318402099,90.34149293193902,1,1.0,True,1.4998972415924072
,2024-06-27 15:44:40,sub_104,3,distance,cathedral,spatial_unmasking,2,74,0,0,_one_,talker-p284_sex-f_text-_one_.wav,p284,f,5,3,6.0,7.0,RX81,6,0.0,0.0,7.0,84.341492931939,babble-reversed_n13_p318-five-p256-nine-p307-two-p245-eight-p248-one-p284-four.wav,4,RX81,5,0.0,0.0,6.0,89.313683184021,mgb_normalisation,89.31368318402099,90.34149293193902,1,1.0,True,1.3124094009399414
,2024-06-27 15:44:45,sub_104,3,distance,cathedral,spatial_unmasking,2,75,0,0,_four_,talker-p284_sex-f_text-_four_.wav,p284,f,5,4,6.0,7.0,RX81,6,0.0,0.0,7.0,80.341492931939,babble-reversed_n13_p307-four-p318-three-p256-eight-p284-two-p245-nine-p248-five.wav,4,RX81,5,0.0,0.0,6.0,89.31368318402099,mgb_normalisation,89.31368318402099,90.34149293193902,4,2.0,False,2.2498466968536377
,2024-06-27 15:44:49,sub_104,3,distance,cathedral,spatial_unmasking,2,76,0,0,_four_,talker-p284_sex-f_text-_four_.wav,p284,f,5,5,6.0,7.0,RX81,6,0.0,0.0,7.0,82.341492931939,babble-reversed_n13_p256-five-p307-nine-p318-three-p284-eight-p268-one-p248-two.wav,4,RX81,5,0.0,0.0,6.0,89.31368318402099,mgb_normalisation,89.31368318402099,90.34149293193902,4,1.0,False,1.1874544620513916
,2024-06-27 15:44:52,sub_104,3,distance,cathedral,spatial_unmasking,2,77,0,0,_three_,talker-p284_sex-f_text-_three_.wav,p284,f,5,6,6.0,7.0,RX81,6,0.0,0.0,7.0,84.34149293193903,babble-reversed_n13_p229-two-p318-eight-p256-three-p268-one-p248-nine-p284-five.wav,4,RX81,5,0.0,0.0,6.0,89.31368318402099,mgb_normalisation,89.31368318402099,90.34149293193902,3,3.0,True,0.999931812286377
,2024-06-27 15:44:55,sub_104,3,distance,cathedral,spatial_unmasking,2,78,0,0,_five_,talker-p284_sex-f_text-_five_.wav,p284,f,5,7,6.0,7.0,RX81,6,0.0,0.0,7.0,84.341492931939,babble-reversed_n13_p318-five-p229-three-p256-four-p268-eight-p248-one-p245-nine.wav,4,RX81,5,0.0,0.0,6.0,89.31368318402099,mgb_normalisation,89.31368318402099,90.34149293193902,5,5.0,True,0.999932050704956
,2024-06-27 15:44:59,sub_104,3,distance,cathedral,spatial_unmasking,2,79,0,0,_three_,talker-p284_sex-f_text-_three_.wav,p284,f,5,8,6.0,7.0,RX81,6,0.0,0.0,7.0,82.34149293193902,babble-reversed_n13_p318-three-p307-one-p256-five-p248-nine-p245-two-p284-eight.wav,4,RX81,5,0.0,0.0,6.0,89.31368318402099,mgb_normalisation,89.31368318402099,90.34149293193902,3,3.0,True,1.4374008178710938
,2024-06-27 15:45:03,sub_104,3,distance,cathedral,spatial_unmasking,2,80,0,0,_three_,talker-p284_sex-f_text-_three_.wav,p284,f,5,9,6.0,7.0,RX81,6,0.0,0.0,7.0,82.34149293193902,babble-reversed_n13_p307-five-p229-two-p318-four-p248-three-p245-nine-p268-eight.wav,4,RX81,5,0.0,0.0,6.0,89.31368318402099,mgb_normalisation,89.31368318402099,90.34149293193902,3,3.0,True,1.1874241828918457
,2024-06-27 15:45:08,sub_104,3,distance,cathedral,spatial_unmasking,2,81,0,0,_four_,talker-p284_sex-f_text-_four_.wav,p284,f,5,10,6.0,7.0,RX81,6,0.0,0.0,7.0,80.341492931939,babble-reversed_n13_p307-five-p229-two-p318-four-p248-three-p245-nine-p268-eight.wav,4,RX81,5,0.0,0.0,6.0,89.31368318402099,mgb_normalisation,89.31368318402099,90.34149293193902,4,4.0,True,2.6248223781585693
,2024-06-27 15:45:12,sub_104,3,distance,cathedral,spatial_unmasking,2,82,0,0,_five_,talker-p284_sex-f_text-_five_.wav,p284,f,5,11,6.0,7.0,RX81,6,0.0,0.0,7.0,80.34149293193903,babble-reversed_n13_p229-five-p256-one-p318-three-p248-nine-p268-four-p284-eight.wav,4,RX81,5,0.0,0.0,6.0,89.31368318402099,mgb_normalisation,89.31368318402099,90.34149293193902,5,5.0,True,1.4998972415924072
,2024-06-27 15:45:15,sub_104,3,distance,cathedral,spatial_unmasking,2,83,0,0,_three_,talker-p284_sex-f_text-_three_.wav,p284,f,5,12,6.0,7.0,RX81,6,0.0,0.0,7.0,78.34149293193902,babble-reversed_n13_p318-five-p256-nine-p307-two-p245-eight-p248-one-p284-four.wav,4,RX81,5,0.0,0.0,6.0,89.313683184021,mgb_normalisation,89.31368318402099,90.34149293193902,3,3.0,True,1.2499144077301023
,2024-06-27 15:45:19,sub_104,3,distance,cathedral,spatial_unmasking,2,84,0,0,_two_,talker-p284_sex-f_text-_two_.wav,p284,f,5,13,6.0,7.0,RX81,6,0.0,0.0,7.0,78.34149293193902,babble-reversed_n13_p318-one-p307-two-p256-eight-p284-three-p248-five-p245-four.wav,4,RX81,5,0.0,0.0,6.0,89.313683184021,mgb_normalisation,89.31368318402099,90.34149293193902,2,2.0,True,1.437401533126831
,2024-06-27 15:45:24,sub_104,3,distance,cathedral,spatial_unmasking,2,85,0,0,_one_,talker-p284_sex-f_text-_one_.wav,p284,f,5,14,6.0,7.0,RX81,6,0.0,0.0,7.0,76.34149293193902,babble-reversed_n13_p307-nine-p318-two-p256-one-p245-three-p268-four-p248-eight.wav,4,RX81,5,0.0,0.0,6.0,89.31368318402099,mgb_normalisation,89.31368318402099,90.34149293193902,1,1.0,True,2.6247949600219727
,2024-06-27 15:45:29,sub_104,3,distance,cathedral,spatial_unmasking,2,86,0,0,_five_,talker-p284_sex-f_text-_five_.wav,p284,f,5,15,6.0,7.0,RX81,6,0.0,0.0,7.0,76.34149293193902,babble-reversed_n13_p256-five-p229-one-p318-three-p248-nine-p284-eight-p268-two.wav,4,RX81,5,0.0,0.0,6.0,89.31368318402099,mgb_normalisation,89.31368318402099,90.34149293193902,5,5.0,True,2.6248202323913574
,2024-06-27 15:45:34,sub_104,3,distance,cathedral,spatial_unmasking,2,87,0,0,_three_,talker-p284_sex-f_text-_three_.wav,p284,f,5,16,6.0,7.0,RX81,6,0.0,0.0,7.0,74.34149293193903,babble-reversed_n13_p229-one-p318-eight-p256-three-p268-two-p245-five-p248-nine.wav,4,RX81,5,0.0,0.0,6.0,89.31368318402099,mgb_normalisation,89.31368318402099,90.34149293193902,3,3.0,True,2.562324523925781
,2024-06-27 15:45:39,sub_104,3,distance,cathedral,spatial_unmasking,2,88,0,0,_five_,talker-p284_sex-f_text-_five_.wav,p284,f,5,17,6.0,7.0,RX81,6,0.0,0.0,7.0,74.34149293193902,babble-reversed_n13_p229-one-p318-nine-p256-four-p284-eight-p268-five-p245-two.wav,4,RX81,5,0.0,0.0,6.0,89.31368318402099,mgb_normalisation,89.31368318402099,90.34149293193902,5,5.0,True,2.8748035430908203
,2024-06-27 15:45:42,sub_104,3,distance,cathedral,spatial_unmasking,2,89,0,0,_two_,talker-p284_sex-f_text-_two_.wav,p284,f,5,18,6.0,7.0,RX81,6,0.0,0.0,7.0,72.34149293193902,babble-reversed_n13_p318-five-p229-three-p256-four-p268-eight-p248-one-p245-nine.wav,4,RX81,5,0.0,0.0,6.0,89.31368318402099,mgb_normalisation,89.31368318402099,90.34149293193902,2,2.0,True,0.7499420642852783
,2024-06-27 15:45:46,sub_104,3,distance,cathedral,spatial_unmasking,2,90,0,0,_five_,talker-p284_sex-f_text-_five_.wav,p284,f,5,19,6.0,7.0,RX81,6,0.0,0.0,7.0,72.34149293193902,babble-reversed_n13_p256-eight-p318-five-p307-four-p245-three-p268-one-p284-nine.wav,4,RX81,5,0.0,0.0,6.0,89.31368318402099,mgb_normalisation,89.31368318402099,90.34149293193902,5,5.0,True,1.4998962879180908
,2024-06-27 15:45:51,sub_104,3,distance,cathedral,spatial_unmasking,2,91,0,0,_three_,talker-p284_sex-f_text-_three_.wav,p284,f,5,20,6.0,7.0,RX81,6,0.0,0.0,7.0,70.34149293193903,babble-reversed_n13_p256-four-p229-two-p318-five-p268-one-p248-eight-p245-three.wav,4,RX81,5,0.0,0.0,6.0,89.31368318402099,mgb_normalisation,89.31368318402099,90.34149293193902,3,1.0,False,1.8123764991760247
,2024-06-27 15:45:54,sub_104,3,distance,cathedral,spatial_unmasking,2,92,0,0,_two_,talker-p284_sex-f_text-_two_.wav,p284,f,5,21,6.0,7.0,RX81,6,0.0,0.0,7.0,71.34149293193902,babble-reversed_n13_p318-five-p229-three-p256-four-p268-eight-p248-one-p245-nine.wav,4,RX81,5,0.0,0.0,6.0,89.31368318402099,mgb_normalisation,89.31368318402099,90.34149293193902,2,2.0,True,1.3749077320098877
,2024-06-27 15:45:59,sub_104,3,distance,cathedral,spatial_unmasking,2,93,0,0,_five_,talker-p284_sex-f_text-_five_.wav,p284,f,5,22,6.0,7.0,RX81,6,0.0,0.0,7.0,71.34149293193902,babble-reversed_n13_p318-five-p229-four-p256-eight-p284-one-p245-three-p248-two.wav,4,RX81,5,0.0,0.0,6.0,89.31368318402099,mgb_normalisation,89.31368318402099,90.34149293193902,5,5.0,True,1.9373674392700195
,2024-06-27 15:46:03,sub_104,3,distance,cathedral,spatial_unmasking,2,94,0,0,_two_,talker-p284_sex-f_text-_two_.wav,p284,f,5,23,6.0,7.0,RX81,6,0.0,0.0,7.0,70.34149293193903,babble-reversed_n13_p307-four-p318-three-p256-eight-p284-two-p245-nine-p248-five.wav,4,RX81,5,0.0,0.0,6.0,89.31368318402099,mgb_normalisation,89.31368318402099,90.34149293193902,2,2.0,True,1.687384843826294
,2024-06-27 15:46:07,sub_104,3,distance,cathedral,spatial_unmasking,2,95,0,0,_one_,talker-p284_sex-f_text-_one_.wav,p284,f,5,24,6.0,7.0,RX81,6,0.0,0.0,7.0,70.34149293193902,babble-reversed_n13_p318-three-p229-one-p256-eight-p245-five-p248-four-p284-nine.wav,4,RX81,5,0.0,0.0,6.0,89.313683184021,mgb_normalisation,89.31368318402099,90.34149293193902,1,1.0,True,1.999799728393555
,2024-06-27 15:46:11,sub_104,3,distance,cathedral,spatial_unmasking,2,96,0,0,_three_,talker-p284_sex-f_text-_three_.wav,p284,f,5,25,6.0,7.0,RX81,6,0.0,0.0,7.0,69.34149293193903,babble-reversed_n13_p229-five-p256-one-p318-three-p248-nine-p268-four-p284-eight.wav,4,RX81,5,0.0,0.0,6.0,89.31368318402099,mgb_normalisation,89.31368318402099,90.34149293193902,3,4.0,False,1.6873855590820312
,2024-06-27 15:46:15,sub_104,3,distance,cathedral,spatial_unmasking,2,97,0,0,_one_,talker-p284_sex-f_text-_one_.wav,p284,f,5,26,6.0,7.0,RX81,6,0.0,0.0,7.0,70.34149293193902,babble-reversed_n13_p229-two-p307-five-p318-four-p284-one-p248-nine-p268-eight.wav,4,RX81,5,0.0,0.0,6.0,89.31368318402099,mgb_normalisation,89.31368318402099,90.34149293193902,1,1.0,True,1.4374017715454102
,2024-06-27 15:46:19,sub_104,3,distance,cathedral,spatial_unmasking,2,98,0,0,_one_,talker-p284_sex-f_text-_one_.wav,p284,f,5,27,6.0,7.0,RX81,6,0.0,0.0,7.0,70.34149293193902,babble-reversed_n13_p318-three-p229-one-p256-eight-p245-five-p248-four-p284-nine.wav,4,RX81,5,0.0,0.0,6.0,89.313683184021,mgb_normalisation,89.31368318402099,90.34149293193902,1,1.0,True,1.1874186992645264
,2024-06-27 15:46:22,sub_104,3,distance,cathedral,spatial_unmasking,2,99,0,0,_one_,talker-p284_sex-f_text-_one_.wav,p284,f,5,28,6.0,7.0,RX81,6,0.0,0.0,7.0,69.34149293193902,babble-reversed_n13_p229-three-p256-one-p307-two-p284-eight-p268-five-p248-nine.wav,4,RX81,5,0.0,0.0,6.0,89.31368318402099,mgb_normalisation,89.31368318402099,90.34149293193902,1,1.0,True,1.2499144077301023
,2024-06-27 15:46:25,sub_104,3,distance,cathedral,spatial_unmasking,2,100,0,0,_two_,talker-p284_sex-f_text-_two_.wav,p284,f,5,29,6.0,7.0,RX81,6,0.0,0.0,7.0,69.34149293193902,babble-reversed_n13_p307-two-p256-four-p318-three-p284-eight-p248-five-p245-nine.wav,4,RX81,5,0.0,0.0,6.0,89.313683184021,mgb_normalisation,89.31368318402099,90.34149293193902,2,2.0,True,0.8749113082885742
,2024-06-27 15:46:29,sub_104,3,distance,cathedral,spatial_unmasking,2,101,0,0,_two_,talker-p284_sex-f_text-_two_.wav,p284,f,5,30,6.0,7.0,RX81,6,0.0,0.0,7.0,68.34149293193902,babble-reversed_n13_p229-nine-p307-five-p256-two-p248-three-p245-one-p268-eight.wav,4,RX81,5,0.0,0.0,6.0,89.31368318402099,mgb_normalisation,89.31368318402099,90.34149293193902,2,2.0,True,1.1874189376831057
,2024-06-27 15:46:33,sub_104,3,distance,cathedral,spatial_unmasking,2,102,0,0,_five_,talker-p284_sex-f_text-_five_.wav,p284,f,5,31,6.0,7.0,RX81,6,0.0,0.0,7.0,68.34149293193902,babble-reversed_n13_p229-one-p318-nine-p256-four-p284-eight-p268-five-p245-two.wav,4,RX81,5,0.0,0.0,6.0,89.31368318402099,mgb_normalisation,89.31368318402099,90.34149293193902,5,5.0,True,1.937368392944336
,2024-06-27 15:46:37,sub_104,3,distance,cathedral,spatial_unmasking,2,103,0,0,_four_,talker-p284_sex-f_text-_four_.wav,p284,f,5,32,6.0,7.0,RX81,6,0.0,0.0,7.0,67.341492931939,babble-reversed_n13_p229-five-p318-three-p307-two-p245-four-p284-nine-p248-eight.wav,4,RX81,5,0.0,0.0,6.0,89.31368318402099,mgb_normalisation,89.31368318402099,90.34149293193902,4,4.0,True,0.999931812286377
,2024-06-27 15:46:40,sub_104,3,distance,cathedral,spatial_unmasking,2,104,0,0,_two_,talker-p284_sex-f_text-_two_.wav,p284,f,5,33,6.0,7.0,RX81,6,0.0,0.0,7.0,67.34149293193903,babble-reversed_n13_p318-five-p229-four-p256-eight-p284-one-p245-three-p248-two.wav,4,RX81,5,0.0,0.0,6.0,89.31368318402099,mgb_normalisation,89.31368318402099,90.34149293193902,2,2.0,True,1.062427043914795
,2024-06-27 15:46:44,sub_104,3,distance,cathedral,spatial_unmasking,2,105,0,0,_three_,talker-p284_sex-f_text-_three_.wav,p284,f,5,34,6.0,7.0,RX81,6,0.0,0.0,7.0,66.34149293193902,babble-reversed_n13_p229-one-p318-eight-p256-three-p268-two-p245-five-p248-nine.wav,4,RX81,5,0.0,0.0,6.0,89.31368318402099,mgb_normalisation,89.31368318402099,90.34149293193902,3,1.0,False,1.8123767375946045
,2024-06-27 15:46:48,sub_104,3,distance,cathedral,spatial_unmasking,2,106,0,0,_one_,talker-p284_sex-f_text-_one_.wav,p284,f,5,35,6.0,7.0,RX81,6,0.0,0.0,7.0,67.34149293193902,babble-reversed_n13_p229-one-p318-eight-p256-three-p268-nine-p248-five-p284-four.wav,4,RX81,5,0.0,0.0,6.0,89.31368318402099,mgb_normalisation,89.31368318402099,90.34149293193902,1,1.0,True,1.249974012374878
,2024-06-27 15:46:55,sub_104,3,distance,cathedral,spatial_unmasking,2,107,0,0,_four_,talker-p284_sex-f_text-_four_.wav,p284,f,5,36,6.0,7.0,RX81,6,0.0,0.0,7.0,67.341492931939,babble-reversed_n13_p256-three-p318-one-p307-two-p284-nine-p268-four-p245-eight.wav,4,RX81,5,0.0,0.0,6.0,89.31368318402099,mgb_normalisation,89.31368318402099,90.34149293193902,4,4.0,True,4.124717473983765
,2024-06-27 15:46:59,sub_104,3,distance,cathedral,spatial_unmasking,2,108,0,0,_four_,talker-p284_sex-f_text-_four_.wav,p284,f,5,37,6.0,7.0,RX81,6,0.0,0.0,7.0,66.34149293193902,babble-reversed_n13_p256-eight-p229-three-p307-nine-p245-five-p248-four-p268-two.wav,4,RX81,5,0.0,0.0,6.0,89.31368318402099,mgb_normalisation,89.31368318402099,90.34149293193902,4,4.0,True,1.999864101409912
,2024-06-27 15:47:03,sub_104,3,distance,cathedral,spatial_unmasking,2,109,0,0,_three_,talker-p284_sex-f_text-_three_.wav,p284,f,5,38,6.0,7.0,RX81,6,0.0,0.0,7.0,66.34149293193902,babble-reversed_n13_p229-nine-p318-one-p307-two-p248-eight-p245-five-p284-four.wav,4,RX81,5,0.0,0.0,6.0,89.31368318402099,mgb_normalisation,89.31368318402099,90.34149293193902,3,3.0,True,1.3124103546142578
,2024-06-27 15:47:06,sub_104,3,distance,cathedral,spatial_unmasking,2,110,0,0,_one_,talker-p284_sex-f_text-_one_.wav,p284,f,5,39,6.0,7.0,RX81,6,0.0,0.0,7.0,65.34149293193902,babble-reversed_n13_p229-three-p307-one-p318-two-p245-eight-p268-five-p284-four.wav,4,RX81,5,0.0,0.0,6.0,89.31368318402099,mgb_normalisation,89.31368318402099,90.34149293193902,1,1.0,True,1.0624265670776367
,2024-06-27 15:47:12,sub_104,3,distance,cathedral,spatial_unmasking,2,111,0,0,_one_,talker-p284_sex-f_text-_one_.wav,p284,f,5,40,6.0,7.0,RX81,6,0.0,0.0,7.0,65.34149293193902,babble-reversed_n13_p307-five-p229-two-p318-four-p248-three-p245-nine-p268-eight.wav,4,RX81,5,0.0,0.0,6.0,89.31368318402099,mgb_normalisation,89.31368318402099,90.34149293193902,1,5.0,False,3.124763965606689
,2024-06-27 15:47:15,sub_104,3,distance,cathedral,spatial_unmasking,2,112,0,0,_one_,talker-p284_sex-f_text-_one_.wav,p284,f,5,41,6.0,7.0,RX81,6,0.0,0.0,7.0,66.34149293193902,babble-reversed_n13_p256-eight-p318-two-p307-five-p245-four-p268-nine-p284-one.wav,4,RX81,5,0.0,0.0,6.0,89.31368318402099,mgb_normalisation,89.31368318402099,90.34149293193902,1,1.0,True,1.1874184608459473
,2024-06-27 15:47:19,sub_104,3,distance,cathedral,spatial_unmasking,2,113,0,0,_four_,talker-p284_sex-f_text-_four_.wav,p284,f,5,42,6.0,7.0,RX81,6,0.0,0.0,7.0,66.34149293193902,babble-reversed_n13_p229-five-p256-three-p318-nine-p248-two-p284-four-p268-one.wav,4,RX81,5,0.0,0.0,6.0,89.313683184021,mgb_normalisation,89.31368318402099,90.34149293193902,4,4.0,True,1.437401294708252
,2024-06-27 15:47:24,sub_104,3,distance,cathedral,spatial_unmasking,2,114,0,0,_four_,talker-p284_sex-f_text-_four_.wav,p284,f,5,43,6.0,7.0,RX81,6,0.0,0.0,7.0,65.341492931939,babble-reversed_n13_p229-one-p318-eight-p256-three-p268-nine-p248-five-p284-four.wav,4,RX81,5,0.0,0.0,6.0,89.31368318402099,mgb_normalisation,89.31368318402099,90.34149293193902,4,1.0,False,2.499829053878784
,2024-06-27 15:47:29,sub_104,3,distance,cathedral,spatial_unmasking,2,115,0,0,_one_,talker-p284_sex-f_text-_one_.wav,p284,f,5,44,6.0,7.0,RX81,6,0.0,0.0,7.0,66.34149293193902,babble-reversed_n13_p307-two-p229-one-p256-five-p248-nine-p284-three-p268-eight.wav,4,RX81,5,0.0,0.0,6.0,89.313683184021,mgb_normalisation,89.31368318402099,90.34149293193902,1,3.0,False,2.999795436859131
,2024-06-27 15:47:33,sub_104,3,distance,cathedral,spatial_unmasking,2,116,0,0,_one_,talker-p284_sex-f_text-_one_.wav,p284,f,5,45,6.0,7.0,RX81,6,0.0,0.0,7.0,67.34149293193902,babble-reversed_n13_p229-five-p256-three-p318-nine-p248-two-p284-four-p268-one.wav,4,RX81,5,0.0,0.0,6.0,89.313683184021,mgb_normalisation,89.31368318402099,90.34149293193902,1,4.0,False,0.9373743534088136
,2024-06-27 15:47:37,sub_104,3,distance,cathedral,spatial_unmasking,2,117,0,0,_two_,talker-p284_sex-f_text-_two_.wav,p284,f,5,46,6.0,7.0,RX81,6,0.0,0.0,7.0,68.34149293193902,babble-reversed_n13_p307-nine-p318-two-p256-one-p245-three-p268-four-p248-eight.wav,4,RX81,5,0.0,0.0,6.0,89.31368318402099,mgb_normalisation,89.31368318402099,90.34149293193902,2,2.0,True,2.0623583793640137
,2024-06-27 15:47:41,sub_104,3,distance,cathedral,spatial_unmasking,2,118,0,0,_one_,talker-p284_sex-f_text-_one_.wav,p284,f,5,47,6.0,7.0,RX81,6,0.0,0.0,7.0,68.34149293193902,babble-reversed_n13_p229-five-p256-one-p318-three-p248-nine-p268-four-p284-eight.wav,4,RX81,5,0.0,0.0,6.0,89.31368318402099,mgb_normalisation,89.31368318402099,90.34149293193902,1,4.0,False,1.5624220371246338
,2024-06-27 15:47:45,sub_104,3,distance,cathedral,spatial_unmasking,2,119,0,0,_five_,talker-p284_sex-f_text-_five_.wav,p284,f,5,48,6.0,7.0,RX81,6,0.0,0.0,7.0,69.34149293193902,babble-reversed_n13_p229-five-p318-two-p307-eight-p268-three-p248-four-p245-one.wav,4,RX81,5,0.0,0.0,6.0,89.313683184021,mgb_normalisation,89.31368318402099,90.34149293193902,5,1.0,False,2.0622923374176025
,2024-06-27 15:47:49,sub_104,3,distance,cathedral,spatial_unmasking,2,120,0,0,_five_,talker-p284_sex-f_text-_five_.wav,p284,f,5,49,6.0,7.0,RX81,6,0.0,0.0,7.0,70.34149293193902,babble-reversed_n13_p256-two-p307-five-p318-nine-p248-eight-p245-four-p284-one.wav,4,RX81,5,0.0,0.0,6.0,89.31368318402099,mgb_normalisation,89.31368318402099,90.34149293193902,5,5.0,True,1.1249234676361084
,2024-06-27 15:47:54,sub_104,3,distance,cathedral,spatial_unmasking,2,121,0,0,_five_,talker-p284_sex-f_text-_five_.wav,p284,f,5,50,6.0,7.0,RX81,6,0.0,0.0,7.0,70.34149293193902,babble-reversed_n13_p229-three-p307-one-p318-two-p245-eight-p268-five-p284-four.wav,4,RX81,5,0.0,0.0,6.0,89.31368318402099,mgb_normalisation,89.31368318402099,90.34149293193902,5,5.0,True,2.437333583831787
,2024-06-27 15:47:58,sub_104,3,distance,cathedral,spatial_unmasking,2,122,0,0,_five_,talker-p284_sex-f_text-_five_.wav,p284,f,5,51,6.0,7.0,RX81,6,0.0,0.0,7.0,69.34149293193902,babble-reversed_n13_p256-four-p307-eight-p318-two-p248-three-p284-nine-p268-one.wav,4,RX81,5,0.0,0.0,6.0,89.313683184021,mgb_normalisation,89.31368318402099,90.34149293193902,5,1.0,False,2.2498464584350586
,2024-06-27 15:48:03,sub_104,3,distance,cathedral,spatial_unmasking,2,123,0,0,_three_,talker-p284_sex-f_text-_three_.wav,p284,f,5,52,6.0,7.0,RX81,6,0.0,0.0,7.0,70.34149293193903,babble-reversed_n13_p318-nine-p307-eight-p229-two-p284-one-p248-three-p245-five.wav,4,RX81,5,0.0,0.0,6.0,89.31368318402099,mgb_normalisation,89.31368318402099,90.34149293193902,3,3.0,True,1.749819278717041
,2024-06-27 15:48:09,sub_104,3,distance,cathedral,spatial_unmasking,2,124,0,0,_one_,talker-p284_sex-f_text-_one_.wav,p284,f,5,53,6.0,7.0,RX81,6,0.0,0.0,7.0,70.34149293193902,babble-reversed_n13_p318-five-p256-nine-p307-eight-p248-two-p245-four-p284-three.wav,4,RX81,5,0.0,0.0,6.0,89.31368318402099,mgb_normalisation,89.31368318402099,90.34149293193902,1,1.0,True,3.687247514724731
,2024-06-27 15:48:15,sub_104,3,distance,cathedral,spatial_unmasking,2,125,0,0,_four_,talker-p284_sex-f_text-_four_.wav,p284,f,5,54,6.0,7.0,RX81,6,0.0,0.0,7.0,69.341492931939,babble-reversed_n13_p256-four-p229-eight-p307-five-p248-three-p245-one-p284-two.wav,4,RX81,5,0.0,0.0,6.0,89.31368318402099,mgb_normalisation,89.31368318402099,90.34149293193902,4,3.0,False,4.140340566635132
,2024-06-27 15:48:19,sub_104,3,distance,cathedral,spatial_unmasking,2,126,0,0,_two_,talker-p284_sex-f_text-_two_.wav,p284,f,5,55,6.0,7.0,RX81,6,0.0,0.0,7.0,70.34149293193903,babble-reversed_n13_p318-three-p307-one-p256-five-p248-nine-p245-two-p284-eight.wav,4,RX81,5,0.0,0.0,6.0,89.31368318402099,mgb_normalisation,89.31368318402099,90.34149293193902,2,2.0,True,0.9999344348907472
,2024-06-27 15:48:22,sub_104,3,distance,cathedral,spatial_unmasking,2,127,0,0,_four_,talker-p284_sex-f_text-_four_.wav,p284,f,5,56,6.0,7.0,RX81,6,0.0,0.0,7.0,70.341492931939,babble-reversed_n13_p229-one-p318-eight-p256-three-p268-nine-p248-five-p284-four.wav,4,RX81,5,0.0,0.0,6.0,89.31368318402099,mgb_normalisation,89.31368318402099,90.34149293193902,4,4.0,True,0.9999313354492188
,2024-06-27 15:54:42,sub_104,3,distance,cathedral,spatial_unmasking,3,128,0,0,_two_,talker-p284_sex-f_text-_two_.wav,p284,f,5,1,4.0,7.0,RX81,6,0.0,0.0,7.0,92.34149293193902,babble-reversed_n13_p229-one-p318-eight-p256-three-p268-nine-p248-five-p284-four.wav,2,RX81,3,0.0,0.0,4.0,87.57049330475357,mgb_normalisation,87.57049330475357,90.34149293193902,2,2.0,True,2.249854803085327
,2024-06-27 15:54:46,sub_104,3,distance,cathedral,spatial_unmasking,3,129,0,0,_five_,talker-p284_sex-f_text-_five_.wav,p284,f,5,2,4.0,7.0,RX81,6,0.0,0.0,7.0,88.34149293193902,babble-reversed_n13_p318-nine-p307-eight-p229-two-p284-one-p248-three-p245-five.wav,2,RX81,3,0.0,0.0,4.0,87.57049330475357,mgb_normalisation,87.57049330475357,90.34149293193902,5,5.0,True,1.3748466968536377
,2024-06-27 15:54:50,sub_104,3,distance,cathedral,spatial_unmasking,3,130,0,0,_three_,talker-p284_sex-f_text-_three_.wav,p284,f,5,3,4.0,7.0,RX81,6,0.0,0.0,7.0,84.34149293193903,babble-reversed_n13_p307-nine-p229-one-p256-eight-p248-four-p284-two-p268-three.wav,2,RX81,3,0.0,0.0,4.0,87.57049330475357,mgb_normalisation,87.57049330475357,90.34149293193902,3,3.0,True,1.3748886585235596
,2024-06-27 15:54:54,sub_104,3,distance,cathedral,spatial_unmasking,3,131,0,0,_five_,talker-p284_sex-f_text-_five_.wav,p284,f,5,4,4.0,7.0,RX81,6,0.0,0.0,7.0,80.34149293193903,babble-reversed_n13_p229-nine-p318-one-p307-two-p248-eight-p245-five-p284-four.wav,2,RX81,3,0.0,0.0,4.0,87.57049330475357,mgb_normalisation,87.57049330475357,90.34149293193902,5,5.0,True,1.6248891353607178
,2024-06-27 15:54:58,sub_104,3,distance,cathedral,spatial_unmasking,3,132,0,0,_one_,talker-p284_sex-f_text-_one_.wav,p284,f,5,5,4.0,7.0,RX81,6,0.0,0.0,7.0,76.34149293193902,babble-reversed_n13_p256-five-p229-one-p318-three-p248-nine-p284-eight-p268-two.wav,2,RX81,3,0.0,0.0,4.0,87.57049330475357,mgb_normalisation,87.57049330475357,90.34149293193902,1,1.0,True,1.687385082244873
,2024-06-27 15:55:02,sub_104,3,distance,cathedral,spatial_unmasking,3,133,0,0,_three_,talker-p284_sex-f_text-_three_.wav,p284,f,5,6,4.0,7.0,RX81,6,0.0,0.0,7.0,72.34149293193903,babble-reversed_n13_p318-three-p229-one-p256-eight-p245-five-p248-four-p284-nine.wav,2,RX81,3,0.0,0.0,4.0,87.57049330475357,mgb_normalisation,87.57049330475357,90.34149293193902,3,3.0,True,1.5623931884765625
,2024-06-27 15:55:07,sub_104,3,distance,cathedral,spatial_unmasking,3,134,0,0,_five_,talker-p284_sex-f_text-_five_.wav,p284,f,5,7,4.0,7.0,RX81,6,0.0,0.0,7.0,68.34149293193902,babble-reversed_n13_p229-three-p256-nine-p318-five-p248-one-p245-eight-p284-two.wav,2,RX81,3,0.0,0.0,4.0,87.57049330475357,mgb_normalisation,87.57049330475357,90.34149293193902,5,1.0,False,2.3627359867095947
,2024-06-27 15:55:11,sub_104,3,distance,cathedral,spatial_unmasking,3,135,0,0,_two_,talker-p284_sex-f_text-_two_.wav,p284,f,5,8,4.0,7.0,RX81,6,0.0,0.0,7.0,70.34149293193903,babble-reversed_n13_p256-eight-p318-two-p307-five-p245-four-p268-nine-p284-one.wav,2,RX81,3,0.0,0.0,4.0,87.57049330475357,mgb_normalisation,87.57049330475357,90.34149293193902,2,2.0,True,1.8748714923858645
,2024-06-27 15:55:15,sub_104,3,distance,cathedral,spatial_unmasking,3,136,0,0,_two_,talker-p284_sex-f_text-_two_.wav,p284,f,5,9,4.0,7.0,RX81,6,0.0,0.0,7.0,70.34149293193903,babble-reversed_n13_p307-nine-p229-one-p256-eight-p248-four-p284-two-p268-three.wav,2,RX81,3,0.0,0.0,4.0,87.57049330475357,mgb_normalisation,87.57049330475357,90.34149293193902,2,3.0,False,2.0623581409454346
,2024-06-27 15:55:20,sub_104,3,distance,cathedral,spatial_unmasking,3,137,0,0,_five_,talker-p284_sex-f_text-_five_.wav,p284,f,5,10,4.0,7.0,RX81,6,0.0,0.0,7.0,72.34149293193902,babble-reversed_n13_p229-three-p307-one-p318-two-p245-eight-p268-five-p284-four.wav,2,RX81,3,0.0,0.0,4.0,87.57049330475357,mgb_normalisation,87.57049330475357,90.34149293193902,5,5.0,True,2.1248550415039062
,2024-06-27 15:55:25,sub_104,3,distance,cathedral,spatial_unmasking,3,138,0,0,_five_,talker-p284_sex-f_text-_five_.wav,p284,f,5,11,4.0,7.0,RX81,6,0.0,0.0,7.0,72.34149293193902,babble-reversed_n13_p318-one-p307-two-p256-eight-p284-three-p248-five-p245-four.wav,2,RX81,3,0.0,0.0,4.0,87.57049330475357,mgb_normalisation,87.57049330475357,90.34149293193902,5,5.0,True,2.249844551086426
,2024-06-27 15:55:28,sub_104,3,distance,cathedral,spatial_unmasking,3,139,0,0,_two_,talker-p284_sex-f_text-_two_.wav,p284,f,5,12,4.0,7.0,RX81,6,0.0,0.0,7.0,70.34149293193903,babble-reversed_n13_p229-three-p256-one-p307-two-p284-eight-p268-five-p248-nine.wav,2,RX81,3,0.0,0.0,4.0,87.57049330475357,mgb_normalisation,87.57049330475357,90.34149293193902,2,2.0,True,1.3749065399169922
,2024-06-27 15:55:33,sub_104,3,distance,cathedral,spatial_unmasking,3,140,0,0,_three_,talker-p284_sex-f_text-_three_.wav,p284,f,5,13,4.0,7.0,RX81,6,0.0,0.0,7.0,70.34149293193903,babble-reversed_n13_p307-five-p229-two-p318-four-p248-three-p245-nine-p268-eight.wav,2,RX81,3,0.0,0.0,4.0,87.57049330475355,mgb_normalisation,87.57049330475357,90.34149293193902,3,3.0,True,2.562262535095215
,2024-06-27 15:55:37,sub_104,3,distance,cathedral,spatial_unmasking,3,141,0,0,_five_,talker-p284_sex-f_text-_five_.wav,p284,f,5,14,4.0,7.0,RX81,6,0.0,0.0,7.0,68.34149293193902,babble-reversed_n13_p229-three-p307-one-p318-two-p245-eight-p268-five-p284-four.wav,2,RX81,3,0.0,0.0,4.0,87.57049330475357,mgb_normalisation,87.57049330475357,90.34149293193902,5,4.0,False,1.312412977218628
,2024-06-27 15:55:40,sub_104,3,distance,cathedral,spatial_unmasking,3,142,0,0,_two_,talker-p284_sex-f_text-_two_.wav,p284,f,5,15,4.0,7.0,RX81,6,0.0,0.0,7.0,69.34149293193902,babble-reversed_n13_p318-nine-p256-five-p307-eight-p268-three-p248-one-p245-four.wav,2,RX81,3,0.0,0.0,4.0,87.57049330475357,mgb_normalisation,87.57049330475357,90.34149293193902,2,2.0,True,1.1249234676361084
,2024-06-27 15:55:45,sub_104,3,distance,cathedral,spatial_unmasking,3,143,0,0,_two_,talker-p284_sex-f_text-_two_.wav,p284,f,5,16,4.0,7.0,RX81,6,0.0,0.0,7.0,69.34149293193902,babble-reversed_n13_p256-five-p307-nine-p318-three-p284-eight-p268-one-p248-two.wav,2,RX81,3,0.0,0.0,4.0,87.57049330475357,mgb_normalisation,87.57049330475357,90.34149293193902,2,1.0,False,2.562324047088623
,2024-06-27 15:55:49,sub_104,3,distance,cathedral,spatial_unmasking,3,144,0,0,_four_,talker-p284_sex-f_text-_four_.wav,p284,f,5,17,4.0,7.0,RX81,6,0.0,0.0,7.0,70.341492931939,babble-reversed_n13_p229-two-p256-three-p318-eight-p284-five-p268-four-p245-one.wav,2,RX81,3,0.0,0.0,4.0,87.57049330475357,mgb_normalisation,87.57049330475357,90.34149293193902,4,4.0,True,1.687384843826294
,2024-06-27 15:55:53,sub_104,3,distance,cathedral,spatial_unmasking,3,145,0,0,_five_,talker-p284_sex-f_text-_five_.wav,p284,f,5,18,4.0,7.0,RX81,6,0.0,0.0,7.0,70.34149293193902,babble-reversed_n13_p229-two-p256-three-p318-eight-p284-five-p268-four-p245-one.wav,2,RX81,3,0.0,0.0,4.0,87.57049330475357,mgb_normalisation,87.57049330475357,90.34149293193902,5,5.0,True,1.5623936653137207
,2024-06-27 15:55:59,sub_104,3,distance,cathedral,spatial_unmasking,3,146,0,0,_five_,talker-p284_sex-f_text-_five_.wav,p284,f,5,19,4.0,7.0,RX81,6,0.0,0.0,7.0,69.34149293193902,babble-reversed_n13_p229-nine-p256-four-p318-three-p268-eight-p248-two-p284-five.wav,2,RX81,3,0.0,0.0,4.0,87.57049330475357,mgb_normalisation,87.57049330475357,90.34149293193902,5,2.0,False,2.687318086624145
,2024-06-27 15:56:03,sub_104,3,distance,cathedral,spatial_unmasking,3,147,0,0,_three_,talker-p284_sex-f_text-_three_.wav,p284,f,5,20,4.0,7.0,RX81,6,0.0,0.0,7.0,70.34149293193903,babble-reversed_n13_p256-five-p307-nine-p318-three-p284-eight-p268-one-p248-two.wav,2,RX81,3,0.0,0.0,4.0,87.57049330475357,mgb_normalisation,87.57049330475357,90.34149293193902,3,3.0,True,1.999863862991333
,2024-06-27 15:56:06,sub_104,3,distance,cathedral,spatial_unmasking,3,148,0,0,_one_,talker-p284_sex-f_text-_one_.wav,p284,f,5,21,4.0,7.0,RX81,6,0.0,0.0,7.0,70.34149293193902,babble-reversed_n13_p229-one-p318-eight-p256-three-p268-nine-p248-five-p284-four.wav,2,RX81,3,0.0,0.0,4.0,87.57049330475357,mgb_normalisation,87.57049330475357,90.34149293193902,1,1.0,True,1.062427997589111
,2024-06-27 15:56:10,sub_104,3,distance,cathedral,spatial_unmasking,3,149,0,0,_one_,talker-p284_sex-f_text-_one_.wav,p284,f,5,22,4.0,7.0,RX81,6,0.0,0.0,7.0,69.34149293193902,babble-reversed_n13_p318-nine-p256-five-p307-eight-p268-three-p248-one-p245-four.wav,2,RX81,3,0.0,0.0,4.0,87.57049330475357,mgb_normalisation,87.57049330475357,90.34149293193902,1,4.0,False,1.687384843826294
,2024-06-27 15:56:14,sub_104,3,distance,cathedral,spatial_unmasking,3,150,0,0,_one_,talker-p284_sex-f_text-_one_.wav,p284,f,5,23,4.0,7.0,RX81,6,0.0,0.0,7.0,70.34149293193902,babble-reversed_n13_p318-four-p256-five-p229-three-p284-one-p245-eight-p248-nine.wav,2,RX81,3,0.0,0.0,4.0,87.57049330475357,mgb_normalisation,87.57049330475357,90.34149293193902,1,5.0,False,1.2498893737792969
,2024-06-27 15:56:19,sub_104,3,distance,cathedral,spatial_unmasking,3,151,0,0,_one_,talker-p284_sex-f_text-_one_.wav,p284,f,5,24,4.0,7.0,RX81,6,0.0,0.0,7.0,71.34149293193902,babble-reversed_n13_p229-two-p318-eight-p256-three-p268-one-p248-nine-p284-five.wav,2,RX81,3,0.0,0.0,4.0,87.57049330475355,mgb_normalisation,87.57049330475357,90.34149293193902,1,4.0,False,2.937299489974976
,2024-06-27 15:56:25,sub_104,3,distance,cathedral,spatial_unmasking,3,152,0,0,_four_,talker-p284_sex-f_text-_four_.wav,p284,f,5,25,4.0,7.0,RX81,6,0.0,0.0,7.0,72.341492931939,babble-reversed_n13_p307-two-p256-four-p318-three-p284-eight-p248-five-p245-nine.wav,2,RX81,3,0.0,0.0,4.0,87.57049330475357,mgb_normalisation,87.57049330475357,90.34149293193902,4,3.0,False,3.1872568130493164
,2024-06-27 15:56:29,sub_104,3,distance,cathedral,spatial_unmasking,3,153,0,0,_five_,talker-p284_sex-f_text-_five_.wav,p284,f,5,26,4.0,7.0,RX81,6,0.0,0.0,7.0,73.34149293193902,babble-reversed_n13_p229-one-p318-eight-p256-three-p268-nine-p248-five-p284-four.wav,2,RX81,3,0.0,0.0,4.0,87.57049330475357,mgb_normalisation,87.57049330475357,90.34149293193902,5,5.0,True,1.5623924732208252
,2024-06-27 15:56:34,sub_104,3,distance,cathedral,spatial_unmasking,3,154,0,0,_four_,talker-p284_sex-f_text-_four_.wav,p284,f,5,27,4.0,7.0,RX81,6,0.0,0.0,7.0,73.34149293193902,babble-reversed_n13_p307-two-p229-one-p256-five-p248-nine-p284-three-p268-eight.wav,2,RX81,3,0.0,0.0,4.0,87.57049330475357,mgb_normalisation,87.57049330475357,90.34149293193902,4,2.0,False,2.374837636947632
,2024-06-27 15:56:37,sub_104,3,distance,cathedral,spatial_unmasking,3,155,0,0,_three_,talker-p284_sex-f_text-_three_.wav,p284,f,5,28,4.0,7.0,RX81,6,0.0,0.0,7.0,74.34149293193903,babble-reversed_n13_p256-four-p229-eight-p307-five-p248-three-p245-one-p284-two.wav,2,RX81,3,0.0,0.0,4.0,87.57049330475355,mgb_normalisation,87.57049330475357,90.34149293193902,3,3.0,True,1.4373741149902344
,2024-06-27 15:56:41,sub_104,3,distance,cathedral,spatial_unmasking,3,156,0,0,_two_,talker-p284_sex-f_text-_two_.wav,p284,f,5,29,4.0,7.0,RX81,6,0.0,0.0,7.0,74.34149293193902,babble-reversed_n13_p229-two-p256-three-p318-eight-p284-five-p268-four-p245-one.wav,2,RX81,3,0.0,0.0,4.0,87.57049330475357,mgb_normalisation,87.57049330475357,90.34149293193902,2,2.0,True,0.9999771118164062
,2024-06-27 15:56:45,sub_104,3,distance,cathedral,spatial_unmasking,3,157,0,0,_one_,talker-p284_sex-f_text-_one_.wav,p284,f,5,30,4.0,7.0,RX81,6,0.0,0.0,7.0,73.34149293193902,babble-reversed_n13_p229-one-p318-eight-p256-three-p268-nine-p248-five-p284-four.wav,2,RX81,3,0.0,0.0,4.0,87.57049330475357,mgb_normalisation,87.57049330475357,90.34149293193902,1,1.0,True,1.2498602867126465
,2024-06-27 15:56:49,sub_104,3,distance,cathedral,spatial_unmasking,3,158,0,0,_one_,talker-p284_sex-f_text-_one_.wav,p284,f,5,31,4.0,7.0,RX81,6,0.0,0.0,7.0,73.34149293193902,babble-reversed_n13_p318-three-p307-one-p256-five-p248-nine-p245-two-p284-eight.wav,2,RX81,3,0.0,0.0,4.0,87.57049330475357,mgb_normalisation,87.57049330475357,90.34149293193902,1,3.0,False,1.8748729228973389
,2024-06-27 15:56:52,sub_104,3,distance,cathedral,spatial_unmasking,3,159,0,0,_one_,talker-p284_sex-f_text-_one_.wav,p284,f,5,32,4.0,7.0,RX81,6,0.0,0.0,7.0,74.34149293193902,babble-reversed_n13_p256-eight-p318-five-p307-four-p245-three-p268-one-p284-nine.wav,2,RX81,3,0.0,0.0,4.0,87.57049330475355,mgb_normalisation,87.57049330475357,90.34149293193902,1,1.0,True,0.9374349117279052
,2024-06-27 15:56:56,sub_104,3,distance,cathedral,spatial_unmasking,3,160,0,0,_three_,talker-p284_sex-f_text-_three_.wav,p284,f,5,33,4.0,7.0,RX81,6,0.0,0.0,7.0,74.34149293193903,babble-reversed_n13_p229-eight-p256-nine-p318-four-p245-three-p268-five-p284-two.wav,2,RX81,3,0.0,0.0,4.0,87.57049330475355,mgb_normalisation,87.57049330475357,90.34149293193902,3,4.0,False,1.249906301498413
,2024-06-27 15:56:59,sub_104,3,distance,cathedral,spatial_unmasking,3,161,0,0,_three_,talker-p284_sex-f_text-_three_.wav,p284,f,5,34,4.0,7.0,RX81,6,0.0,0.0,7.0,75.34149293193903,babble-reversed_n13_p229-two-p256-three-p318-eight-p284-five-p268-four-p245-one.wav,2,RX81,3,0.0,0.0,4.0,87.57049330475357,mgb_normalisation,87.57049330475357,90.34149293193902,3,3.0,True,1.312410831451416
,2024-06-27 15:57:05,sub_104,3,distance,cathedral,spatial_unmasking,3,162,0,0,_three_,talker-p284_sex-f_text-_three_.wav,p284,f,5,35,4.0,7.0,RX81,6,0.0,0.0,7.0,75.34149293193903,babble-reversed_n13_p256-four-p229-two-p318-five-p268-one-p248-eight-p245-three.wav,2,RX81,3,0.0,0.0,4.0,87.57049330475355,mgb_normalisation,87.57049330475357,90.34149293193902,3,3.0,True,3.062290906906128
,2024-06-27 15:57:08,sub_104,3,distance,cathedral,spatial_unmasking,3,163,0,0,_five_,talker-p284_sex-f_text-_five_.wav,p284,f,5,36,4.0,7.0,RX81,6,0.0,0.0,7.0,74.34149293193902,babble-reversed_n13_p256-eight-p318-five-p307-four-p245-three-p268-one-p284-nine.wav,2,RX81,3,0.0,0.0,4.0,87.57049330475355,mgb_normalisation,87.57049330475357,90.34149293193902,5,5.0,True,1.1249232292175293
,2024-06-27 15:57:12,sub_104,3,distance,cathedral,spatial_unmasking,3,164,0,0,_two_,talker-p284_sex-f_text-_two_.wav,p284,f,5,37,4.0,7.0,RX81,6,0.0,0.0,7.0,74.34149293193902,babble-reversed_n13_p229-five-p256-three-p318-nine-p248-two-p284-four-p268-one.wav,2,RX81,3,0.0,0.0,4.0,87.57049330475357,mgb_normalisation,87.57049330475357,90.34149293193902,2,2.0,True,1.124922275543213
,2024-06-27 15:57:16,sub_104,3,distance,cathedral,spatial_unmasking,3,165,0,0,_four_,talker-p284_sex-f_text-_four_.wav,p284,f,5,38,4.0,7.0,RX81,6,0.0,0.0,7.0,73.34149293193902,babble-reversed_n13_p229-nine-p256-four-p318-three-p268-eight-p248-two-p284-five.wav,2,RX81,3,0.0,0.0,4.0,87.57049330475357,mgb_normalisation,87.57049330475357,90.34149293193902,4,4.0,True,2.062359571456909
,2024-06-27 15:57:20,sub_104,3,distance,cathedral,spatial_unmasking,3,166,0,0,_four_,talker-p284_sex-f_text-_four_.wav,p284,f,5,39,4.0,7.0,RX81,6,0.0,0.0,7.0,73.34149293193902,babble-reversed_n13_p256-four-p307-eight-p318-two-p248-three-p284-nine-p268-one.wav,2,RX81,3,0.0,0.0,4.0,87.57049330475357,mgb_normalisation,87.57049330475357,90.34149293193902,4,1.0,False,1.1249220371246338
,2024-06-27 15:57:25,sub_104,3,distance,cathedral,spatial_unmasking,3,167,0,0,_one_,talker-p284_sex-f_text-_one_.wav,p284,f,5,40,4.0,7.0,RX81,6,0.0,0.0,7.0,74.34149293193902,babble-reversed_n13_p229-three-p256-nine-p318-five-p248-one-p245-eight-p284-two.wav,2,RX81,3,0.0,0.0,4.0,87.57049330475357,mgb_normalisation,87.57049330475357,90.34149293193902,1,5.0,False,3.062291383743286
,2024-06-27 15:57:29,sub_104,3,distance,cathedral,spatial_unmasking,3,168,0,0,_two_,talker-p284_sex-f_text-_two_.wav,p284,f,5,41,4.0,7.0,RX81,6,0.0,0.0,7.0,75.34149293193903,babble-reversed_n13_p318-one-p307-two-p256-eight-p284-three-p248-five-p245-four.wav,2,RX81,3,0.0,0.0,4.0,87.57049330475357,mgb_normalisation,87.57049330475357,90.34149293193902,2,2.0,True,1.1249232292175293
,2024-06-27 15:57:32,sub_104,3,distance,cathedral,spatial_unmasking,3,169,0,0,_one_,talker-p284_sex-f_text-_one_.wav,p284,f,5,42,4.0,7.0,RX81,6,0.0,0.0,7.0,75.34149293193902,babble-reversed_n13_p229-eight-p256-nine-p318-four-p245-three-p268-five-p284-two.wav,2,RX81,3,0.0,0.0,4.0,87.57049330475355,mgb_normalisation,87.57049330475357,90.34149293193902,1,1.0,True,0.9374372959136964
,2024-06-27 15:57:37,sub_104,3,distance,cathedral,spatial_unmasking,3,170,0,0,_one_,talker-p284_sex-f_text-_one_.wav,p284,f,5,43,4.0,7.0,RX81,6,0.0,0.0,7.0,74.34149293193902,babble-reversed_n13_p307-two-p229-one-p256-five-p248-nine-p284-three-p268-eight.wav,2,RX81,3,0.0,0.0,4.0,87.57049330475357,mgb_normalisation,87.57049330475357,90.34149293193902,1,4.0,False,2.3123183250427246
,2024-06-27 15:57:42,sub_104,3,distance,cathedral,spatial_unmasking,3,171,0,0,_three_,talker-p284_sex-f_text-_three_.wav,p284,f,5,44,4.0,7.0,RX81,6,0.0,0.0,7.0,75.34149293193903,babble-reversed_n13_p318-three-p229-one-p256-eight-p245-five-p248-four-p284-nine.wav,2,RX81,3,0.0,0.0,4.0,87.57049330475357,mgb_normalisation,87.57049330475357,90.34149293193902,3,3.0,True,2.3748223781585693
,2024-06-27 15:57:45,sub_104,3,distance,cathedral,spatial_unmasking,3,172,0,0,_one_,talker-p284_sex-f_text-_one_.wav,p284,f,5,45,4.0,7.0,RX81,6,0.0,0.0,7.0,75.34149293193902,babble-reversed_n13_p229-three-p307-one-p318-two-p245-eight-p268-five-p284-four.wav,2,RX81,3,0.0,0.0,4.0,87.57049330475357,mgb_normalisation,87.57049330475357,90.34149293193902,1,1.0,True,0.999931573867798
,2024-06-27 15:57:49,sub_104,3,distance,cathedral,spatial_unmasking,3,173,0,0,_four_,talker-p284_sex-f_text-_four_.wav,p284,f,5,46,4.0,7.0,RX81,6,0.0,0.0,7.0,74.341492931939,babble-reversed_n13_p229-eight-p256-nine-p318-four-p245-three-p268-five-p284-two.wav,2,RX81,3,0.0,0.0,4.0,87.57049330475355,mgb_normalisation,87.57049330475357,90.34149293193902,4,3.0,False,1.4998531341552734
,2024-06-27 15:57:53,sub_104,3,distance,cathedral,spatial_unmasking,3,174,0,0,_two_,talker-p284_sex-f_text-_two_.wav,p284,f,5,47,4.0,7.0,RX81,6,0.0,0.0,7.0,75.34149293193903,babble-reversed_n13_p229-one-p318-eight-p256-three-p268-nine-p248-five-p284-four.wav,2,RX81,3,0.0,0.0,4.0,87.57049330475357,mgb_normalisation,87.57049330475357,90.34149293193902,2,2.0,True,1.312410593032837
,2024-06-27 15:57:56,sub_104,3,distance,cathedral,spatial_unmasking,3,175,0,0,_three_,talker-p284_sex-f_text-_three_.wav,p284,f,5,48,4.0,7.0,RX81,6,0.0,0.0,7.0,75.34149293193903,babble-reversed_n13_p307-four-p318-three-p256-eight-p284-two-p245-nine-p248-five.wav,2,RX81,3,0.0,0.0,4.0,87.57049330475355,mgb_normalisation,87.57049330475357,90.34149293193902,3,3.0,True,1.1874172687530518
,2024-06-27 15:59:10,sub_104,3,distance,cathedral,spatial_unmasking,4,176,0,0,_four_,talker-p284_sex-f_text-_four_.wav,p284,f,5,1,8.0,7.0,RX81,6,0.0,0.0,7.0,92.34149293193902,babble-reversed_n13_p256-three-p318-one-p307-two-p284-nine-p268-four-p245-eight.wav,6,RX81,7,0.0,0.0,8.0,91.58892582949888,mgb_normalisation,91.58892582949886,90.34149293193902,4,4.0,True,2.7498116493225098
,2024-06-27 15:59:13,sub_104,3,distance,cathedral,spatial_unmasking,4,177,0,0,_one_,talker-p284_sex-f_text-_one_.wav,p284,f,5,2,8.0,7.0,RX81,6,0.0,0.0,7.0,88.34149293193902,babble-reversed_n13_p307-two-p229-one-p256-five-p248-nine-p284-three-p268-eight.wav,6,RX81,7,0.0,0.0,8.0,91.58892582949888,mgb_normalisation,91.58892582949886,90.34149293193902,1,1.0,True,1.3124103546142578
,2024-06-27 15:59:17,sub_104,3,distance,cathedral,spatial_unmasking,4,178,0,0,_five_,talker-p284_sex-f_text-_five_.wav,p284,f,5,3,8.0,7.0,RX81,6,0.0,0.0,7.0,84.341492931939,babble-reversed_n13_p318-four-p256-five-p229-three-p284-one-p245-eight-p248-nine.wav,6,RX81,7,0.0,0.0,8.0,91.58892582949888,mgb_normalisation,91.58892582949886,90.34149293193902,5,5.0,True,0.8749585151672363
,2024-06-27 15:59:20,sub_104,3,distance,cathedral,spatial_unmasking,4,179,0,0,_two_,talker-p284_sex-f_text-_two_.wav,p284,f,5,4,8.0,7.0,RX81,6,0.0,0.0,7.0,80.34149293193903,babble-reversed_n13_p256-three-p318-two-p229-nine-p248-four-p284-one-p268-eight.wav,6,RX81,7,0.0,0.0,8.0,91.58892582949886,mgb_normalisation,91.58892582949886,90.34149293193902,2,2.0,True,1.1248865127563477
,2024-06-27 15:59:25,sub_104,3,distance,cathedral,spatial_unmasking,4,180,0,0,_five_,talker-p284_sex-f_text-_five_.wav,p284,f,5,5,8.0,7.0,RX81,6,0.0,0.0,7.0,76.34149293193902,babble-reversed_n13_p229-five-p318-two-p307-eight-p268-three-p248-four-p245-one.wav,6,RX81,7,0.0,0.0,8.0,91.58892582949888,mgb_normalisation,91.58892582949886,90.34149293193902,5,5.0,True,2.1248550415039062
,2024-06-27 15:59:28,sub_104,3,distance,cathedral,spatial_unmasking,4,181,0,0,_three_,talker-p284_sex-f_text-_three_.wav,p284,f,5,6,8.0,7.0,RX81,6,0.0,0.0,7.0,72.34149293193903,babble-reversed_n13_p229-five-p318-two-p307-eight-p268-three-p248-four-p245-one.wav,6,RX81,7,0.0,0.0,8.0,91.58892582949888,mgb_normalisation,91.58892582949886,90.34149293193902,3,3.0,True,1.4998979568481443
,2024-06-27 15:59:33,sub_104,3,distance,cathedral,spatial_unmasking,4,182,0,0,_five_,talker-p284_sex-f_text-_five_.wav,p284,f,5,7,8.0,7.0,RX81,6,0.0,0.0,7.0,68.34149293193902,babble-reversed_n13_p256-three-p318-two-p229-nine-p248-four-p284-one-p268-eight.wav,6,RX81,7,0.0,0.0,8.0,91.58892582949886,mgb_normalisation,91.58892582949886,90.34149293193902,5,3.0,False,1.937368869781494
,2024-06-27 15:59:36,sub_104,3,distance,cathedral,spatial_unmasking,4,183,0,0,_five_,talker-p284_sex-f_text-_five_.wav,p284,f,5,8,8.0,7.0,RX81,6,0.0,0.0,7.0,70.34149293193902,babble-reversed_n13_p229-eight-p256-nine-p318-four-p245-three-p268-five-p284-two.wav,6,RX81,7,0.0,0.0,8.0,91.58892582949886,mgb_normalisation,91.58892582949886,90.34149293193902,5,5.0,True,1.187401533126831
,2024-06-27 15:59:40,sub_104,3,distance,cathedral,spatial_unmasking,4,184,0,0,_three_,talker-p284_sex-f_text-_three_.wav,p284,f,5,9,8.0,7.0,RX81,6,0.0,0.0,7.0,70.34149293193903,babble-reversed_n13_p256-four-p229-two-p318-five-p268-one-p248-eight-p245-three.wav,6,RX81,7,0.0,0.0,8.0,91.58892582949886,mgb_normalisation,91.58892582949886,90.34149293193902,3,3.0,True,1.1249244213104248
,2024-06-27 15:59:45,sub_104,3,distance,cathedral,spatial_unmasking,4,185,0,0,_five_,talker-p284_sex-f_text-_five_.wav,p284,f,5,10,8.0,7.0,RX81,6,0.0,0.0,7.0,68.34149293193902,babble-reversed_n13_p307-nine-p229-one-p256-eight-p248-four-p284-two-p268-three.wav,6,RX81,7,0.0,0.0,8.0,91.58892582949888,mgb_normalisation,91.58892582949886,90.34149293193902,5,3.0,False,2.9372992515563965
,2024-06-27 15:59:49,sub_104,3,distance,cathedral,spatial_unmasking,4,186,0,0,_five_,talker-p284_sex-f_text-_five_.wav,p284,f,5,11,8.0,7.0,RX81,6,0.0,0.0,7.0,69.34149293193902,babble-reversed_n13_p256-eight-p318-five-p307-four-p245-three-p268-one-p284-nine.wav,6,RX81,7,0.0,0.0,8.0,91.58892582949886,mgb_normalisation,91.58892582949886,90.34149293193902,5,5.0,True,1.374905347824097
,2024-06-27 15:59:56,sub_104,3,distance,cathedral,spatial_unmasking,4,187,0,0,_five_,talker-p284_sex-f_text-_five_.wav,p284,f,5,12,8.0,7.0,RX81,6,0.0,0.0,7.0,69.34149293193902,babble-reversed_n13_p318-five-p256-nine-p307-two-p245-eight-p248-one-p284-four.wav,6,RX81,7,0.0,0.0,8.0,91.58892582949888,mgb_normalisation,91.58892582949886,90.34149293193902,5,5.0,True,4.312180280685425
,2024-06-27 16:00:03,sub_104,3,distance,cathedral,spatial_unmasking,4,188,0,0,_four_,talker-p284_sex-f_text-_four_.wav,p284,f,5,13,8.0,7.0,RX81,6,0.0,0.0,7.0,68.341492931939,babble-reversed_n13_p307-five-p229-two-p318-four-p248-three-p245-nine-p268-eight.wav,6,RX81,7,0.0,0.0,8.0,91.58892582949886,mgb_normalisation,91.58892582949886,90.34149293193902,4,4.0,True,5.124624490737915
,2024-06-27 16:00:07,sub_104,3,distance,cathedral,spatial_unmasking,4,189,0,0,_five_,talker-p284_sex-f_text-_five_.wav,p284,f,5,14,8.0,7.0,RX81,6,0.0,0.0,7.0,68.34149293193902,babble-reversed_n13_p229-five-p256-one-p318-three-p248-nine-p268-four-p284-eight.wav,6,RX81,7,0.0,0.0,8.0,91.58892582949886,mgb_normalisation,91.58892582949886,90.34149293193902,5,5.0,True,1.7498815059661863
,2024-06-27 16:00:12,sub_104,3,distance,cathedral,spatial_unmasking,4,190,0,0,_two_,talker-p284_sex-f_text-_two_.wav,p284,f,5,15,8.0,7.0,RX81,6,0.0,0.0,7.0,67.34149293193903,babble-reversed_n13_p229-nine-p256-four-p318-three-p268-eight-p248-two-p284-five.wav,6,RX81,7,0.0,0.0,8.0,91.58892582949888,mgb_normalisation,91.58892582949886,90.34149293193902,2,2.0,True,1.749880075454712
,2024-06-27 16:00:15,sub_104,3,distance,cathedral,spatial_unmasking,4,191,0,0,_four_,talker-p284_sex-f_text-_four_.wav,p284,f,5,16,8.0,7.0,RX81,6,0.0,0.0,7.0,67.341492931939,babble-reversed_n13_p229-five-p256-one-p318-three-p248-nine-p268-four-p284-eight.wav,6,RX81,7,0.0,0.0,8.0,91.58892582949886,mgb_normalisation,91.58892582949886,90.34149293193902,4,4.0,True,0.874941349029541
,2024-06-27 16:00:18,sub_104,3,distance,cathedral,spatial_unmasking,4,192,0,0,_five_,talker-p284_sex-f_text-_five_.wav,p284,f,5,17,8.0,7.0,RX81,6,0.0,0.0,7.0,66.34149293193902,babble-reversed_n13_p318-nine-p256-five-p307-eight-p268-three-p248-one-p245-four.wav,6,RX81,7,0.0,0.0,8.0,91.58892582949888,mgb_normalisation,91.58892582949886,90.34149293193902,5,1.0,False,0.937441110610962
,2024-06-27 16:00:22,sub_104,3,distance,cathedral,spatial_unmasking,4,193,0,0,_one_,talker-p284_sex-f_text-_one_.wav,p284,f,5,18,8.0,7.0,RX81,6,0.0,0.0,7.0,67.34149293193902,babble-reversed_n13_p318-five-p229-four-p256-eight-p284-one-p245-three-p248-two.wav,6,RX81,7,0.0,0.0,8.0,91.58892582949888,mgb_normalisation,91.58892582949886,90.34149293193902,1,3.0,False,1.5623939037322998
,2024-06-27 16:00:26,sub_104,3,distance,cathedral,spatial_unmasking,4,194,0,0,_four_,talker-p284_sex-f_text-_four_.wav,p284,f,5,19,8.0,7.0,RX81,6,0.0,0.0,7.0,68.341492931939,babble-reversed_n13_p307-five-p229-three-p318-nine-p245-four-p268-eight-p284-two.wav,6,RX81,7,0.0,0.0,8.0,91.58892582949886,mgb_normalisation,91.58892582949886,90.34149293193902,4,3.0,False,1.6248891353607178
,2024-06-27 16:00:31,sub_104,3,distance,cathedral,spatial_unmasking,4,195,0,0,_two_,talker-p284_sex-f_text-_two_.wav,p284,f,5,20,8.0,7.0,RX81,6,0.0,0.0,7.0,69.34149293193902,babble-reversed_n13_p318-three-p307-one-p256-five-p248-nine-p245-two-p284-eight.wav,6,RX81,7,0.0,0.0,8.0,91.58892582949888,mgb_normalisation,91.58892582949886,90.34149293193902,2,2.0,True,2.812307596206665
,2024-06-27 16:00:36,sub_104,3,distance,cathedral,spatial_unmasking,4,196,0,0,_two_,talker-p284_sex-f_text-_two_.wav,p284,f,5,21,8.0,7.0,RX81,6,0.0,0.0,7.0,69.34149293193902,babble-reversed_n13_p229-five-p318-two-p307-eight-p268-three-p248-four-p245-one.wav,6,RX81,7,0.0,0.0,8.0,91.58892582949888,mgb_normalisation,91.58892582949886,90.34149293193902,2,4.0,False,2.624821424484253
,2024-06-27 16:00:40,sub_104,3,distance,cathedral,spatial_unmasking,4,197,0,0,_three_,talker-p284_sex-f_text-_three_.wav,p284,f,5,22,8.0,7.0,RX81,6,0.0,0.0,7.0,70.34149293193903,babble-reversed_n13_p229-nine-p307-five-p256-two-p248-three-p245-one-p268-eight.wav,6,RX81,7,0.0,0.0,8.0,91.58892582949886,mgb_normalisation,91.58892582949886,90.34149293193902,3,3.0,True,1.2499151229858398
,2024-06-27 16:00:46,sub_104,3,distance,cathedral,spatial_unmasking,4,198,0,0,_three_,talker-p284_sex-f_text-_three_.wav,p284,f,5,23,8.0,7.0,RX81,6,0.0,0.0,7.0,70.34149293193903,babble-reversed_n13_p256-four-p307-eight-p318-two-p248-three-p284-nine-p268-one.wav,6,RX81,7,0.0,0.0,8.0,91.58892582949888,mgb_normalisation,91.58892582949886,90.34149293193902,3,1.0,False,3.3747689723968506
,2024-06-27 16:00:49,sub_104,3,distance,cathedral,spatial_unmasking,4,199,0,0,_two_,talker-p284_sex-f_text-_two_.wav,p284,f,5,24,8.0,7.0,RX81,6,0.0,0.0,7.0,71.34149293193902,babble-reversed_n13_p229-one-p318-eight-p256-three-p268-nine-p248-five-p284-four.wav,6,RX81,7,0.0,0.0,8.0,91.58892582949886,mgb_normalisation,91.58892582949886,90.34149293193902,2,2.0,True,1.124922275543213
,2024-06-27 16:00:53,sub_104,3,distance,cathedral,spatial_unmasking,4,200,0,0,_two_,talker-p284_sex-f_text-_two_.wav,p284,f,5,25,8.0,7.0,RX81,6,0.0,0.0,7.0,71.34149293193902,babble-reversed_n13_p318-three-p229-one-p256-eight-p245-five-p248-four-p284-nine.wav,6,RX81,7,0.0,0.0,8.0,91.58892582949888,mgb_normalisation,91.58892582949886,90.34149293193902,2,3.0,False,1.687387228012085
,2024-06-27 16:00:57,sub_104,3,distance,cathedral,spatial_unmasking,4,201,0,0,_four_,talker-p284_sex-f_text-_four_.wav,p284,f,5,26,8.0,7.0,RX81,6,0.0,0.0,7.0,72.341492931939,babble-reversed_n13_p229-one-p318-eight-p256-three-p268-two-p245-five-p248-nine.wav,6,RX81,7,0.0,0.0,8.0,91.58892582949886,mgb_normalisation,91.58892582949886,90.34149293193902,4,1.0,False,1.6248893737792969
,2024-06-27 16:01:02,sub_104,3,distance,cathedral,spatial_unmasking,4,202,0,0,_one_,talker-p284_sex-f_text-_one_.wav,p284,f,5,27,8.0,7.0,RX81,6,0.0,0.0,7.0,73.34149293193902,babble-reversed_n13_p256-eight-p229-three-p307-nine-p245-five-p248-four-p268-two.wav,6,RX81,7,0.0,0.0,8.0,91.58892582949886,mgb_normalisation,91.58892582949886,90.34149293193902,1,4.0,False,1.8748130798339844
,2024-06-27 16:01:05,sub_104,3,distance,cathedral,spatial_unmasking,4,203,0,0,_two_,talker-p284_sex-f_text-_two_.wav,p284,f,5,28,8.0,7.0,RX81,6,0.0,0.0,7.0,74.34149293193902,babble-reversed_n13_p256-nine-p307-four-p229-one-p284-three-p248-two-p245-five.wav,6,RX81,7,0.0,0.0,8.0,91.58892582949888,mgb_normalisation,91.58892582949886,90.34149293193902,2,2.0,True,1.4998977184295654
,2024-06-27 16:01:09,sub_104,3,distance,cathedral,spatial_unmasking,4,204,0,0,_four_,talker-p284_sex-f_text-_four_.wav,p284,f,5,29,8.0,7.0,RX81,6,0.0,0.0,7.0,74.341492931939,babble-reversed_n13_p318-nine-p256-five-p307-eight-p268-three-p248-one-p245-four.wav,6,RX81,7,0.0,0.0,8.0,91.58892582949888,mgb_normalisation,91.58892582949886,90.34149293193902,4,3.0,False,1.2499148845672607
,2024-06-27 16:01:13,sub_104,3,distance,cathedral,spatial_unmasking,4,205,0,0,_three_,talker-p284_sex-f_text-_three_.wav,p284,f,5,30,8.0,7.0,RX81,6,0.0,0.0,7.0,75.34149293193903,babble-reversed_n13_p307-five-p229-two-p318-four-p248-three-p245-nine-p268-eight.wav,6,RX81,7,0.0,0.0,8.0,91.58892582949886,mgb_normalisation,91.58892582949886,90.34149293193902,3,3.0,True,1.499896764755249
,2024-06-27 16:01:17,sub_104,3,distance,cathedral,spatial_unmasking,4,206,0,0,_two_,talker-p284_sex-f_text-_two_.wav,p284,f,5,31,8.0,7.0,RX81,6,0.0,0.0,7.0,75.34149293193903,babble-reversed_n13_p318-five-p229-four-p256-eight-p284-one-p245-three-p248-two.wav,6,RX81,7,0.0,0.0,8.0,91.58892582949888,mgb_normalisation,91.58892582949886,90.34149293193902,2,2.0,True,1.249969482421875
,2024-06-27 16:01:20,sub_104,3,distance,cathedral,spatial_unmasking,4,207,0,0,_one_,talker-p284_sex-f_text-_one_.wav,p284,f,5,32,8.0,7.0,RX81,6,0.0,0.0,7.0,74.34149293193902,babble-reversed_n13_p256-five-p229-one-p318-three-p248-nine-p284-eight-p268-two.wav,6,RX81,7,0.0,0.0,8.0,91.58892582949888,mgb_normalisation,91.58892582949886,90.34149293193902,1,1.0,True,1.312394142150879
,2024-06-27 16:01:24,sub_104,3,distance,cathedral,spatial_unmasking,4,208,0,0,_two_,talker-p284_sex-f_text-_two_.wav,p284,f,5,33,8.0,7.0,RX81,6,0.0,0.0,7.0,74.34149293193902,babble-reversed_n13_p318-nine-p307-eight-p229-two-p284-one-p248-three-p245-five.wav,6,RX81,7,0.0,0.0,8.0,91.58892582949886,mgb_normalisation,91.58892582949886,90.34149293193902,2,2.0,True,0.937436819076538
,2024-06-27 16:01:27,sub_104,3,distance,cathedral,spatial_unmasking,4,209,0,0,_one_,talker-p284_sex-f_text-_one_.wav,p284,f,5,34,8.0,7.0,RX81,6,0.0,0.0,7.0,73.34149293193902,babble-reversed_n13_p229-eight-p256-nine-p318-four-p245-three-p268-five-p284-two.wav,6,RX81,7,0.0,0.0,8.0,91.58892582949886,mgb_normalisation,91.58892582949886,90.34149293193902,1,1.0,True,1.1874194145202637
,2024-06-27 16:01:31,sub_104,3,distance,cathedral,spatial_unmasking,4,210,0,0,_three_,talker-p284_sex-f_text-_three_.wav,p284,f,5,35,8.0,7.0,RX81,6,0.0,0.0,7.0,73.34149293193902,babble-reversed_n13_p307-four-p318-three-p256-eight-p284-two-p245-nine-p248-five.wav,6,RX81,7,0.0,0.0,8.0,91.58892582949886,mgb_normalisation,91.58892582949886,90.34149293193902,3,3.0,True,1.249921798706055
,2024-06-27 16:01:36,sub_104,3,distance,cathedral,spatial_unmasking,4,211,0,0,_four_,talker-p284_sex-f_text-_four_.wav,p284,f,5,36,8.0,7.0,RX81,6,0.0,0.0,7.0,72.341492931939,babble-reversed_n13_p229-two-p307-five-p318-four-p284-one-p248-nine-p268-eight.wav,6,RX81,7,0.0,0.0,8.0,91.58892582949888,mgb_normalisation,91.58892582949886,90.34149293193902,4,5.0,False,2.124797344207764
,2024-06-27 16:01:39,sub_104,3,distance,cathedral,spatial_unmasking,4,212,0,0,_four_,talker-p284_sex-f_text-_four_.wav,p284,f,5,37,8.0,7.0,RX81,6,0.0,0.0,7.0,73.34149293193902,babble-reversed_n13_p229-five-p256-one-p318-three-p248-nine-p268-four-p284-eight.wav,6,RX81,7,0.0,0.0,8.0,91.58892582949886,mgb_normalisation,91.58892582949886,90.34149293193902,4,3.0,False,1.437401533126831
,2024-06-27 16:01:44,sub_104,3,distance,cathedral,spatial_unmasking,4,213,0,0,_one_,talker-p284_sex-f_text-_one_.wav,p284,f,5,38,8.0,7.0,RX81,6,0.0,0.0,7.0,74.34149293193902,babble-reversed_n13_p229-nine-p256-four-p318-three-p268-eight-p248-two-p284-five.wav,6,RX81,7,0.0,0.0,8.0,91.58892582949888,mgb_normalisation,91.58892582949886,90.34149293193902,1,3.0,False,2.124850511550904
,2024-06-27 16:01:47,sub_104,3,distance,cathedral,spatial_unmasking,4,214,0,0,_five_,talker-p284_sex-f_text-_five_.wav,p284,f,5,39,8.0,7.0,RX81,6,0.0,0.0,7.0,75.34149293193902,babble-reversed_n13_p318-five-p256-nine-p307-eight-p248-two-p245-four-p284-three.wav,6,RX81,7,0.0,0.0,8.0,91.58892582949886,mgb_normalisation,91.58892582949886,90.34149293193902,5,5.0,True,1.1874234676361084
,2024-06-27 16:01:51,sub_104,3,distance,cathedral,spatial_unmasking,4,215,0,0,_two_,talker-p284_sex-f_text-_two_.wav,p284,f,5,40,8.0,7.0,RX81,6,0.0,0.0,7.0,75.34149293193903,babble-reversed_n13_p307-two-p229-one-p256-five-p248-nine-p284-three-p268-eight.wav,6,RX81,7,0.0,0.0,8.0,91.58892582949888,mgb_normalisation,91.58892582949886,90.34149293193902,2,2.0,True,0.93743634223938
,2024-06-27 16:01:55,sub_104,3,distance,cathedral,spatial_unmasking,4,216,0,0,_two_,talker-p284_sex-f_text-_two_.wav,p284,f,5,41,8.0,7.0,RX81,6,0.0,0.0,7.0,74.34149293193902,babble-reversed_n13_p256-three-p318-one-p307-two-p284-nine-p268-four-p245-eight.wav,6,RX81,7,0.0,0.0,8.0,91.58892582949888,mgb_normalisation,91.58892582949886,90.34149293193902,2,2.0,True,1.3748993873596191
,2024-06-27 16:01:58,sub_104,3,distance,cathedral,spatial_unmasking,4,217,0,0,_one_,talker-p284_sex-f_text-_one_.wav,p284,f,5,42,8.0,7.0,RX81,6,0.0,0.0,7.0,74.34149293193902,babble-reversed_n13_p318-three-p307-one-p256-five-p248-nine-p245-two-p284-eight.wav,6,RX81,7,0.0,0.0,8.0,91.58892582949888,mgb_normalisation,91.58892582949886,90.34149293193902,1,1.0,True,0.8124444484710693
,2024-06-27 16:02:01,sub_104,3,distance,cathedral,spatial_unmasking,4,218,0,0,_two_,talker-p284_sex-f_text-_two_.wav,p284,f,5,43,8.0,7.0,RX81,6,0.0,0.0,7.0,73.34149293193902,babble-reversed_n13_p307-two-p256-four-p318-three-p284-eight-p248-five-p245-nine.wav,6,RX81,7,0.0,0.0,8.0,91.58892582949888,mgb_normalisation,91.58892582949886,90.34149293193902,2,2.0,True,0.9374353885650636
,2024-06-27 16:02:05,sub_104,3,distance,cathedral,spatial_unmasking,4,219,0,0,_five_,talker-p284_sex-f_text-_five_.wav,p284,f,5,44,8.0,7.0,RX81,6,0.0,0.0,7.0,73.34149293193902,babble-reversed_n13_p229-three-p256-one-p307-two-p284-eight-p268-five-p248-nine.wav,6,RX81,7,0.0,0.0,8.0,91.58892582949888,mgb_normalisation,91.58892582949886,90.34149293193902,5,5.0,True,1.0624241828918457
,2024-06-27 16:02:08,sub_104,3,distance,cathedral,spatial_unmasking,4,220,0,0,_four_,talker-p284_sex-f_text-_four_.wav,p284,f,5,45,8.0,7.0,RX81,6,0.0,0.0,7.0,72.341492931939,babble-reversed_n13_p229-nine-p318-one-p307-two-p248-eight-p245-five-p284-four.wav,6,RX81,7,0.0,0.0,8.0,91.58892582949886,mgb_normalisation,91.58892582949886,90.34149293193902,4,4.0,True,1.4373986721038818
,2024-06-27 16:02:12,sub_104,3,distance,cathedral,spatial_unmasking,4,221,0,0,_five_,talker-p284_sex-f_text-_five_.wav,p284,f,5,46,8.0,7.0,RX81,6,0.0,0.0,7.0,72.34149293193902,babble-reversed_n13_p318-four-p256-five-p229-three-p284-one-p245-eight-p248-nine.wav,6,RX81,7,0.0,0.0,8.0,91.58892582949888,mgb_normalisation,91.58892582949886,90.34149293193902,5,5.0,True,1.3124098777770996
,2024-06-27 16:02:16,sub_104,3,distance,cathedral,spatial_unmasking,4,222,0,0,_one_,talker-p284_sex-f_text-_one_.wav,p284,f,5,47,8.0,7.0,RX81,6,0.0,0.0,7.0,71.34149293193902,babble-reversed_n13_p318-five-p256-nine-p307-eight-p248-two-p245-four-p284-three.wav,6,RX81,7,0.0,0.0,8.0,91.58892582949886,mgb_normalisation,91.58892582949886,90.34149293193902,1,3.0,False,1.499897003173828
,2024-06-27 16:02:20,sub_104,3,distance,cathedral,spatial_unmasking,4,223,0,0,_five_,talker-p284_sex-f_text-_five_.wav,p284,f,5,48,8.0,7.0,RX81,6,0.0,0.0,7.0,72.34149293193902,babble-reversed_n13_p256-four-p307-eight-p318-two-p248-three-p284-nine-p268-one.wav,6,RX81,7,0.0,0.0,8.0,91.58892582949888,mgb_normalisation,91.58892582949886,90.34149293193902,5,5.0,True,1.9373676776885984
,2024-06-27 16:02:25,sub_104,3,distance,cathedral,spatial_unmasking,4,224,0,0,_three_,talker-p284_sex-f_text-_three_.wav,p284,f,5,49,8.0,7.0,RX81,6,0.0,0.0,7.0,72.34149293193903,babble-reversed_n13_p318-three-p229-one-p256-eight-p245-five-p248-four-p284-nine.wav,6,RX81,7,0.0,0.0,8.0,91.58892582949888,mgb_normalisation,91.58892582949886,90.34149293193902,3,3.0,True,1.874871730804444
,2024-06-27 16:02:28,sub_104,3,distance,cathedral,spatial_unmasking,4,225,0,0,_two_,talker-p284_sex-f_text-_two_.wav,p284,f,5,50,8.0,7.0,RX81,6,0.0,0.0,7.0,71.34149293193902,babble-reversed_n13_p307-five-p229-three-p318-nine-p245-four-p268-eight-p284-two.wav,6,RX81,7,0.0,0.0,8.0,91.58892582949886,mgb_normalisation,91.58892582949886,90.34149293193902,2,2.0,True,1.2499136924743652
,2024-06-27 16:02:32,sub_104,3,distance,cathedral,spatial_unmasking,4,226,0,0,_three_,talker-p284_sex-f_text-_three_.wav,p284,f,5,51,8.0,7.0,RX81,6,0.0,0.0,7.0,71.34149293193903,babble-reversed_n13_p229-nine-p256-four-p318-three-p268-eight-p248-two-p284-five.wav,6,RX81,7,0.0,0.0,8.0,91.58892582949888,mgb_normalisation,91.58892582949886,90.34149293193902,3,2.0,False,1.6873843669891355
,2024-06-27 16:02:36,sub_104,3,distance,cathedral,spatial_unmasking,4,227,0,0,_two_,talker-p284_sex-f_text-_two_.wav,p284,f,5,52,8.0,7.0,RX81,6,0.0,0.0,7.0,72.34149293193902,babble-reversed_n13_p307-four-p318-three-p256-eight-p284-two-p245-nine-p248-five.wav,6,RX81,7,0.0,0.0,8.0,91.58892582949886,mgb_normalisation,91.58892582949886,90.34149293193902,2,2.0,True,1.624888896942139
,2024-06-27 16:02:40,sub_104,3,distance,cathedral,spatial_unmasking,4,228,0,0,_two_,talker-p284_sex-f_text-_two_.wav,p284,f,5,53,8.0,7.0,RX81,6,0.0,0.0,7.0,72.34149293193902,babble-reversed_n13_p256-five-p307-nine-p318-three-p284-eight-p268-one-p248-two.wav,6,RX81,7,0.0,0.0,8.0,91.58892582949886,mgb_normalisation,91.58892582949886,90.34149293193902,2,2.0,True,1.687384843826294
,2024-06-27 16:02:44,sub_104,3,distance,cathedral,spatial_unmasking,4,229,0,0,_three_,talker-p284_sex-f_text-_three_.wav,p284,f,5,54,8.0,7.0,RX81,6,0.0,0.0,7.0,71.34149293193903,babble-reversed_n13_p318-four-p256-five-p229-three-p284-one-p245-eight-p248-nine.wav,6,RX81,7,0.0,0.0,8.0,91.58892582949888,mgb_normalisation,91.58892582949886,90.34149293193902,3,1.0,False,1.437401294708252
,2024-06-27 16:02:48,sub_104,3,distance,cathedral,spatial_unmasking,4,230,0,0,_four_,talker-p284_sex-f_text-_four_.wav,p284,f,5,55,8.0,7.0,RX81,6,0.0,0.0,7.0,72.341492931939,babble-reversed_n13_p229-one-p318-nine-p256-four-p284-eight-p268-five-p245-two.wav,6,RX81,7,0.0,0.0,8.0,91.58892582949886,mgb_normalisation,91.58892582949886,90.34149293193902,4,4.0,True,1.3748810291290283
,2024-06-27 16:02:52,sub_104,3,distance,cathedral,spatial_unmasking,4,231,0,0,_five_,talker-p284_sex-f_text-_five_.wav,p284,f,5,56,8.0,7.0,RX81,6,0.0,0.0,7.0,72.34149293193902,babble-reversed_n13_p256-two-p307-five-p318-nine-p248-eight-p245-four-p284-one.wav,6,RX81,7,0.0,0.0,8.0,91.58892582949888,mgb_normalisation,91.58892582949886,90.34149293193902,5,5.0,True,1.3124094009399414
,2024-06-27 16:02:56,sub_104,3,distance,cathedral,spatial_unmasking,4,232,0,0,_two_,talker-p284_sex-f_text-_two_.wav,p284,f,5,57,8.0,7.0,RX81,6,0.0,0.0,7.0,71.34149293193902,babble-reversed_n13_p318-nine-p256-five-p307-eight-p268-three-p248-one-p245-four.wav,6,RX81,7,0.0,0.0,8.0,91.58892582949888,mgb_normalisation,91.58892582949886,90.34149293193902,2,2.0,True,1.4998912811279297
,2024-06-27 16:02:59,sub_104,3,distance,cathedral,spatial_unmasking,4,233,0,0,_four_,talker-p284_sex-f_text-_four_.wav,p284,f,5,58,8.0,7.0,RX81,6,0.0,0.0,7.0,71.34149293193902,babble-reversed_n13_p256-eight-p318-five-p307-four-p245-three-p268-one-p284-nine.wav,6,RX81,7,0.0,0.0,8.0,91.58892582949886,mgb_normalisation,91.58892582949886,90.34149293193902,4,4.0,True,1.4374017715454102
,2024-06-27 16:03:04,sub_104,3,distance,cathedral,spatial_unmasking,4,234,0,0,_three_,talker-p284_sex-f_text-_three_.wav,p284,f,5,59,8.0,7.0,RX81,6,0.0,0.0,7.0,70.34149293193903,babble-reversed_n13_p318-nine-p307-eight-p229-two-p284-one-p248-three-p245-five.wav,6,RX81,7,0.0,0.0,8.0,91.58892582949886,mgb_normalisation,91.58892582949886,90.34149293193902,3,3.0,True,2.1249186992645264
,2024-06-27 16:03:08,sub_104,3,distance,cathedral,spatial_unmasking,4,235,0,0,_four_,talker-p284_sex-f_text-_four_.wav,p284,f,5,60,8.0,7.0,RX81,6,0.0,0.0,7.0,70.341492931939,babble-reversed_n13_p256-eight-p318-two-p307-five-p245-four-p268-nine-p284-one.wav,6,RX81,7,0.0,0.0,8.0,91.58892582949888,mgb_normalisation,91.58892582949886,90.34149293193902,4,4.0,True,1.74988055229187
,2024-06-27 16:03:15,sub_104,3,distance,cathedral,spatial_unmasking,4,236,0,0,_one_,talker-p284_sex-f_text-_one_.wav,p284,f,5,61,8.0,7.0,RX81,6,0.0,0.0,7.0,69.34149293193902,babble-reversed_n13_p307-nine-p229-one-p256-eight-p248-four-p284-two-p268-three.wav,6,RX81,7,0.0,0.0,8.0,91.58892582949888,mgb_normalisation,91.58892582949886,90.34149293193902,1,3.0,False,4.562125205993652
,2024-06-27 16:03:21,sub_104,3,distance,cathedral,spatial_unmasking,4,237,0,0,_one_,talker-p284_sex-f_text-_one_.wav,p284,f,5,62,8.0,7.0,RX81,6,0.0,0.0,7.0,70.34149293193902,babble-reversed_n13_p256-eight-p318-five-p307-four-p245-three-p268-one-p284-nine.wav,6,RX81,7,0.0,0.0,8.0,91.58892582949886,mgb_normalisation,91.58892582949886,90.34149293193902,1,1.0,True,3.9997265338897705
,2024-06-27 16:03:27,sub_104,3,distance,cathedral,spatial_unmasking,4,238,0,0,_two_,talker-p284_sex-f_text-_two_.wav,p284,f,5,63,8.0,7.0,RX81,6,0.0,0.0,7.0,70.34149293193903,babble-reversed_n13_p229-nine-p307-five-p256-two-p248-three-p245-one-p268-eight.wav,6,RX81,7,0.0,0.0,8.0,91.58892582949886,mgb_normalisation,91.58892582949886,90.34149293193902,2,2.0,True,2.812307357788086
,2024-06-27 16:06:58,sub_104,3,distance,cathedral,spatial_unmasking,5,239,0,0,_five_,talker-p284_sex-f_text-_five_.wav,p284,f,5,1,10.0,7.0,RX81,6,0.0,0.0,7.0,92.34149293193902,babble-reversed_n13_p318-five-p256-nine-p307-two-p245-eight-p248-one-p284-four.wav,8,RX81,9,0.0,0.0,10.0,92.0152836843556,mgb_normalisation,92.0152836843556,90.34149293193902,5,5.0,True,2.3748364448547363
,2024-06-27 16:07:03,sub_104,3,distance,cathedral,spatial_unmasking,5,240,0,0,_two_,talker-p284_sex-f_text-_two_.wav,p284,f,5,2,10.0,7.0,RX81,6,0.0,0.0,7.0,88.34149293193902,babble-reversed_n13_p256-three-p318-two-p229-nine-p248-four-p284-one-p268-eight.wav,8,RX81,9,0.0,0.0,10.0,92.0152836843556,mgb_normalisation,92.0152836843556,90.34149293193902,2,2.0,True,2.249845027923584
,2024-06-27 16:07:07,sub_104,3,distance,cathedral,spatial_unmasking,5,241,0,0,_two_,talker-p284_sex-f_text-_two_.wav,p284,f,5,3,10.0,7.0,RX81,6,0.0,0.0,7.0,84.34149293193903,babble-reversed_n13_p229-nine-p318-one-p307-two-p248-eight-p245-five-p284-four.wav,8,RX81,9,0.0,0.0,10.0,92.0152836843556,mgb_normalisation,92.0152836843556,90.34149293193902,2,2.0,True,2.312340021133423
,2024-06-27 16:07:11,sub_104,3,distance,cathedral,spatial_unmasking,5,242,0,0,_two_,talker-p284_sex-f_text-_two_.wav,p284,f,5,4,10.0,7.0,RX81,6,0.0,0.0,7.0,80.34149293193903,babble-reversed_n13_p256-two-p307-five-p318-nine-p248-eight-p245-four-p284-one.wav,8,RX81,9,0.0,0.0,10.0,92.0152836843556,mgb_normalisation,92.0152836843556,90.34149293193902,2,2.0,True,1.812376976013184
,2024-06-27 16:07:16,sub_104,3,distance,cathedral,spatial_unmasking,5,243,0,0,_two_,talker-p284_sex-f_text-_two_.wav,p284,f,5,5,10.0,7.0,RX81,6,0.0,0.0,7.0,76.34149293193902,babble-reversed_n13_p229-eight-p256-nine-p318-four-p245-three-p268-five-p284-two.wav,8,RX81,9,0.0,0.0,10.0,92.0152836843556,mgb_normalisation,92.0152836843556,90.34149293193902,2,2.0,True,2.4998278617858887
,2024-06-27 16:07:22,sub_104,3,distance,cathedral,spatial_unmasking,5,244,0,0,_five_,talker-p284_sex-f_text-_five_.wav,p284,f,5,6,10.0,7.0,RX81,6,0.0,0.0,7.0,72.34149293193902,babble-reversed_n13_p256-five-p307-nine-p318-three-p284-eight-p268-one-p248-two.wav,8,RX81,9,0.0,0.0,10.0,92.0152836843556,mgb_normalisation,92.0152836843556,90.34149293193902,5,3.0,False,3.562256097793579
,2024-06-27 16:07:27,sub_104,3,distance,cathedral,spatial_unmasking,5,245,0,0,_three_,talker-p284_sex-f_text-_three_.wav,p284,f,5,7,10.0,7.0,RX81,6,0.0,0.0,7.0,74.34149293193903,babble-reversed_n13_p318-five-p256-nine-p307-two-p245-eight-p248-one-p284-four.wav,8,RX81,9,0.0,0.0,10.0,92.0152836843556,mgb_normalisation,92.0152836843556,90.34149293193902,3,4.0,False,2.374837636947632
,2024-06-27 16:07:32,sub_104,3,distance,cathedral,spatial_unmasking,5,246,0,0,_three_,talker-p284_sex-f_text-_three_.wav,p284,f,5,8,10.0,7.0,RX81,6,0.0,0.0,7.0,76.34149293193902,babble-reversed_n13_p318-five-p256-nine-p307-eight-p248-two-p245-four-p284-three.wav,8,RX81,9,0.0,0.0,10.0,92.0152836843556,mgb_normalisation,92.0152836843556,90.34149293193902,3,3.0,True,2.4998278617858887
,2024-06-27 16:07:36,sub_104,3,distance,cathedral,spatial_unmasking,5,247,0,0,_two_,talker-p284_sex-f_text-_two_.wav,p284,f,5,9,10.0,7.0,RX81,6,0.0,0.0,7.0,76.34149293193902,babble-reversed_n13_p229-eight-p256-nine-p318-four-p245-three-p268-five-p284-two.wav,8,RX81,9,0.0,0.0,10.0,92.0152836843556,mgb_normalisation,92.0152836843556,90.34149293193902,2,2.0,True,2.124854803085327
,2024-06-27 16:07:41,sub_104,3,distance,cathedral,spatial_unmasking,5,248,0,0,_three_,talker-p284_sex-f_text-_three_.wav,p284,f,5,10,10.0,7.0,RX81,6,0.0,0.0,7.0,74.34149293193903,babble-reversed_n13_p256-nine-p307-four-p229-one-p284-three-p248-two-p245-five.wav,8,RX81,9,0.0,0.0,10.0,92.0152836843556,mgb_normalisation,92.0152836843556,90.34149293193902,3,3.0,True,2.2498457431793213
,2024-06-27 16:07:45,sub_104,3,distance,cathedral,spatial_unmasking,5,249,0,0,_four_,talker-p284_sex-f_text-_four_.wav,p284,f,5,11,10.0,7.0,RX81,6,0.0,0.0,7.0,74.341492931939,babble-reversed_n13_p229-one-p318-eight-p256-three-p268-nine-p248-five-p284-four.wav,8,RX81,9,0.0,0.0,10.0,92.0152836843556,mgb_normalisation,92.0152836843556,90.34149293193902,4,4.0,True,1.8123772144317627
,2024-06-27 16:07:51,sub_104,3,distance,cathedral,spatial_unmasking,5,250,0,0,_four_,talker-p284_sex-f_text-_four_.wav,p284,f,5,12,10.0,7.0,RX81,6,0.0,0.0,7.0,72.341492931939,babble-reversed_n13_p307-five-p229-three-p318-nine-p245-four-p268-eight-p284-two.wav,8,RX81,9,0.0,0.0,10.0,92.0152836843556,mgb_normalisation,92.0152836843556,90.34149293193902,4,1.0,False,2.937298059463501
,2024-06-27 16:07:56,sub_104,3,distance,cathedral,spatial_unmasking,5,251,0,0,_two_,talker-p284_sex-f_text-_two_.wav,p284,f,5,13,10.0,7.0,RX81,6,0.0,0.0,7.0,73.34149293193902,babble-reversed_n13_p229-two-p256-three-p318-eight-p284-five-p268-four-p245-one.wav,8,RX81,9,0.0,0.0,10.0,92.0152836843556,mgb_normalisation,92.0152836843556,90.34149293193902,2,2.0,True,2.8123080730438232
,2024-06-27 16:08:01,sub_104,3,distance,cathedral,spatial_unmasking,5,252,0,0,_one_,talker-p284_sex-f_text-_one_.wav,p284,f,5,14,10.0,7.0,RX81,6,0.0,0.0,7.0,73.34149293193902,babble-reversed_n13_p318-nine-p307-eight-p229-two-p284-one-p248-three-p245-five.wav,8,RX81,9,0.0,0.0,10.0,92.0152836843556,mgb_normalisation,92.0152836843556,90.34149293193902,1,1.0,True,2.3748371601104736
,2024-06-27 16:08:06,sub_104,3,distance,cathedral,spatial_unmasking,5,253,0,0,_five_,talker-p284_sex-f_text-_five_.wav,p284,f,5,15,10.0,7.0,RX81,6,0.0,0.0,7.0,72.34149293193902,babble-reversed_n13_p229-two-p318-eight-p256-three-p268-one-p248-nine-p284-five.wav,8,RX81,9,0.0,0.0,10.0,92.0152836843556,mgb_normalisation,92.0152836843556,90.34149293193902,5,5.0,True,3.1248116493225098
,2024-06-27 16:08:11,sub_104,3,distance,cathedral,spatial_unmasking,5,254,0,0,_five_,talker-p284_sex-f_text-_five_.wav,p284,f,5,16,10.0,7.0,RX81,6,0.0,0.0,7.0,72.34149293193902,babble-reversed_n13_p229-five-p256-one-p318-three-p248-nine-p268-four-p284-eight.wav,8,RX81,9,0.0,0.0,10.0,92.0152836843556,mgb_normalisation,92.0152836843556,90.34149293193902,5,5.0,True,2.687312364578247
,2024-06-27 16:08:18,sub_104,3,distance,cathedral,spatial_unmasking,5,255,0,0,_four_,talker-p284_sex-f_text-_four_.wav,p284,f,5,17,10.0,7.0,RX81,6,0.0,0.0,7.0,71.34149293193902,babble-reversed_n13_p229-one-p318-eight-p256-three-p268-two-p245-five-p248-nine.wav,8,RX81,9,0.0,0.0,10.0,92.0152836843556,mgb_normalisation,92.0152836843556,90.34149293193902,4,3.0,False,4.062219142913818
,2024-06-27 16:08:23,sub_104,3,distance,cathedral,spatial_unmasking,5,256,0,0,_two_,talker-p284_sex-f_text-_two_.wav,p284,f,5,18,10.0,7.0,RX81,6,0.0,0.0,7.0,72.34149293193902,babble-reversed_n13_p307-nine-p318-two-p256-one-p245-three-p268-four-p248-eight.wav,8,RX81,9,0.0,0.0,10.0,92.0152836843556,mgb_normalisation,92.0152836843556,90.34149293193902,2,2.0,True,2.499828815460205
,2024-06-27 16:08:28,sub_104,3,distance,cathedral,spatial_unmasking,5,257,0,0,_four_,talker-p284_sex-f_text-_four_.wav,p284,f,5,19,10.0,7.0,RX81,6,0.0,0.0,7.0,72.341492931939,babble-reversed_n13_p256-eight-p318-five-p307-four-p245-three-p268-one-p284-nine.wav,8,RX81,9,0.0,0.0,10.0,92.0152836843556,mgb_normalisation,92.0152836843556,90.34149293193902,4,4.0,True,3.437264442443848
,2024-06-27 16:08:36,sub_104,3,distance,cathedral,spatial_unmasking,5,258,0,0,_four_,talker-p284_sex-f_text-_four_.wav,p284,f,5,20,10.0,7.0,RX81,6,0.0,0.0,7.0,71.34149293193902,babble-reversed_n13_p256-three-p318-two-p229-nine-p248-four-p284-one-p268-eight.wav,8,RX81,9,0.0,0.0,10.0,92.0152836843556,mgb_normalisation,92.0152836843556,90.34149293193902,4,3.0,False,4.812170267105103
