,event_id,subject_id,timestamp,session_index,plane,setup,task,block,trial_index,stim_number,stim_type,stim_country_ids,stim_sexes,stim_talker_ids,speaker_ids,stim_level,resp_number,is_correct,speaker_distance_mean,speaker_distance_st_dev,reaction_time,spectral_coverage
0,,sub_108,2024-07-01 10:35:26,3,distance,cathedral,numerosity_judgement,1,0,3,countries_forward,"['_Cuba_', '_Mali_', '_Sudan_']","['m', 'f', 'f']","['p307', 'p268', 'p248']","[8, 9, 2]","[92.0152836843556, 92.00610777531934, 87.57049330475357]",3.0,True,8.333333333333334,3.7859388972001824,2.5623228549957275,0.8737373737373737
0,,sub_108,2024-07-01 10:35:31,3,distance,cathedral,numerosity_judgement,1,1,5,countries_forward,"['_Syria_', '_Britain_', '_Oman_', '_Belgium_', '_Cuba_']","['f', 'f', 'm', 'm', 'm']","['p245', 'p248', 'p229', 'p318', 'p256']","[4, 5, 0, 3, 1]","[89.31368318402099, 90.34149293193902, 84.40078082039426, 89.14911522239515, 86.2038576498559]",3.0,False,4.6,2.073644135332772,2.7498559951782227,0.907184201566224
0,,sub_108,2024-07-01 10:35:34,3,distance,cathedral,numerosity_judgement,1,2,2,countries_forward,"['_Mali_', '_Sudan_']","['m', 'm']","['p307', 'p229']","[8, 7]","[92.0152836843556, 91.73820004985969]",2.0,True,9.5,0.7071067811865476,1.5623903274536133,0.925445465894904
0,,sub_108,2024-07-01 10:35:38,3,distance,cathedral,numerosity_judgement,1,3,4,countries_forward,"['_Sudan_', '_Yemen_', '_Mali_', '_Syria_']","['m', 'f', 'm', 'm']","['p318', 'p268', 'p307', 'p229']","[4, 8, 1, 2]","[89.31368318402099, 92.0152836843556, 86.2038576498559, 87.57049330475357]",3.0,False,5.75,3.095695936834452,1.937366247177124,0.9083985926682556
0,,sub_108,2024-07-01 10:35:42,3,distance,cathedral,numerosity_judgement,1,4,6,countries_forward,"['_Sudan_', '_Belgium_', '_Mali_', '_Britain_', '_Oman_', '_Japan_']","['m', 'f', 'm', 'm', 'm', 'f']","['p256', 'p248', 'p307', 'p229', 'p318', 'p245']","[3, 8, 9, 4, 0, 1]","[89.14911522239515, 92.0152836843556, 92.00610777531934, 89.31368318402099, 84.40078082039426, 86.2038576498559]",4.0,False,6.166666666666667,3.65604522218567,2.1404097080230713,0.8967540574282147
0,,sub_108,2024-07-01 10:35:45,3,distance,cathedral,numerosity_judgement,1,5,2,countries_forward,"['_Oman_', '_Yemen_']","['m', 'm']","['p229', 'p256']","[3, 6]","[89.14911522239515, 91.58892582949886]",2.0,True,6.5,2.1213203435596424,1.687448501586914,0.5410623084780388
0,,sub_108,2024-07-01 10:35:49,3,distance,cathedral,numerosity_judgement,1,6,5,countries_forward,"['_Cuba_', '_Peru_', '_Oman_', '_Yemen_', '_Congo_']","['f', 'm', 'm', 'f', 'm']","['p268', 'p307', 'p318', 'p284', 'p229']","[10, 3, 1, 9, 5]","[93.00003341222717, 89.14911522239515, 86.2038576498559, 92.00610777531934, 90.34149293193902]",4.0,False,7.6,3.847076812334269,1.6248230934143066,0.7120304165247986
0,,sub_108,2024-07-01 10:35:53,3,distance,cathedral,numerosity_judgement,1,7,4,countries_forward,"['_Oman_', '_Mali_', '_Sudan_', '_Cuba_']","['f', 'm', 'm', 'f']","['p268', 'p256', 'p229', 'p248']","[0, 9, 10, 1]","[84.40078082039426, 92.00610777531934, 93.00003341222717, 86.2038576498559]",3.0,False,7.0,5.228129047119374,2.31227445602417,0.9404040404040404
0,,sub_108,2024-07-01 10:35:57,3,distance,cathedral,numerosity_judgement,1,8,3,countries_forward,"['_Sudan_', '_Togo_', '_Yemen_']","['f', 'm', 'f']","['p284', 'p307', 'p245']","[1, 10, 9]","[86.2038576498559, 93.00003341222717, 92.00610777531934]",4.0,False,8.666666666666666,4.932882862316248,1.7655704021453857,0.8432073544433095
0,,sub_108,2024-07-01 10:36:00,3,distance,cathedral,numerosity_judgement,1,9,6,countries_forward,"['_Togo_', '_Congo_', '_Peru_', '_Yemen_', '_Britain_', '_Oman_']","['m', 'f', 'f', 'm', 'm', 'f']","['p229', 'p245', 'p248', 'p307', 'p256', 'p268']","[0, 6, 1, 10, 7, 3]","[84.40078082039426, 91.58892582949886, 86.2038576498559, 93.00003341222717, 91.73820004985969, 89.14911522239515]",5.0,False,6.5,3.8340579025361627,1.8748421669006348,0.7283282260810351
0,,sub_108,2024-07-01 10:36:05,3,distance,cathedral,numerosity_judgement,1,10,3,countries_forward,"['_Mali_', '_Togo_', '_Yemen_']","['m', 'f', 'f']","['p307', 'p268', 'p248']","[9, 3, 5]","[92.00610777531934, 89.14911522239515, 90.34149293193902]",2.0,False,7.666666666666667,3.0550504633038935,2.687267303466797,0.6935308137555328
0,,sub_108,2024-07-01 10:36:08,3,distance,cathedral,numerosity_judgement,1,11,5,countries_forward,"['_Japan_', '_Tonga_', '_Togo_', '_Syria_', '_Cuba_']","['m', 'f', 'm', 'm', 'f']","['p229', 'p284', 'p307', 'p256', 'p268']","[3, 10, 6, 4, 8]","[89.14911522239515, 93.00003341222717, 91.58892582949886, 89.31368318402099, 92.0152836843556]",3.0,False,8.2,2.8635642126552705,1.6873164176940918,0.8480308705027806
0,,sub_108,2024-07-01 10:36:12,3,distance,cathedral,numerosity_judgement,1,12,4,countries_forward,"['_Togo_', '_Tonga_', '_Mali_', '_Congo_']","['m', 'f', 'm', 'm']","['p307', 'p248', 'p256', 'p318']","[5, 7, 0, 8]","[90.34149293193902, 91.73820004985969, 84.40078082039426, 92.0152836843556]",3.0,False,7.0,3.559026084010437,1.9373483657836914,0.802882760186131
0,,sub_108,2024-07-01 10:36:17,3,distance,cathedral,numerosity_judgement,1,13,6,countries_forward,"['_Congo_', '_Oman_', '_Tonga_', '_Togo_', '_Yemen_', '_Peru_']","['f', 'm', 'm', 'f', 'f', 'm']","['p284', 'p318', 'p229', 'p268', 'p248', 'p307']","[0, 9, 1, 4, 2, 5]","[84.40078082039426, 92.00610777531934, 86.2038576498559, 89.31368318402099, 87.57049330475357, 90.34149293193902]",3.0,False,5.5,3.271085446759225,2.452955484390259,0.8089320167971853
0,,sub_108,2024-07-01 10:36:20,3,distance,cathedral,numerosity_judgement,1,14,2,countries_forward,"['_Peru_', '_Japan_']","['m', 'm']","['p256', 'p229']","[7, 6]","[91.73820004985969, 91.58892582949886]",2.0,True,8.5,0.7071067811865476,1.499833583831787,0.8573374191351719
0,,sub_108,2024-07-01 10:36:24,3,distance,cathedral,numerosity_judgement,1,15,3,countries_forward,"['_Mali_', '_Yemen_', '_Oman_']","['m', 'f', 'm']","['p318', 'p245', 'p229']","[10, 6, 8]","[93.00003341222717, 91.58892582949886, 92.0152836843556]",3.0,True,10.0,2.0,2.2811193466186523,0.7818635796163886
0,,sub_108,2024-07-01 10:36:28,3,distance,cathedral,numerosity_judgement,1,16,4,countries_forward,"['_Cuba_', '_Tonga_', '_Syria_', '_Oman_']","['f', 'm', 'm', 'f']","['p248', 'p307', 'p256', 'p268']","[4, 2, 9, 6]","[89.31368318402099, 87.57049330475357, 92.00610777531934, 91.58892582949886]",4.0,True,7.25,2.9860788111948193,2.0623278617858887,0.8351946430598116
0,,sub_108,2024-07-01 10:36:30,3,distance,cathedral,numerosity_judgement,1,17,2,countries_forward,"['_Tonga_', '_Oman_']","['f', 'm']","['p245', 'p229']","[3, 6]","[89.14911522239515, 91.58892582949886]",2.0,True,6.5,2.1213203435596424,1.2499139308929443,0.626682555896039
0,,sub_108,2024-07-01 10:36:34,3,distance,cathedral,numerosity_judgement,1,18,5,countries_forward,"['_Togo_', '_Tonga_', '_Yemen_', '_Belgium_', '_Britain_']","['f', 'f', 'm', 'm', 'm']","['p284', 'p268', 'p307', 'p256', 'p318']","[1, 3, 10, 8, 2]","[86.2038576498559, 89.14911522239515, 93.00003341222717, 92.0152836843556, 87.57049330475357]",3.0,False,6.8,3.96232255123179,2.1248528957366943,0.86916354556804
0,,sub_108,2024-07-01 10:36:38,3,distance,cathedral,numerosity_judgement,1,19,6,countries_forward,"['_Congo_', '_Togo_', '_Tonga_', '_Cuba_', '_Britain_', '_Yemen_']","['m', 'f', 'f', 'm', 'f', 'm']","['p318', 'p268', 'p248', 'p307', 'p245', 'p256']","[9, 10, 8, 2, 6, 7]","[92.00610777531934, 93.00003341222717, 92.0152836843556, 87.57049330475357, 91.58892582949886, 91.73820004985969]",4.0,False,9.0,2.8284271247461903,1.9373669624328613,0.8016910679832028
0,,sub_108,2024-07-01 10:36:42,3,distance,cathedral,numerosity_judgement,1,20,5,countries_forward,"['_Syria_', '_Congo_', '_Belgium_', '_Britain_', '_Cuba_']","['m', 'f', 'm', 'm', 'f']","['p256', 'p245', 'p318', 'p307', 'p284']","[5, 7, 9, 8, 10]","[90.34149293193902, 91.73820004985969, 92.00610777531934, 92.0152836843556, 93.00003341222717]",3.0,False,9.8,1.9235384061671346,1.9061195850372314,0.8745999319033027
0,,sub_108,2024-07-01 10:36:48,3,distance,cathedral,numerosity_judgement,1,21,3,countries_forward,"['_Cuba_', '_Mali_', '_Japan_']","['m', 'm', 'm']","['p229', 'p256', 'p318']","[8, 4, 7]","[92.0152836843556, 89.31368318402099, 91.73820004985969]",2.0,False,8.333333333333334,2.0816659994661326,2.2185347080230713,0.8135739416638293
0,,sub_108,2024-07-01 10:36:52,3,distance,cathedral,numerosity_judgement,1,22,4,countries_forward,"['_Congo_', '_Oman_', '_Peru_', '_Yemen_']","['m', 'm', 'f', 'f']","['p307', 'p229', 'p284', 'p248']","[3, 10, 2, 6]","[89.14911522239515, 93.00003341222717, 87.57049330475357, 91.58892582949886]",3.0,False,7.25,3.593976442141304,2.4373316764831543,0.672829417773238
0,,sub_108,2024-07-01 10:36:55,3,distance,cathedral,numerosity_judgement,1,23,2,countries_forward,"['_Cuba_', '_Peru_']","['f', 'm']","['p245', 'p307']","[5, 3]","[90.34149293193902, 89.14911522239515]",2.0,True,6.0,1.4142135623730951,1.3749046325683594,0.6631937351038475
0,,sub_108,2024-07-01 10:36:58,3,distance,cathedral,numerosity_judgement,1,24,6,countries_forward,"['_Sudan_', '_Oman_', '_Syria_', '_Britain_', '_Mali_', '_Tonga_']","['m', 'f', 'f', 'm', 'm', 'f']","['p229', 'p284', 'p248', 'p256', 'p318', 'p245']","[2, 9, 4, 6, 5, 8]","[87.57049330475357, 92.00610777531934, 89.31368318402099, 91.58892582949886, 90.34149293193902, 92.0152836843556]",5.0,False,7.666666666666667,2.581988897471611,1.374925136566162,0.9578821927136534
0,,sub_108,2024-07-01 10:37:01,3,distance,cathedral,numerosity_judgement,1,25,2,countries_forward,"['_Tonga_', '_Oman_']","['f', 'm']","['p248', 'p307']","[0, 5]","[84.40078082039426, 90.34149293193902]",2.0,True,4.5,3.5355339059327378,1.3124020099639893,0.6384632845307002
0,,sub_108,2024-07-01 10:37:05,3,distance,cathedral,numerosity_judgement,1,26,4,countries_forward,"['_Mali_', '_Sudan_', '_Tonga_', '_Togo_']","['f', 'f', 'f', 'f']","['p284', 'p268', 'p248', 'p245']","[6, 9, 4, 2]","[91.58892582949886, 92.00610777531934, 89.31368318402099, 87.57049330475357]",3.0,False,7.25,2.9860788111948193,2.1872875690460205,0.9554874588582454
0,,sub_108,2024-07-01 10:37:08,3,distance,cathedral,numerosity_judgement,1,27,5,countries_forward,"['_Togo_', '_Yemen_', '_Oman_', '_Britain_', '_Congo_']","['m', 'f', 'm', 'm', 'm']","['p307', 'p245', 'p256', 'p229', 'p318']","[8, 2, 3, 0, 6]","[92.0152836843556, 87.57049330475357, 89.14911522239515, 84.40078082039426, 91.58892582949886]",4.0,False,5.8,3.1937438845342623,1.4999275207519531,0.814708886618999
0,,sub_108,2024-07-01 10:37:12,3,distance,cathedral,numerosity_judgement,1,28,6,countries_forward,"['_Belgium_', '_Sudan_', '_Britain_', '_Togo_', '_Congo_', '_Japan_']","['f', 'm', 'm', 'm', 'f', 'm']","['p245', 'p256', 'p307', 'p318', 'p268', 'p229']","[0, 8, 6, 9, 10, 5]","[84.40078082039426, 92.0152836843556, 91.58892582949886, 92.00610777531934, 93.00003341222717, 90.34149293193902]",5.0,False,8.333333333333334,3.6147844564602556,1.9998574256896973,0.8778231755759845
0,,sub_108,2024-07-01 10:37:16,3,distance,cathedral,numerosity_judgement,1,29,3,countries_forward,"['_Peru_', '_Togo_', '_Oman_']","['f', 'm', 'f']","['p268', 'p307', 'p245']","[3, 5, 10]","[89.14911522239515, 90.34149293193902, 93.00003341222717]",3.0,True,8.0,3.605551275463989,1.4999034404754639,0.6693905345590739
0,,sub_108,2024-07-01 10:37:19,3,distance,cathedral,numerosity_judgement,1,30,2,countries_forward,"['_Sudan_', '_Belgium_']","['f', 'f']","['p248', 'p245']","[5, 0]","[90.34149293193902, 84.40078082039426]",2.0,True,4.5,3.5355339059327378,1.437398910522461,0.9149131767109296
0,,sub_108,2024-07-01 10:37:23,3,distance,cathedral,numerosity_judgement,1,31,6,countries_forward,"['_Yemen_', '_Belgium_', '_Oman_', '_Cuba_', '_Mali_', '_Peru_']","['m', 'm', 'm', 'f', 'f', 'f']","['p318', 'p307', 'p256', 'p245', 'p248', 'p268']","[8, 0, 1, 3, 6, 4]","[92.0152836843556, 84.40078082039426, 86.2038576498559, 89.14911522239515, 91.58892582949886, 89.31368318402099]",3.0,False,5.666666666666667,3.011090610836324,1.999861717224121,0.7344796277380548
0,,sub_108,2024-07-01 10:37:27,3,distance,cathedral,numerosity_judgement,1,32,4,countries_forward,"['_Cuba_', '_Yemen_', '_Congo_', '_Oman_']","['m', 'f', 'f', 'f']","['p307', 'p268', 'p245', 'p248']","[7, 8, 4, 3]","[91.73820004985969, 92.0152836843556, 89.31368318402099, 89.14911522239515]",3.0,False,7.5,2.3804761428476167,2.374863624572754,0.629043241402792
0,,sub_108,2024-07-01 10:37:31,3,distance,cathedral,numerosity_judgement,1,33,5,countries_forward,"['_Tonga_', '_Peru_', '_Togo_', '_Japan_', '_Sudan_']","['m', 'f', 'f', 'm', 'f']","['p229', 'p245', 'p284', 'p318', 'p268']","[0, 8, 2, 4, 6]","[84.40078082039426, 92.0152836843556, 87.57049330475357, 89.31368318402099, 91.58892582949886]",5.0,True,6.0,3.1622776601683795,1.874870777130127,0.933571671773919
0,,sub_108,2024-07-01 10:37:34,3,distance,cathedral,numerosity_judgement,1,34,3,countries_forward,"['_Peru_', '_Yemen_', '_Oman_']","['m', 'f', 'f']","['p229', 'p268', 'p245']","[1, 0, 4]","[86.2038576498559, 84.40078082039426, 89.31368318402099]",3.0,True,3.6666666666666665,2.081665999466133,1.624819278717041,0.7911814776983316
0,,sub_108,2024-07-01 10:37:38,3,distance,cathedral,numerosity_judgement,1,35,4,countries_forward,"['_Japan_', '_Cuba_', '_Mali_', '_Oman_']","['m', 'f', 'm', 'm']","['p307', 'p245', 'p229', 'p256']","[2, 7, 6, 3]","[87.57049330475357, 91.73820004985969, 91.58892582949886, 89.14911522239515]",4.0,True,6.5,2.3804761428476167,1.9373695850372314,0.7290545908523437
0,,sub_108,2024-07-01 10:37:41,3,distance,cathedral,numerosity_judgement,1,36,2,countries_forward,"['_Oman_', '_Yemen_']","['m', 'f']","['p307', 'p245']","[6, 10]","[91.58892582949886, 93.00003341222717]",2.0,True,10.0,2.8284271247461903,1.7498853206634521,0.5938372488934287
0,,sub_108,2024-07-01 10:37:45,3,distance,cathedral,numerosity_judgement,1,37,6,countries_forward,"['_Togo_', '_Japan_', '_Cuba_', '_Peru_', '_Mali_', '_Belgium_']","['f', 'm', 'f', 'm', 'f', 'f']","['p248', 'p307', 'p245', 'p318', 'p284', 'p268']","[9, 2, 5, 8, 4, 7]","[92.00610777531934, 87.57049330475357, 90.34149293193902, 92.0152836843556, 89.31368318402099, 91.73820004985969]",4.0,False,7.833333333333333,2.6394443859772205,2.062378168106079,0.8517875383043922
0,,sub_108,2024-07-01 10:37:49,3,distance,cathedral,numerosity_judgement,1,38,3,countries_forward,"['_Tonga_', '_Oman_', '_Japan_']","['f', 'm', 'f']","['p284', 'p229', 'p268']","[1, 0, 9]","[86.2038576498559, 84.40078082039426, 92.00610777531934]",3.0,True,5.333333333333333,4.932882862316247,2.124845504760742,0.9175575984564748
0,,sub_108,2024-07-01 10:37:54,3,distance,cathedral,numerosity_judgement,1,39,5,countries_forward,"['_Congo_', '_Japan_', '_Peru_', '_Togo_', '_Mali_']","['f', 'm', 'm', 'm', 'm']","['p284', 'p229', 'p307', 'p318', 'p256']","[6, 7, 10, 1, 3]","[91.58892582949886, 91.73820004985969, 93.00003341222717, 86.2038576498559, 89.14911522239515]",4.0,False,7.4,3.5071355833500366,3.562253952026367,0.8060833049597095
0,,sub_108,2024-07-01 10:37:57,3,distance,cathedral,numerosity_judgement,1,40,3,countries_forward,"['_Togo_', '_Belgium_', '_Syria_']","['m', 'm', 'm']","['p318', 'p256', 'p229']","[8, 7, 1]","[92.0152836843556, 91.73820004985969, 86.2038576498559]",3.0,True,7.333333333333333,3.7859388972001824,1.6874394416809082,0.9043808875269548
0,,sub_108,2024-07-01 10:38:02,3,distance,cathedral,numerosity_judgement,1,41,5,countries_forward,"['_Cuba_', '_Yemen_', '_Oman_', '_Japan_', '_Belgium_']","['m', 'f', 'm', 'f', 'm']","['p229', 'p248', 'p256', 'p268', 'p307']","[6, 7, 5, 8, 1]","[91.58892582949886, 91.73820004985969, 90.34149293193902, 92.0152836843556, 86.2038576498559]",4.0,False,7.4,2.701851217221259,2.124800682067871,0.751685393258427
0,,sub_108,2024-07-01 10:38:04,3,distance,cathedral,numerosity_judgement,1,42,2,countries_forward,"['_Peru_', '_Britain_']","['f', 'm']","['p284', 'p318']","[2, 8]","[87.57049330475357, 92.0152836843556]",3.0,False,7.0,4.242640687119285,1.4998962879180908,0.7409601634320735
0,,sub_108,2024-07-01 10:38:10,3,distance,cathedral,numerosity_judgement,1,43,6,countries_forward,"['_Oman_', '_Tonga_', '_Japan_', '_Yemen_', '_Cuba_', '_Mali_']","['m', 'f', 'f', 'm', 'm', 'f']","['p318', 'p245', 'p268', 'p256', 'p307', 'p284']","[5, 4, 3, 10, 1, 0]","[90.34149293193902, 89.31368318402099, 89.14911522239515, 93.00003341222717, 86.2038576498559, 84.40078082039426]",4.0,False,5.833333333333333,3.5449494589721118,3.1247918605804443,0.7596640562932698
0,,sub_108,2024-07-01 10:38:14,3,distance,cathedral,numerosity_judgement,1,44,4,countries_forward,"['_Cuba_', '_Yemen_', '_Tonga_', '_Togo_']","['m', 'f', 'f', 'f']","['p307', 'p248', 'p245', 'p268']","[0, 3, 2, 8]","[84.40078082039426, 89.14911522239515, 87.57049330475357, 92.0152836843556]",3.0,False,5.25,3.4034296427770228,2.874800682067871,0.7674157303370787
0,,sub_108,2024-07-01 10:38:18,3,distance,cathedral,numerosity_judgement,1,45,2,countries_forward,"['_Oman_', '_Britain_']","['m', 'm']","['p229', 'p318']","[3, 7]","[89.14911522239515, 91.73820004985969]",2.0,True,7.0,2.8284271247461903,1.8748779296875,0.7151401657019635
0,,sub_108,2024-07-01 10:38:22,3,distance,cathedral,numerosity_judgement,1,46,4,countries_forward,"['_Oman_', '_Yemen_', '_Mali_', '_Congo_']","['m', 'f', 'm', 'm']","['p229', 'p248', 'p318', 'p256']","[9, 6, 4, 3]","[92.00610777531934, 91.58892582949886, 89.31368318402099, 89.14911522239515]",4.0,True,7.5,2.6457513110645907,3.124825954437256,0.7207240948813982
0,,sub_108,2024-07-01 10:38:27,3,distance,cathedral,numerosity_judgement,1,47,3,countries_forward,"['_Oman_', '_Peru_', '_Britain_']","['m', 'f', 'm']","['p256', 'p268', 'p318']","[10, 4, 3]","[93.00003341222717, 89.31368318402099, 89.14911522239515]",2.0,False,7.666666666666667,3.7859388972001824,2.9997923374176025,0.6588241970264442
0,,sub_108,2024-07-01 10:38:31,3,distance,cathedral,numerosity_judgement,1,48,6,countries_forward,"['_Mali_', '_Cuba_', '_Britain_', '_Belgium_', '_Syria_', '_Togo_']","['m', 'f', 'm', 'm', 'f', 'f']","['p229', 'p245', 'p307', 'p318', 'p284', 'p268']","[6, 1, 0, 5, 3, 2]","[91.58892582949886, 86.2038576498559, 84.40078082039426, 90.34149293193902, 89.14911522239515, 87.57049330475357]",4.0,False,4.833333333333333,2.316606713852541,2.1247870922088623,0.9443422993984792
0,,sub_108,2024-07-01 10:38:36,3,distance,cathedral,numerosity_judgement,1,49,5,countries_forward,"['_Mali_', '_Japan_', '_Yemen_', '_Peru_', '_Congo_']","['f', 'm', 'm', 'm', 'm']","['p245', 'p307', 'p318', 'p256', 'p229']","[7, 2, 3, 1, 6]","[91.73820004985969, 87.57049330475357, 89.14911522239515, 86.2038576498559, 91.58892582949886]",3.0,False,5.8,2.588435821108957,2.624819278717041,0.7641130405175349
0,,sub_108,2024-07-01 10:38:40,3,distance,cathedral,numerosity_judgement,1,50,4,countries_forward,"['_Togo_', '_Cuba_', '_Japan_', '_Oman_']","['m', 'f', 'f', 'f']","['p256', 'p248', 'p245', 'p284']","[7, 8, 4, 5]","[91.73820004985969, 92.0152836843556, 89.31368318402099, 90.34149293193902]",4.0,True,8.0,1.8257418583505538,1.9998066425323486,0.8604925661105436
0,,sub_108,2024-07-01 10:38:43,3,distance,cathedral,numerosity_judgement,1,51,2,countries_forward,"['_Syria_', '_Mali_']","['m', 'f']","['p307', 'p268']","[9, 8]","[92.00610777531934, 92.0152836843556]",2.0,True,10.5,0.7071067811865476,1.9373226165771484,0.8861650209964816
0,,sub_108,2024-07-01 10:38:48,3,distance,cathedral,numerosity_judgement,1,52,6,countries_forward,"['_Britain_', '_Yemen_', '_Mali_', '_Tonga_', '_Syria_', '_Cuba_']","['m', 'm', 'f', 'f', 'm', 'm']","['p256', 'p229', 'p268', 'p248', 'p307', 'p318']","[3, 10, 9, 1, 8, 7]","[89.14911522239515, 93.00003341222717, 92.00610777531934, 86.2038576498559, 92.0152836843556, 91.73820004985969]",2.0,False,8.333333333333334,3.559026084010437,3.2497718334198,0.8388605152650096
0,,sub_108,2024-07-01 10:38:53,3,distance,cathedral,numerosity_judgement,1,53,5,countries_forward,"['_Peru_', '_Mali_', '_Japan_', '_Sudan_', '_Congo_']","['m', 'm', 'm', 'm', 'f']","['p307', 'p256', 'p318', 'p229', 'p245']","[8, 4, 10, 9, 7]","[92.0152836843556, 89.31368318402099, 93.00003341222717, 92.00610777531934, 91.73820004985969]",3.0,False,9.6,2.3021728866442674,2.562324047088623,0.9186471456134376
0,,sub_108,2024-07-01 10:38:56,3,distance,cathedral,numerosity_judgement,1,54,3,countries_forward,"['_Congo_', '_Oman_', '_Britain_']","['m', 'f', 'm']","['p256', 'p268', 'p318']","[7, 10, 9]","[91.73820004985969, 93.00003341222717, 92.00610777531934]",2.0,False,10.666666666666666,1.5275252316519468,1.9999125003814697,0.7139484734990353
0,,sub_108,2024-07-01 10:39:01,3,distance,cathedral,numerosity_judgement,1,55,5,countries_forward,"['_Yemen_', '_Peru_', '_Cuba_', '_Congo_', '_Japan_']","['f', 'm', 'f', 'm', 'm']","['p268', 'p229', 'p245', 'p256', 'p307']","[3, 7, 10, 4, 6]","[89.14911522239515, 91.73820004985969, 93.00003341222717, 89.31368318402099, 91.58892582949886]",3.0,False,8.0,2.7386127875258306,2.9997928142547607,0.777618885484054
0,,sub_108,2024-07-01 10:39:05,3,distance,cathedral,numerosity_judgement,1,56,4,countries_forward,"['_Congo_', '_Peru_', '_Belgium_', '_Tonga_']","['f', 'f', 'm', 'm']","['p245', 'p248', 'p318', 'p256']","[10, 7, 5, 1]","[93.00003341222717, 91.73820004985969, 90.34149293193902, 86.2038576498559]",3.0,False,7.75,3.774917217635375,2.1248514652252197,0.9002837362387924
0,,sub_108,2024-07-01 10:39:09,3,distance,cathedral,numerosity_judgement,1,57,6,countries_forward,"['_Yemen_', '_Tonga_', '_Mali_', '_Cuba_', '_Togo_', '_Congo_']","['m', 'f', 'f', 'm', 'm', 'f']","['p318', 'p268', 'p248', 'p307', 'p256', 'p245']","[5, 3, 10, 7, 2, 4]","[90.34149293193902, 89.14911522239515, 93.00003341222717, 91.73820004985969, 87.57049330475357, 89.31368318402099]",3.0,False,7.166666666666667,2.9268868558020253,2.374835729598999,0.6946544092611509
0,,sub_108,2024-07-01 10:39:12,3,distance,cathedral,numerosity_judgement,1,58,2,countries_forward,"['_Tonga_', '_Congo_']","['m', 'f']","['p307', 'p268']","[3, 5]","[89.14911522239515, 90.34149293193902]",2.0,True,6.0,1.4142135623730951,1.4687154293060303,0.7986494155033481
0,,sub_108,2024-07-01 10:39:17,3,distance,cathedral,numerosity_judgement,1,59,3,countries_forward,"['_Britain_', '_Oman_', '_Japan_']","['f', 'f', 'f']","['p248', 'p268', 'p284']","[1, 8, 5]","[86.2038576498559, 92.0152836843556, 90.34149293193902]",2.0,False,6.666666666666667,3.5118845842842465,2.749809980392456,0.93645443196005
0,,sub_108,2024-07-01 10:39:21,3,distance,cathedral,numerosity_judgement,1,60,4,countries_forward,"['_Syria_', '_Japan_', '_Oman_', '_Cuba_']","['m', 'f', 'm', 'f']","['p307', 'p245', 'p318', 'p268']","[1, 7, 10, 4]","[86.2038576498559, 91.73820004985969, 93.00003341222717, 89.31368318402099]",3.0,False,7.5,3.872983346207417,2.4373972415924072,0.7898535921007831
0,,sub_108,2024-07-01 10:39:25,3,distance,cathedral,numerosity_judgement,1,61,5,countries_forward,"['_Yemen_', '_Sudan_', '_Peru_', '_Tonga_', '_Congo_']","['m', 'f', 'm', 'f', 'm']","['p318', 'p268', 'p229', 'p284', 'p307']","[1, 4, 0, 10, 8]","[86.2038576498559, 89.31368318402099, 84.40078082039426, 93.00003341222717, 92.0152836843556]",3.0,False,6.6,4.33589667773576,2.3123390674591064,0.9571671773918964
0,,sub_108,2024-07-01 10:39:29,3,distance,cathedral,numerosity_judgement,1,62,3,countries_forward,"['_Yemen_', '_Cuba_', '_Belgium_']","['f', 'm', 'm']","['p245', 'p229', 'p318']","[3, 5, 8]","[89.14911522239515, 90.34149293193902, 92.0152836843556]",2.0,False,7.333333333333333,2.516611478423583,2.4373371601104736,0.7531608217001475
0,,sub_108,2024-07-01 10:39:32,3,distance,cathedral,numerosity_judgement,1,63,2,countries_forward,"['_Syria_', '_Belgium_']","['f', 'm']","['p245', 'p318']","[1, 2]","[86.2038576498559, 87.57049330475357]",2.0,True,3.5,0.7071067811865476,1.6873278617858887,0.9564521620701396
0,,sub_108,2024-07-01 10:39:37,3,distance,cathedral,numerosity_judgement,1,64,6,countries_forward,"['_Sudan_', '_Syria_', '_Japan_', '_Togo_', '_Britain_', '_Cuba_']","['m', 'f', 'f', 'f', 'm', 'm']","['p229', 'p284', 'p245', 'p248', 'p307', 'p256']","[2, 4, 5, 3, 0, 6]","[87.57049330475357, 89.31368318402099, 90.34149293193902, 89.14911522239515, 84.40078082039426, 91.58892582949886]",4.0,False,5.333333333333333,2.160246899469287,2.1248321533203125,0.9211213256157076
0,,sub_108,2024-07-01 10:39:40,3,distance,cathedral,numerosity_judgement,1,65,2,countries_forward,"['_Cuba_', '_Peru_']","['f', 'f']","['p245', 'p284']","[6, 3]","[91.58892582949886, 89.14911522239515]",2.0,True,6.5,2.1213203435596424,2.1873488426208496,0.7621836340937465
0,,sub_108,2024-07-01 10:39:44,3,distance,cathedral,numerosity_judgement,1,66,3,countries_forward,"['_Yemen_', '_Oman_', '_Britain_']","['f', 'm', 'm']","['p248', 'p229', 'p307']","[10, 3, 6]","[93.00003341222717, 89.14911522239515, 91.58892582949886]",3.0,True,8.333333333333334,3.511884584284246,2.2185847759246826,0.6105209397344229
0,,sub_108,2024-07-01 10:39:49,3,distance,cathedral,numerosity_judgement,1,67,5,countries_forward,"['_Yemen_', '_Oman_', '_Peru_', '_Mali_', '_Congo_']","['m', 'm', 'f', 'f', 'm']","['p256', 'p307', 'p268', 'p248', 'p229']","[7, 5, 4, 0, 9]","[91.73820004985969, 90.34149293193902, 89.31368318402099, 84.40078082039426, 92.00610777531934]",5.0,True,7.0,3.391164991562634,2.1873538494110107,0.6961865849506299
0,,sub_108,2024-07-01 10:39:54,3,distance,cathedral,numerosity_judgement,1,68,6,countries_forward,"['_Tonga_', '_Oman_', '_Britain_', '_Yemen_', '_Congo_', '_Japan_']","['f', 'm', 'm', 'm', 'm', 'f']","['p248', 'p229', 'p318', 'p256', 'p307', 'p284']","[3, 6, 10, 4, 7, 2]","[89.14911522239515, 91.58892582949886, 93.00003341222717, 89.31368318402099, 91.73820004985969, 87.57049330475357]",3.0,False,7.333333333333333,2.943920288775949,2.1248536109924316,0.7853592100783112
0,,sub_108,2024-07-01 10:39:59,3,distance,cathedral,numerosity_judgement,1,69,4,countries_forward,"['_Mali_', '_Congo_', '_Belgium_', '_Britain_']","['f', 'm', 'f', 'f']","['p245', 'p307', 'p268', 'p284']","[2, 3, 6, 7]","[87.57049330475357, 89.14911522239515, 91.58892582949886, 91.73820004985969]",3.0,False,6.5,2.3804761428476167,3.374739408493042,0.8764498921802293
0,,sub_108,2024-07-01 10:40:02,3,distance,cathedral,numerosity_judgement,1,70,2,countries_forward,"['_Yemen_', '_Tonga_']","['f', 'm']","['p268', 'p229']","[4, 5]","[89.31368318402099, 90.34149293193902]",2.0,True,6.5,0.7071067811865476,1.3779656887054443,0.8175462490069232
0,,sub_108,2024-07-01 10:40:05,3,distance,cathedral,numerosity_judgement,1,71,3,countries_forward,"['_Belgium_', '_Congo_', '_Sudan_']","['m', 'm', 'f']","['p307', 'p318', 'p268']","[2, 1, 8]","[87.57049330475357, 86.2038576498559, 92.0152836843556]",4.0,False,5.666666666666667,3.7859388972001824,2.062357187271118,0.964374077857224
0,,sub_108,2024-07-01 10:40:10,3,distance,cathedral,numerosity_judgement,1,72,5,countries_forward,"['_Yemen_', '_Peru_', '_Cuba_', '_Congo_', '_Oman_']","['f', 'f', 'm', 'm', 'f']","['p245', 'p284', 'p307', 'p256', 'p268']","[6, 9, 10, 8, 5]","[91.58892582949886, 92.00610777531934, 93.00003341222717, 92.0152836843556, 90.34149293193902]",4.0,False,9.6,2.073644135332772,2.374835968017578,0.7225854046078766
0,,sub_108,2024-07-01 10:40:15,3,distance,cathedral,numerosity_judgement,1,73,6,countries_forward,"['_Tonga_', '_Togo_', '_Japan_', '_Peru_', '_Congo_', '_Oman_']","['f', 'f', 'm', 'f', 'm', 'm']","['p268', 'p245', 'p318', 'p248', 'p256', 'p307']","[0, 9, 8, 5, 10, 2]","[84.40078082039426, 92.00610777531934, 92.0152836843556, 90.34149293193902, 93.00003341222717, 87.57049330475357]",4.0,False,7.666666666666667,4.033195589934446,3.2498347759246826,0.8873226648507547
0,,sub_108,2024-07-01 10:40:18,3,distance,cathedral,numerosity_judgement,1,74,4,countries_forward,"['_Tonga_', '_Peru_', '_Oman_', '_Britain_']","['f', 'f', 'm', 'f']","['p245', 'p248', 'p256', 'p268']","[7, 0, 9, 2]","[91.73820004985969, 84.40078082039426, 92.00610777531934, 87.57049330475357]",3.0,False,6.5,4.203173404306164,1.5624427795410156,0.6797185336511179
0,,sub_108,2024-07-01 10:41:20,3,distance,cathedral,numerosity_judgement,2,0,4,countries_forward,"['_Tonga_', '_Britain_', '_Congo_', '_Cuba_']","['f', 'm', 'f', 'm']","['p284', 'p229', 'p248', 'p318']","[7, 10, 5, 3]","[91.73820004985969, 93.00003341222717, 90.34149293193902, 89.14911522239515]",3.0,False,8.25,2.9860788111948193,2.249846935272217,0.8157076381795483
0,,sub_108,2024-07-01 10:41:25,3,distance,cathedral,numerosity_judgement,2,1,6,countries_forward,"['_Yemen_', '_Togo_', '_Syria_', '_Sudan_', '_Peru_', '_Congo_']","['f', 'f', 'm', 'm', 'm', 'm']","['p284', 'p268', 'p256', 'p318', 'p307', 'p229']","[1, 9, 0, 10, 3, 2]","[86.2038576498559, 92.00610777531934, 84.40078082039426, 93.00003341222717, 89.14911522239515, 87.57049330475357]",4.0,False,6.166666666666667,4.262237284181474,2.8748013973236084,0.9354329815003972
0,,sub_108,2024-07-01 10:41:28,3,distance,cathedral,numerosity_judgement,2,2,5,countries_forward,"['_Mali_', '_Cuba_', '_Oman_', '_Yemen_', '_Congo_']","['f', 'm', 'm', 'm', 'f']","['p245', 'p229', 'p256', 'p307', 'p248']","[5, 3, 6, 1, 10]","[90.34149293193902, 89.14911522239515, 91.58892582949886, 86.2038576498559, 93.00003341222717]",3.0,False,7.0,3.391164991562634,1.5624196529388428,0.7434570423334468
0,,sub_108,2024-07-01 10:41:32,3,distance,cathedral,numerosity_judgement,2,3,3,countries_forward,"['_Togo_', '_Tonga_', '_Yemen_']","['m', 'f', 'f']","['p307', 'p245', 'p248']","[4, 7, 8]","[89.31368318402099, 91.73820004985969, 92.0152836843556]",2.0,False,8.333333333333334,2.0816659994661326,1.874870777130127,0.7220406310293951
0,,sub_108,2024-07-01 10:41:35,3,distance,cathedral,numerosity_judgement,2,4,2,countries_forward,"['_Congo_', '_Yemen_']","['m', 'm']","['p229', 'p256']","[0, 10]","[84.40078082039426, 93.00003341222717]",2.0,True,7.0,7.0710678118654755,1.9373667240142822,0.7137555328566565
0,,sub_108,2024-07-01 10:41:38,3,distance,cathedral,numerosity_judgement,2,5,3,countries_forward,"['_Yemen_', '_Sudan_', '_Mali_']","['m', 'f', 'f']","['p256', 'p284', 'p248']","[6, 8, 3]","[91.58892582949886, 92.0152836843556, 89.14911522239515]",2.0,False,7.666666666666667,2.516611478423583,1.8123745918273926,0.8791964589717399
0,,sub_108,2024-07-01 10:41:41,3,distance,cathedral,numerosity_judgement,2,6,2,countries_forward,"['_Cuba_', '_Peru_']","['m', 'f']","['p307', 'p268']","[7, 4]","[91.73820004985969, 89.31368318402099]",2.0,True,7.5,2.1213203435596424,1.5623927116394043,0.6280104414935875
0,,sub_108,2024-07-01 10:41:45,3,distance,cathedral,numerosity_judgement,2,7,4,countries_forward,"['_Mali_', '_Syria_', '_Congo_', '_Oman_']","['m', 'f', 'f', 'm']","['p318', 'p245', 'p268', 'p229']","[5, 2, 0, 6]","[90.34149293193902, 87.57049330475357, 84.40078082039426, 91.58892582949886]",4.0,True,5.25,2.753785273643051,1.9998619556427002,0.9401089547156964
0,,sub_108,2024-07-01 10:41:49,3,distance,cathedral,numerosity_judgement,2,8,6,countries_forward,"['_Syria_', '_Belgium_', '_Oman_', '_Peru_', '_Togo_', '_Mali_']","['m', 'f', 'm', 'f', 'f', 'm']","['p256', 'p245', 'p307', 'p284', 'p268', 'p318']","[3, 9, 4, 8, 1, 6]","[89.14911522239515, 92.00610777531934, 89.31368318402099, 92.0152836843556, 86.2038576498559, 91.58892582949886]",4.0,False,7.166666666666667,3.0605010483034745,2.249844789505005,0.8489274770173647
0,,sub_108,2024-07-01 10:41:53,3,distance,cathedral,numerosity_judgement,2,9,5,countries_forward,"['_Tonga_', '_Congo_', '_Peru_', '_Sudan_', '_Britain_']","['f', 'm', 'f', 'm', 'f']","['p248', 'p229', 'p245', 'p307', 'p284']","[8, 7, 9, 5, 2]","[92.0152836843556, 91.73820004985969, 92.00610777531934, 90.34149293193902, 87.57049330475357]",5.0,True,8.2,2.7748873851023217,1.9998624324798584,0.9013051866984452
0,,sub_108,2024-07-01 10:41:57,3,distance,cathedral,numerosity_judgement,2,10,4,countries_forward,"['_Tonga_', '_Togo_', '_Syria_', '_Yemen_']","['f', 'f', 'm', 'm']","['p248', 'p268', 'p229', 'p307']","[7, 3, 9, 4]","[91.73820004985969, 89.14911522239515, 92.00610777531934, 89.31368318402099]",4.0,True,7.75,2.753785273643051,1.9998619556427002,0.8881852230166837
0,,sub_108,2024-07-01 10:42:01,3,distance,cathedral,numerosity_judgement,2,11,6,countries_forward,"['_Mali_', '_Sudan_', '_Oman_', '_Peru_', '_Cuba_', '_Tonga_']","['f', 'm', 'm', 'f', 'm', 'm']","['p245', 'p256', 'p318', 'p284', 'p307', 'p229']","[0, 6, 7, 8, 5, 2]","[84.40078082039426, 91.58892582949886, 91.73820004985969, 92.0152836843556, 90.34149293193902, 87.57049330475357]",3.0,False,6.666666666666667,3.0767948691238205,1.8749003410339355,0.7939280444898422
0,,sub_108,2024-07-01 10:42:04,3,distance,cathedral,numerosity_judgement,2,12,3,countries_forward,"['_Yemen_', '_Oman_', '_Togo_']","['f', 'm', 'f']","['p245', 'p307', 'p268']","[6, 4, 2]","[91.58892582949886, 89.31368318402099, 87.57049330475357]",2.0,False,6.0,2.0,1.3749630451202393,0.6543865622517308
0,,sub_108,2024-07-01 10:42:08,3,distance,cathedral,numerosity_judgement,2,13,5,countries_forward,"['_Syria_', '_Japan_', '_Britain_', '_Belgium_', '_Peru_']","['m', 'f', 'm', 'f', 'f']","['p307', 'p268', 'p229', 'p284', 'p248']","[2, 1, 3, 9, 0]","[87.57049330475357, 86.2038576498559, 89.14911522239515, 92.00610777531934, 84.40078082039426]",3.0,False,5.0,3.5355339059327378,1.9374282360076904,0.9349676540687776
0,,sub_108,2024-07-01 10:42:11,3,distance,cathedral,numerosity_judgement,2,14,2,countries_forward,"['_Yemen_', '_Britain_']","['m', 'f']","['p229', 'p245']","[3, 6]","[89.14911522239515, 91.58892582949886]",2.0,True,6.5,2.1213203435596424,1.6873838901519775,0.7297809556236523
0,,sub_108,2024-07-01 10:42:14,3,distance,cathedral,numerosity_judgement,2,15,3,countries_forward,"['_Congo_', '_Belgium_', '_Britain_']","['m', 'f', 'm']","['p256', 'p284', 'p318']","[0, 9, 2]","[84.40078082039426, 92.00610777531934, 87.57049330475357]",2.0,False,5.666666666666667,4.725815626252608,1.6874454021453857,0.9602428782204064
0,,sub_108,2024-07-01 10:42:18,3,distance,cathedral,numerosity_judgement,2,16,2,countries_forward,"['_Belgium_', '_Syria_']","['f', 'f']","['p268', 'p248']","[8, 10]","[92.0152836843556, 93.00003341222717]",3.0,False,11.0,1.4142135623730951,1.9373657703399658,0.938962660310975
0,,sub_108,2024-07-01 10:42:22,3,distance,cathedral,numerosity_judgement,2,17,5,countries_forward,"['_Peru_', '_Cuba_', '_Syria_', '_Japan_', '_Tonga_']","['f', 'm', 'f', 'f', 'f']","['p268', 'p307', 'p284', 'p248', 'p245']","[6, 7, 8, 4, 10]","[91.58892582949886, 91.73820004985969, 92.0152836843556, 89.31368318402099, 93.00003341222717]",2.0,False,9.0,2.23606797749979,1.9998626708984375,0.7940301895358075
0,,sub_108,2024-07-01 10:42:25,3,distance,cathedral,numerosity_judgement,2,18,4,countries_forward,"['_Mali_', '_Cuba_', '_Togo_', '_Syria_']","['f', 'f', 'f', 'm']","['p245', 'p248', 'p284', 'p256']","[2, 10, 0, 1]","[87.57049330475357, 93.00003341222717, 84.40078082039426, 86.2038576498559]",2.0,False,5.25,4.573474244670748,1.5623924732208252,0.8717739189649302
0,,sub_108,2024-07-01 10:42:31,3,distance,cathedral,numerosity_judgement,2,19,6,countries_forward,"['_Sudan_', '_Cuba_', '_Belgium_', '_Togo_', '_Oman_', '_Britain_']","['m', 'f', 'm', 'm', 'f', 'm']","['p318', 'p284', 'p256', 'p229', 'p248', 'p307']","[2, 5, 3, 1, 9, 7]","[87.57049330475357, 90.34149293193902, 89.14911522239515, 86.2038576498559, 92.00610777531934, 91.73820004985969]",2.0,False,6.5,3.082207001484488,4.312199831008911,0.9143116558846895
0,,sub_108,2024-07-01 10:42:35,3,distance,cathedral,numerosity_judgement,2,20,3,countries_forward,"['_Yemen_', '_Mali_', '_Peru_']","['m', 'f', 'f']","['p256', 'p245', 'p284']","[9, 7, 3]","[92.00610777531934, 91.73820004985969, 89.14911522239515]",2.0,False,8.333333333333334,3.055050463303893,2.312340497970581,0.6834979003518329
0,,sub_108,2024-07-01 10:42:39,3,distance,cathedral,numerosity_judgement,2,21,5,countries_forward,"['_Togo_', '_Mali_', '_Japan_', '_Syria_', '_Oman_']","['m', 'm', 'f', 'm', 'f']","['p229', 'p256', 'p284', 'p307', 'p268']","[4, 6, 8, 3, 2]","[89.31368318402099, 91.58892582949886, 92.0152836843556, 89.14911522239515, 87.57049330475357]",3.0,False,6.6,2.4083189157584592,1.8748705387115479,0.874214050618545
0,,sub_108,2024-07-01 10:42:42,3,distance,cathedral,numerosity_judgement,2,22,2,countries_forward,"['_Britain_', '_Oman_']","['m', 'm']","['p307', 'p229']","[3, 6]","[89.14911522239515, 91.58892582949886]",2.0,True,6.5,2.1213203435596424,1.562392234802246,0.5839972761321076
0,,sub_108,2024-07-01 10:42:46,3,distance,cathedral,numerosity_judgement,2,23,6,countries_forward,"['_Tonga_', '_Yemen_', '_Mali_', '_Sudan_', '_Peru_', '_Syria_']","['m', 'f', 'm', 'f', 'm', 'f']","['p318', 'p284', 'p229', 'p245', 'p256', 'p248']","[5, 0, 9, 3, 4, 8]","[90.34149293193902, 84.40078082039426, 92.00610777531934, 89.14911522239515, 89.31368318402099, 92.0152836843556]",4.0,False,6.833333333333333,3.3115957885386114,1.499896764755249,0.92200658268074
0,,sub_108,2024-07-01 10:42:50,3,distance,cathedral,numerosity_judgement,2,24,4,countries_forward,"['_Cuba_', '_Mali_', '_Britain_', '_Belgium_']","['m', 'm', 'f', 'f']","['p256', 'p229', 'p284', 'p248']","[10, 1, 8, 9]","[93.00003341222717, 86.2038576498559, 92.0152836843556, 92.00610777531934]",3.0,False,9.0,4.08248290463863,3.0622897148132324,0.7896266031097492
0,,sub_108,2024-07-01 10:42:54,3,distance,cathedral,numerosity_judgement,2,25,5,countries_forward,"['_Mali_', '_Tonga_', '_Togo_', '_Japan_', '_Cuba_']","['m', 'f', 'm', 'f', 'm']","['p307', 'p248', 'p256', 'p268', 'p229']","[1, 0, 3, 10, 6]","[86.2038576498559, 84.40078082039426, 89.14911522239515, 93.00003341222717, 91.58892582949886]",3.0,False,6.0,4.06201920231798,2.1873488426208496,0.8567926455566905
0,,sub_108,2024-07-01 10:42:57,3,distance,cathedral,numerosity_judgement,2,26,2,countries_forward,"['_Britain_', '_Mali_']","['m', 'f']","['p307', 'p245']","[10, 4]","[93.00003341222717, 89.31368318402099]",2.0,True,9.0,4.242640687119285,1.5623266696929932,0.6859607309045511
0,,sub_108,2024-07-01 10:43:02,3,distance,cathedral,numerosity_judgement,2,27,4,countries_forward,"['_Peru_', '_Yemen_', '_Congo_', '_Cuba_']","['f', 'f', 'm', 'm']","['p245', 'p248', 'p256', 'p229']","[5, 2, 1, 3]","[90.34149293193902, 87.57049330475357, 86.2038576498559, 89.14911522239515]",4.0,True,4.75,1.707825127659933,2.749809741973877,0.7025309272500284
0,,sub_108,2024-07-01 10:43:05,3,distance,cathedral,numerosity_judgement,2,28,3,countries_forward,"['_Britain_', '_Syria_', '_Togo_']","['f', 'm', 'm']","['p268', 'p229', 'p307']","[6, 3, 8]","[91.58892582949886, 89.14911522239515, 92.0152836843556]",3.0,True,7.666666666666667,2.516611478423583,1.7498791217803955,0.9183861082737488
0,,sub_108,2024-07-01 10:43:11,3,distance,cathedral,numerosity_judgement,2,29,6,countries_forward,"['_Peru_', '_Japan_', '_Oman_', '_Belgium_', '_Yemen_', '_Togo_']","['f', 'm', 'm', 'f', 'f', 'm']","['p245', 'p229', 'p256', 'p248', 'p284', 'p307']","[0, 2, 3, 8, 7, 4]","[84.40078082039426, 87.57049330475357, 89.14911522239515, 92.0152836843556, 91.73820004985969, 89.31368318402099]",3.0,False,6.0,3.03315017762062,3.0623373985290527,0.8400749063670412
0,,sub_108,2024-07-01 10:43:14,3,distance,cathedral,numerosity_judgement,2,30,3,countries_forward,"['_Yemen_', '_Sudan_', '_Britain_']","['f', 'm', 'm']","['p268', 'p307', 'p318']","[7, 5, 6]","[91.73820004985969, 90.34149293193902, 91.58892582949886]",2.0,False,8.0,1.0,2.1873488426208496,0.7727386221768244
0,,sub_108,2024-07-01 10:43:17,3,distance,cathedral,numerosity_judgement,2,31,2,countries_forward,"['_Mali_', '_Cuba_']","['f', 'f']","['p245', 'p268']","[3, 7]","[89.14911522239515, 91.73820004985969]",2.0,True,7.0,2.8284271247461903,1.3124091625213623,0.7705254795142435
0,,sub_108,2024-07-01 10:43:21,3,distance,cathedral,numerosity_judgement,2,32,6,countries_forward,"['_Peru_', '_Mali_', '_Congo_', '_Yemen_', '_Togo_', '_Oman_']","['m', 'm', 'm', 'f', 'f', 'm']","['p307', 'p229', 'p256', 'p284', 'p268', 'p318']","[10, 0, 8, 6, 1, 7]","[93.00003341222717, 84.40078082039426, 92.0152836843556, 91.58892582949886, 86.2038576498559, 91.73820004985969]",4.0,False,7.333333333333333,3.9832984656772417,1.6873846054077148,0.7224719101123596
0,,sub_108,2024-07-01 10:43:26,3,distance,cathedral,numerosity_judgement,2,33,5,countries_forward,"['_Yemen_', '_Oman_', '_Sudan_', '_Cuba_', '_Congo_']","['f', 'm', 'f', 'm', 'm']","['p268', 'p256', 'p248', 'p307', 'p229']","[10, 9, 0, 5, 2]","[93.00003341222717, 92.00610777531934, 84.40078082039426, 90.34149293193902, 87.57049330475357]",3.0,False,7.2,4.324349662087931,2.874804735183716,0.6902962206332993
0,,sub_108,2024-07-01 10:43:30,3,distance,cathedral,numerosity_judgement,2,34,4,countries_forward,"['_Congo_', '_Yemen_', '_Mali_', '_Japan_']","['f', 'f', 'm', 'm']","['p268', 'p248', 'p307', 'p318']","[0, 5, 6, 3]","[84.40078082039426, 90.34149293193902, 91.58892582949886, 89.14911522239515]",2.0,False,5.5,2.6457513110645907,2.312340021133423,0.8116558846895926
0,,sub_108,2024-07-01 10:43:34,3,distance,cathedral,numerosity_judgement,2,35,6,countries_forward,"['_Cuba_', '_Peru_', '_Togo_', '_Syria_', '_Yemen_', '_Oman_']","['m', 'f', 'f', 'f', 'm', 'f']","['p307', 'p245', 'p284', 'p248', 'p318', 'p268']","[7, 10, 0, 2, 3, 1]","[91.73820004985969, 93.00003341222717, 84.40078082039426, 87.57049330475357, 89.14911522239515, 86.2038576498559]",3.0,False,5.833333333333333,3.8686776379877745,2.812304973602295,0.7590965838156849
0,,sub_108,2024-07-01 10:43:40,3,distance,cathedral,numerosity_judgement,2,36,5,countries_forward,"['_Peru_', '_Yemen_', '_Oman_', '_Tonga_', '_Sudan_']","['f', 'm', 'm', 'f', 'm']","['p284', 'p256', 'p229', 'p268', 'p307']","[9, 7, 4, 8, 10]","[92.00610777531934, 91.73820004985969, 89.31368318402099, 92.0152836843556, 93.00003341222717]",3.0,False,9.6,2.3021728866442674,3.3747665882110596,0.7196004993757803
0,,sub_108,2024-07-01 10:43:43,3,distance,cathedral,numerosity_judgement,2,37,3,countries_forward,"['_Belgium_', '_Togo_', '_Japan_']","['f', 'f', 'm']","['p248', 'p284', 'p307']","[2, 5, 0]","[87.57049330475357, 90.34149293193902, 84.40078082039426]",2.0,False,4.333333333333333,2.516611478423583,1.312408447265625,0.9458631256384066
0,,sub_108,2024-07-01 10:43:47,3,distance,cathedral,numerosity_judgement,2,38,4,countries_forward,"['_Mali_', '_Yemen_', '_Peru_', '_Britain_']","['m', 'f', 'm', 'm']","['p256', 'p268', 'p229', 'p318']","[3, 8, 7, 0]","[89.14911522239515, 92.0152836843556, 91.73820004985969, 84.40078082039426]",3.0,False,6.5,3.696845502136472,2.624819040298462,0.7392123482011123
0,,sub_108,2024-07-01 10:43:52,3,distance,cathedral,numerosity_judgement,2,39,2,countries_forward,"['_Oman_', '_Japan_']","['m', 'f']","['p307', 'p245']","[9, 1]","[92.00610777531934, 86.2038576498559]",2.0,True,7.0,5.656854249492381,3.437262535095215,0.7931789808194303
0,,sub_108,2024-07-01 10:43:56,3,distance,cathedral,numerosity_judgement,2,40,3,countries_forward,"['_Togo_', '_Yemen_', '_Britain_']","['m', 'm', 'f']","['p307', 'p229', 'p248']","[7, 1, 9]","[91.73820004985969, 86.2038576498559, 92.00610777531934]",2.0,False,7.666666666666667,4.163331998932266,2.1872901916503906,0.7992963341277948
0,,sub_108,2024-07-01 10:43:59,3,distance,cathedral,numerosity_judgement,2,41,2,countries_forward,"['_Belgium_', '_Mali_']","['f', 'm']","['p248', 'p229']","[2, 1]","[87.57049330475357, 86.2038576498559]",2.0,True,3.5,0.7071067811865476,1.6248884201049805,0.907638179548292
0,,sub_108,2024-07-01 10:44:03,3,distance,cathedral,numerosity_judgement,2,42,6,countries_forward,"['_Mali_', '_Japan_', '_Tonga_', '_Sudan_', '_Cuba_', '_Peru_']","['m', 'f', 'f', 'f', 'm', 'm']","['p229', 'p284', 'p245', 'p248', 'p307', 'p318']","[1, 6, 4, 5, 0, 9]","[86.2038576498559, 91.58892582949886, 89.31368318402099, 90.34149293193902, 84.40078082039426, 92.00610777531934]",3.0,False,6.166666666666667,3.3115957885386114,1.6248903274536133,0.8906594030189536
0,,sub_108,2024-07-01 10:44:07,3,distance,cathedral,numerosity_judgement,2,43,5,countries_forward,"['_Yemen_', '_Mali_', '_Tonga_', '_Oman_', '_Britain_']","['m', 'f', 'm', 'f', 'f']","['p318', 'p245', 'p229', 'p268', 'p284']","[5, 9, 6, 3, 2]","[90.34149293193902, 92.00610777531934, 91.58892582949886, 89.14911522239515, 87.57049330475357]",3.0,False,7.0,2.7386127875258306,2.624818801879883,0.8075927817500851
0,,sub_108,2024-07-01 10:44:13,3,distance,cathedral,numerosity_judgement,2,44,4,countries_forward,"['_Togo_', '_Peru_', '_Oman_', '_Mali_']","['m', 'f', 'm', 'f']","['p318', 'p268', 'p307', 'p248']","[0, 6, 10, 2]","[84.40078082039426, 91.58892582949886, 93.00003341222717, 87.57049330475357]",2.0,False,6.5,4.43471156521669,3.749741315841675,0.7654409261150834
0,,sub_108,2024-07-01 10:44:17,3,distance,cathedral,numerosity_judgement,2,45,3,countries_forward,"['_Yemen_', '_Tonga_', '_Sudan_']","['f', 'f', 'm']","['p248', 'p245', 'p307']","[9, 7, 10]","[92.00610777531934, 91.73820004985969, 93.00003341222717]",2.0,False,10.666666666666666,1.5275252316519468,2.5623230934143066,0.7350357507660878
0,,sub_108,2024-07-01 10:44:22,3,distance,cathedral,numerosity_judgement,2,46,6,countries_forward,"['_Tonga_', '_Oman_', '_Peru_', '_Sudan_', '_Mali_', '_Cuba_']","['m', 'f', 'm', 'f', 'm', 'f']","['p318', 'p268', 'p256', 'p245', 'p229', 'p248']","[9, 5, 7, 1, 3, 2]","[92.00610777531934, 90.34149293193902, 91.73820004985969, 86.2038576498559, 89.14911522239515, 87.57049330475357]",3.0,False,6.5,3.082207001484488,2.87480092048645,0.87672227896947
0,,sub_108,2024-07-01 10:44:25,3,distance,cathedral,numerosity_judgement,2,47,4,countries_forward,"['_Belgium_', '_Britain_', '_Syria_', '_Cuba_']","['f', 'm', 'm', 'f']","['p245', 'p256', 'p229', 'p268']","[7, 1, 5, 3]","[91.73820004985969, 86.2038576498559, 90.34149293193902, 89.14911522239515]",4.0,True,6.0,2.581988897471611,1.9373650550842285,0.843003064351379
0,,sub_108,2024-07-01 10:44:29,3,distance,cathedral,numerosity_judgement,2,48,2,countries_forward,"['_Cuba_', '_Sudan_']","['f', 'f']","['p284', 'p245']","[3, 2]","[89.14911522239515, 87.57049330475357]",2.0,True,4.5,0.7071067811865476,2.0623576641082764,0.8535694018840086
0,,sub_108,2024-07-01 10:44:33,3,distance,cathedral,numerosity_judgement,2,49,5,countries_forward,"['_Tonga_', '_Cuba_', '_Togo_', '_Belgium_', '_Sudan_']","['m', 'f', 'f', 'f', 'm']","['p229', 'p245', 'p284', 'p248', 'p318']","[10, 8, 7, 6, 2]","[93.00003341222717, 92.0152836843556, 91.73820004985969, 91.58892582949886, 87.57049330475357]",3.0,False,8.6,2.9664793948382653,1.9998624324798584,0.851458404267393
0,,sub_108,2024-07-01 10:44:37,3,distance,cathedral,numerosity_judgement,2,50,6,countries_forward,"['_Congo_', '_Peru_', '_Oman_', '_Belgium_', '_Britain_', '_Tonga_']","['m', 'f', 'f', 'f', 'f', 'm']","['p318', 'p268', 'p245', 'p284', 'p248', 'p229']","[0, 8, 5, 1, 10, 6]","[84.40078082039426, 92.0152836843556, 90.34149293193902, 86.2038576498559, 93.00003341222717, 91.58892582949886]",3.0,False,7.0,3.8987177379235853,2.437331438064575,0.8216093519464306
0,,sub_108,2024-07-01 10:44:41,3,distance,cathedral,numerosity_judgement,2,51,5,countries_forward,"['_Britain_', '_Sudan_', '_Belgium_', '_Syria_', '_Yemen_']","['m', 'm', 'f', 'f', 'f']","['p256', 'p229', 'p245', 'p268', 'p284']","[3, 2, 8, 0, 7]","[89.14911522239515, 87.57049330475357, 92.0152836843556, 84.40078082039426, 91.73820004985969]",3.0,False,6.0,3.391164991562634,1.8123738765716553,0.9554193621609351
0,,sub_108,2024-07-01 10:44:45,3,distance,cathedral,numerosity_judgement,2,52,3,countries_forward,"['_Togo_', '_Tonga_', '_Japan_']","['f', 'm', 'm']","['p248', 'p229', 'p256']","[2, 9, 8]","[87.57049330475357, 92.00610777531934, 92.0152836843556]",2.0,False,8.333333333333334,3.7859388972001824,2.2497787475585938,0.8401770514130065
0,,sub_108,2024-07-01 10:44:48,3,distance,cathedral,numerosity_judgement,2,53,2,countries_forward,"['_Yemen_', '_Congo_']","['m', 'm']","['p229', 'p307']","[4, 0]","[89.31368318402099, 84.40078082039426]",2.0,True,4.0,2.8284271247461903,1.3749022483825684,0.8331403926909545
0,,sub_108,2024-07-01 10:44:53,3,distance,cathedral,numerosity_judgement,2,54,4,countries_forward,"['_Oman_', '_Peru_', '_Britain_', '_Cuba_']","['f', 'm', 'm', 'f']","['p248', 'p307', 'p318', 'p268']","[7, 5, 10, 3]","[91.73820004985969, 90.34149293193902, 93.00003341222717, 89.14911522239515]",3.0,False,8.25,2.9860788111948193,3.49975848197937,0.6691067983202814
0,,sub_108,2024-07-01 10:44:58,3,distance,cathedral,numerosity_judgement,2,55,5,countries_forward,"['_Tonga_', '_Oman_', '_Syria_', '_Sudan_', '_Congo_']","['m', 'f', 'm', 'f', 'm']","['p307', 'p248', 'p229', 'p284', 'p256']","[9, 8, 1, 2, 4]","[92.00610777531934, 92.0152836843556, 86.2038576498559, 87.57049330475357, 89.31368318402099]",3.0,False,6.8,3.5637059362410923,3.0622611045837402,0.9235501078197708
0,,sub_108,2024-07-01 10:45:01,3,distance,cathedral,numerosity_judgement,2,56,2,countries_forward,"['_Togo_', '_Syria_']","['m', 'm']","['p318', 'p256']","[4, 9]","[89.31368318402099, 92.00610777531934]",2.0,True,8.5,3.5355339059327378,1.9997968673706055,0.8747361252979231
0,,sub_108,2024-07-01 10:45:06,3,distance,cathedral,numerosity_judgement,2,57,4,countries_forward,"['_Yemen_', '_Oman_', '_Peru_', '_Togo_']","['m', 'm', 'f', 'm']","['p229', 'p307', 'p268', 'p256']","[9, 5, 3, 10]","[92.00610777531934, 90.34149293193902, 89.14911522239515, 93.00003341222717]",2.0,False,8.75,3.304037933599835,2.6873152256011963,0.6414935875610033
0,,sub_108,2024-07-01 10:45:11,3,distance,cathedral,numerosity_judgement,2,58,3,countries_forward,"['_Sudan_', '_Syria_', '_Yemen_']","['m', 'f', 'f']","['p256', 'p245', 'p284']","[3, 5, 10]","[89.14911522239515, 90.34149293193902, 93.00003341222717]",3.0,True,8.0,3.605551275463989,3.374767780303955,0.8829871751220065
0,,sub_108,2024-07-01 10:45:15,3,distance,cathedral,numerosity_judgement,2,59,6,countries_forward,"['_Tonga_', '_Peru_', '_Britain_', '_Oman_', '_Yemen_', '_Mali_']","['f', 'f', 'm', 'f', 'm', 'f']","['p245', 'p268', 'p318', 'p248', 'p307', 'p284']","[10, 8, 6, 9, 2, 7]","[93.00003341222717, 92.0152836843556, 91.58892582949886, 92.00610777531934, 87.57049330475357, 91.73820004985969]",4.0,False,9.0,2.8284271247461903,2.7498021125793457,0.7124843945068664
0,,sub_108,2024-07-01 10:45:19,3,distance,cathedral,numerosity_judgement,2,60,3,countries_forward,"['_Cuba_', '_Peru_', '_Oman_']","['f', 'm', 'm']","['p284', 'p307', 'p229']","[6, 8, 2]","[91.58892582949886, 92.0152836843556, 87.57049330475357]",2.0,False,7.333333333333333,3.0550504633038935,1.6873228549957275,0.8081148564294631
0,,sub_108,2024-07-01 10:45:23,3,distance,cathedral,numerosity_judgement,2,61,5,countries_forward,"['_Cuba_', '_Congo_', '_Mali_', '_Japan_', '_Peru_']","['m', 'm', 'm', 'f', 'f']","['p307', 'p256', 'p229', 'p248', 'p268']","[3, 5, 8, 2, 1]","[89.14911522239515, 90.34149293193902, 92.0152836843556, 87.57049330475357, 86.2038576498559]",2.0,False,5.8,2.7748873851023212,2.1248528957366943,0.7661559414368403
0,,sub_108,2024-07-01 10:45:26,3,distance,cathedral,numerosity_judgement,2,62,6,countries_forward,"['_Yemen_', '_Peru_', '_Japan_', '_Oman_', '_Tonga_', '_Britain_']","['m', 'f', 'm', 'm', 'f', 'f']","['p256', 'p268', 'p318', 'p307', 'p245', 'p248']","[7, 9, 6, 0, 5, 4]","[91.73820004985969, 92.00610777531934, 91.58892582949886, 84.40078082039426, 90.34149293193902, 89.31368318402099]",3.0,False,7.166666666666667,3.0605010483034745,1.4998962879180908,0.7837816365906254
0,,sub_108,2024-07-01 10:45:29,3,distance,cathedral,numerosity_judgement,2,63,2,countries_forward,"['_Oman_', '_Yemen_']","['m', 'm']","['p256', 'p318']","[3, 7]","[89.14911522239515, 91.73820004985969]",2.0,True,7.0,2.8284271247461903,1.437401294708252,0.6554534105095903
0,,sub_108,2024-07-01 10:45:34,3,distance,cathedral,numerosity_judgement,2,64,4,countries_forward,"['_Mali_', '_Belgium_', '_Congo_', '_Syria_']","['m', 'f', 'f', 'f']","['p256', 'p284', 'p248', 'p268']","[5, 0, 9, 8]","[90.34149293193902, 84.40078082039426, 92.00610777531934, 92.0152836843556]",3.0,False,7.5,4.041451884327381,3.18727970123291,0.9186811939620928
0,,sub_108,2024-07-01 10:45:39,3,distance,cathedral,numerosity_judgement,2,65,5,countries_forward,"['_Yemen_', '_Mali_', '_Peru_', '_Oman_', '_Belgium_']","['m', 'm', 'f', 'f', 'm']","['p229', 'p318', 'p268', 'p248', 'p256']","[3, 9, 6, 1, 4]","[89.14911522239515, 92.00610777531934, 91.58892582949886, 86.2038576498559, 89.31368318402099]",2.0,False,6.6,3.0495901363953815,2.8748016357421875,0.8156168425831347
0,,sub_108,2024-07-01 10:45:43,3,distance,cathedral,numerosity_judgement,2,66,4,countries_forward,"['_Britain_', '_Mali_', '_Peru_', '_Oman_']","['f', 'f', 'm', 'm']","['p268', 'p248', 'p318', 'p229']","[0, 4, 1, 3]","[84.40078082039426, 89.31368318402099, 86.2038576498559, 89.14911522239515]",3.0,False,4.0,1.8257418583505538,2.4373326301574707,0.6887413460447168
0,,sub_108,2024-07-01 10:45:46,3,distance,cathedral,numerosity_judgement,2,67,3,countries_forward,"['_Mali_', '_Congo_', '_Oman_']","['m', 'f', 'f']","['p307', 'p248', 'p268']","[5, 7, 3]","[90.34149293193902, 91.73820004985969, 89.14911522239515]",3.0,True,7.0,2.0,1.8748700618743896,0.6842015662240382
0,,sub_108,2024-07-01 10:45:49,3,distance,cathedral,numerosity_judgement,2,68,2,countries_forward,"['_Oman_', '_Yemen_']","['m', 'm']","['p229', 'p256']","[3, 6]","[89.14911522239515, 91.58892582949886]",2.0,True,6.5,2.1213203435596424,1.3749046325683594,0.5410623084780388
0,,sub_108,2024-07-01 10:45:53,3,distance,cathedral,numerosity_judgement,2,69,6,countries_forward,"['_Syria_', '_Yemen_', '_Togo_', '_Belgium_', '_Mali_', '_Britain_']","['f', 'f', 'm', 'm', 'm', 'f']","['p268', 'p248', 'p318', 'p229', 'p256', 'p245']","[9, 1, 6, 3, 8, 4]","[92.00610777531934, 86.2038576498559, 91.58892582949886, 89.14911522239515, 92.0152836843556, 89.31368318402099]",4.0,False,7.166666666666667,3.0605010483034745,1.4998960494995117,0.9515151515151516
0,,sub_108,2024-07-01 10:45:56,3,distance,cathedral,numerosity_judgement,2,70,2,countries_forward,"['_Belgium_', '_Syria_']","['f', 'f']","['p245', 'p284']","[8, 5]","[92.0152836843556, 90.34149293193902]",2.0,True,8.5,2.1213203435596424,1.5623927116394043,0.9560208829871752
0,,sub_108,2024-07-01 10:46:00,3,distance,cathedral,numerosity_judgement,2,71,5,countries_forward,"['_Tonga_', '_Yemen_', '_Peru_', '_Mali_', '_Oman_']","['m', 'f', 'f', 'f', 'm']","['p229', 'p268', 'p248', 'p284', 'p307']","[10, 8, 6, 2, 4]","[93.00003341222717, 92.0152836843556, 91.58892582949886, 87.57049330475357, 89.31368318402099]",4.0,False,8.0,3.1622776601683795,1.9998610019683838,0.6974804221995233
0,,sub_108,2024-07-01 10:46:04,3,distance,cathedral,numerosity_judgement,2,72,6,countries_forward,"['_Congo_', '_Togo_', '_Oman_', '_Cuba_', '_Tonga_', '_Mali_']","['f', 'f', 'm', 'f', 'f', 'm']","['p248', 'p284', 'p256', 'p268', 'p245', 'p229']","[1, 9, 3, 6, 4, 7]","[86.2038576498559, 92.00610777531934, 89.14911522239515, 91.58892582949886, 89.31368318402099, 91.73820004985969]",5.0,False,7.0,2.898275349237888,1.874892234802246,0.731472023606855
0,,sub_108,2024-07-01 10:46:08,3,distance,cathedral,numerosity_judgement,2,73,4,countries_forward,"['_Sudan_', '_Britain_', '_Belgium_', '_Togo_']","['m', 'f', 'f', 'f']","['p229', 'p248', 'p284', 'p268']","[1, 2, 6, 0]","[86.2038576498559, 87.57049330475357, 91.58892582949886, 84.40078082039426]",2.0,False,4.25,2.6299556396765835,2.3748369216918945,0.9574963114288956
0,,sub_108,2024-07-01 10:46:11,3,distance,cathedral,numerosity_judgement,2,74,3,countries_forward,"['_Oman_', '_Yemen_', '_Britain_']","['m', 'f', 'f']","['p307', 'p268', 'p245']","[4, 8, 1]","[89.31368318402099, 92.0152836843556, 86.2038576498559]",2.0,False,6.333333333333333,3.5118845842842465,1.874870777130127,0.6117807286346613
0,,sub_108,2024-07-01 10:47:08,3,distance,cathedral,numerosity_judgement,3,0,6,countries_reversed,"['_Japan_reversed', '_Peru_reversed', '_Yemen_reversed', '_Cuba_reversed', '_Congo_reversed', '_Togo_reversed']","['f', 'f', 'f', 'm', 'f', 'm']","['p268', 'p245', 'p284', 'p229', 'p248', 'p318']","[1, 6, 9, 2, 10, 3]","[86.2038576498559, 91.58892582949886, 92.00610777531934, 87.57049330475357, 93.00003341222717, 89.14911522239515]",3.0,False,7.166666666666667,3.763863263545405,1.9373657703399658,0.7399160140733174
0,,sub_108,2024-07-01 10:47:12,3,distance,cathedral,numerosity_judgement,3,1,5,countries_reversed,"['_Oman_reversed', '_Tonga_reversed', '_Britain_reversed', '_Yemen_reversed', '_Japan_reversed']","['m', 'f', 'm', 'f', 'm']","['p256', 'p245', 'p229', 'p248', 'p318']","[0, 1, 3, 7, 2]","[84.40078082039426, 86.2038576498559, 89.14911522239515, 91.73820004985969, 87.57049330475357]",3.0,False,4.6,2.701851217221259,3.3122713565826416,0.8063556917489502
0,,sub_108,2024-07-01 10:47:16,3,distance,cathedral,numerosity_judgement,3,2,4,countries_reversed,"['_Peru_reversed', '_Britain_reversed', '_Yemen_reversed', '_Congo_reversed']","['m', 'f', 'f', 'm']","['p307', 'p245', 'p268', 'p256']","[6, 0, 4, 3]","[91.58892582949886, 84.40078082039426, 89.31368318402099, 89.14911522239515]",2.0,False,5.25,2.5,2.3748362064361572,0.6504256043581886
0,,sub_108,2024-07-01 10:47:19,3,distance,cathedral,numerosity_judgement,3,3,3,countries_reversed,"['_Britain_reversed', '_Togo_reversed', '_Oman_reversed']","['f', 'f', 'm']","['p268', 'p248', 'p307']","[3, 6, 9]","[89.14911522239515, 91.58892582949886, 92.00610777531934]",2.0,False,8.0,3.0,2.1248531341552734,0.7730110089660651
0,,sub_108,2024-07-01 10:47:23,3,distance,cathedral,numerosity_judgement,3,4,2,countries_reversed,"['_Oman_reversed', '_Mali_reversed']","['m', 'm']","['p307', 'p256']","[6, 7]","[91.58892582949886, 91.73820004985969]",2.0,True,8.5,0.7071067811865476,2.1247899532318115,0.6522642151855635
0,,sub_108,2024-07-01 10:47:26,3,distance,cathedral,numerosity_judgement,3,5,5,countries_reversed,"['_Cuba_reversed', '_Togo_reversed', '_Oman_reversed', '_Tonga_reversed', '_Japan_reversed']","['f', 'f', 'f', 'm', 'm']","['p245', 'p284', 'p248', 'p256', 'p307']","[0, 9, 6, 5, 1]","[84.40078082039426, 92.00610777531934, 91.58892582949886, 90.34149293193902, 86.2038576498559]",3.0,False,6.2,3.7013511046643495,1.9373669624328613,0.7907048008171603
0,,sub_108,2024-07-01 10:47:29,3,distance,cathedral,numerosity_judgement,3,6,2,countries_reversed,"['_Oman_reversed', '_Britain_reversed']","['f', 'm']","['p248', 'p307']","[3, 9]","[89.14911522239515, 92.00610777531934]",2.0,True,8.0,4.242640687119285,1.4374020099639893,0.6909771876064011
0,,sub_108,2024-07-01 10:47:32,3,distance,cathedral,numerosity_judgement,3,7,4,countries_reversed,"['_Yemen_reversed', '_Sudan_reversed', '_Britain_reversed', '_Cuba_reversed']","['m', 'f', 'm', 'f']","['p318', 'p248', 'p229', 'p245']","[7, 3, 10, 5]","[91.73820004985969, 89.14911522239515, 93.00003341222717, 90.34149293193902]",2.0,False,8.25,2.9860788111948193,2.1248538494110107,0.7132902054250368
0,,sub_108,2024-07-01 10:47:35,3,distance,cathedral,numerosity_judgement,3,8,6,countries_reversed,"['_Peru_reversed', '_Cuba_reversed', '_Togo_reversed', '_Japan_reversed', '_Congo_reversed', '_Oman_reversed']","['m', 'm', 'm', 'f', 'f', 'f']","['p307', 'p318', 'p229', 'p248', 'p268', 'p245']","[0, 3, 10, 8, 7, 9]","[84.40078082039426, 89.14911522239515, 93.00003341222717, 92.0152836843556, 91.73820004985969, 92.00610777531934]",4.0,False,8.166666666666666,3.8686776379877745,1.4374003410339355,0.6953467256838043
0,,sub_108,2024-07-01 10:47:38,3,distance,cathedral,numerosity_judgement,3,9,3,countries_reversed,"['_Syria_reversed', '_Oman_reversed', '_Congo_reversed']","['m', 'f', 'm']","['p256', 'p245', 'p229']","[3, 7, 5]","[89.14911522239515, 91.73820004985969, 90.34149293193902]",3.0,True,7.0,2.0,1.6248867511749268,0.7448984224265123
0,,sub_108,2024-07-01 10:47:42,3,distance,cathedral,numerosity_judgement,3,10,6,countries_reversed,"['_Peru_reversed', '_Oman_reversed', '_Yemen_reversed', '_Cuba_reversed', '_Britain_reversed', '_Syria_reversed']","['m', 'f', 'f', 'f', 'f', 'm']","['p256', 'p245', 'p268', 'p248', 'p284', 'p318']","[4, 7, 2, 1, 8, 9]","[89.31368318402099, 91.73820004985969, 87.57049330475357, 86.2038576498559, 92.0152836843556, 92.00610777531934]",3.0,False,7.166666666666667,3.3115957885386114,2.7498092651367188,0.8239359891045285
0,,sub_108,2024-07-01 10:47:45,3,distance,cathedral,numerosity_judgement,3,11,3,countries_reversed,"['_Sudan_reversed', '_Japan_reversed', '_Syria_reversed']","['f', 'm', 'f']","['p268', 'p229', 'p248']","[6, 5, 7]","[91.58892582949886, 90.34149293193902, 91.73820004985969]",2.0,False,8.0,1.0,2.1248557567596436,0.9622290318919532
0,,sub_108,2024-07-01 10:47:48,3,distance,cathedral,numerosity_judgement,3,12,2,countries_reversed,"['_Oman_reversed', '_Britain_reversed']","['m', 'm']","['p256', 'p229']","[3, 1]","[89.14911522239515, 86.2038576498559]",2.0,True,4.0,1.4142135623730951,1.5623912811279297,0.7315741686528203
0,,sub_108,2024-07-01 10:47:51,3,distance,cathedral,numerosity_judgement,3,13,5,countries_reversed,"['_Yemen_reversed', '_Britain_reversed', '_Congo_reversed', '_Tonga_reversed', '_Mali_reversed']","['f', 'm', 'f', 'm', 'm']","['p248', 'p256', 'p268', 'p307', 'p318']","[0, 5, 4, 9, 7]","[84.40078082039426, 90.34149293193902, 89.31368318402099, 92.00610777531934, 91.73820004985969]",3.0,False,7.0,3.391164991562634,1.4373996257781982,0.8202928157984338
0,,sub_108,2024-07-01 10:47:54,3,distance,cathedral,numerosity_judgement,3,14,4,countries_reversed,"['_Oman_reversed', '_Yemen_reversed', '_Britain_reversed', '_Mali_reversed']","['m', 'm', 'm', 'm']","['p229', 'p318', 'p307', 'p256']","[5, 7, 9, 6]","[90.34149293193902, 91.73820004985969, 92.00610777531934, 91.58892582949886]",3.0,False,8.75,1.707825127659933,2.2498459815979004,0.6135966405629327
0,,sub_108,2024-07-01 10:47:57,3,distance,cathedral,numerosity_judgement,3,15,5,countries_reversed,"['_Tonga_reversed', '_Peru_reversed', '_Sudan_reversed', '_Belgium_reversed', '_Togo_reversed']","['f', 'f', 'f', 'm', 'm']","['p245', 'p284', 'p268', 'p318', 'p307']","[0, 6, 10, 5, 2]","[84.40078082039426, 91.58892582949886, 93.00003341222717, 90.34149293193902, 87.57049330475357]",3.0,False,6.6,3.847076812334269,1.6248881816864014,0.952956531608217
0,,sub_108,2024-07-01 10:48:00,3,distance,cathedral,numerosity_judgement,3,16,3,countries_reversed,"['_Sudan_reversed', '_Cuba_reversed', '_Britain_reversed']","['f', 'm', 'm']","['p284', 'p256', 'p229']","[1, 5, 2]","[86.2038576498559, 90.34149293193902, 87.57049330475357]",2.0,False,4.666666666666667,2.0816659994661326,1.7498807907104492,0.9199636817614346
0,,sub_108,2024-07-01 10:48:04,3,distance,cathedral,numerosity_judgement,3,17,4,countries_reversed,"['_Sudan_reversed', '_Yemen_reversed', '_Cuba_reversed', '_Tonga_reversed']","['m', 'f', 'f', 'm']","['p318', 'p248', 'p245', 'p307']","[6, 8, 7, 5]","[91.58892582949886, 92.0152836843556, 91.73820004985969, 90.34149293193902]",3.0,False,8.5,1.2909944487358056,2.312314510345459,0.6823402564975599
0,,sub_108,2024-07-01 10:48:08,3,distance,cathedral,numerosity_judgement,3,18,6,countries_reversed,"['_Cuba_reversed', '_Sudan_reversed', '_Congo_reversed', '_Japan_reversed', '_Oman_reversed', '_Mali_reversed']","['f', 'f', 'f', 'm', 'm', 'm']","['p284', 'p268', 'p245', 'p229', 'p318', 'p307']","[8, 7, 10, 0, 1, 3]","[92.0152836843556, 91.73820004985969, 93.00003341222717, 84.40078082039426, 86.2038576498559, 89.14911522239515]",3.0,False,6.833333333333333,4.070217029430577,2.6248185634613037,0.9199977301100896
0,,sub_108,2024-07-01 10:48:11,3,distance,cathedral,numerosity_judgement,3,19,2,countries_reversed,"['_Sudan_reversed', '_Oman_reversed']","['m', 'f']","['p256', 'p248']","[8, 4]","[92.0152836843556, 89.31368318402099]",2.0,True,8.0,2.8284271247461903,1.624887228012085,0.6300760413119963
0,,sub_108,2024-07-01 10:48:14,3,distance,cathedral,numerosity_judgement,3,20,3,countries_reversed,"['_Togo_reversed', '_Congo_reversed', '_Cuba_reversed']","['m', 'f', 'f']","['p229', 'p248', 'p268']","[1, 5, 6]","[86.2038576498559, 90.34149293193902, 91.58892582949886]",3.0,True,6.0,2.6457513110645907,1.8748703002929688,0.6720122574055158
0,,sub_108,2024-07-01 10:48:18,3,distance,cathedral,numerosity_judgement,3,21,6,countries_reversed,"['_Sudan_reversed', '_Togo_reversed', '_Japan_reversed', '_Tonga_reversed', '_Oman_reversed', '_Syria_reversed']","['m', 'f', 'm', 'f', 'f', 'm']","['p318', 'p245', 'p307', 'p268', 'p284', 'p256']","[8, 5, 1, 3, 7, 0]","[92.0152836843556, 90.34149293193902, 86.2038576498559, 89.14911522239515, 91.73820004985969, 84.40078082039426]",4.0,False,6.0,3.22490309931942,2.7498114109039307,0.9511633185790488
0,,sub_108,2024-07-01 10:48:21,3,distance,cathedral,numerosity_judgement,3,22,5,countries_reversed,"['_Mali_reversed', '_Oman_reversed', '_Britain_reversed', '_Peru_reversed', '_Yemen_reversed']","['f', 'm', 'm', 'm', 'f']","['p268', 'p256', 'p318', 'p307', 'p245']","[1, 6, 10, 9, 5]","[86.2038576498559, 91.58892582949886, 93.00003341222717, 92.00610777531934, 90.34149293193902]",2.0,False,8.2,3.5637059362410923,1.9373669624328613,0.6607536034502327
0,,sub_108,2024-07-01 10:48:24,3,distance,cathedral,numerosity_judgement,3,23,2,countries_reversed,"['_Cuba_reversed', '_Sudan_reversed']","['f', 'm']","['p248', 'p318']","[8, 1]","[92.0152836843556, 86.2038576498559]",2.0,True,6.5,4.949747468305833,2.3123133182525635,0.7913517194416071
0,,sub_108,2024-07-01 10:48:29,3,distance,cathedral,numerosity_judgement,3,24,4,countries_reversed,"['_Tonga_reversed', '_Syria_reversed', '_Togo_reversed', '_Mali_reversed']","['f', 'f', 'm', 'f']","['p248', 'p268', 'p318', 'p245']","[2, 6, 4, 9]","[87.57049330475357, 91.58892582949886, 89.31368318402099, 92.00610777531934]",3.0,False,7.25,2.9860788111948193,3.6247775554656982,0.8999546022017932
0,,sub_108,2024-07-01 10:48:32,3,distance,cathedral,numerosity_judgement,3,25,2,countries_reversed,"['_Japan_reversed', '_Yemen_reversed']","['f', 'm']","['p245', 'p256']","[10, 2]","[93.00003341222717, 87.57049330475357]",2.0,True,8.0,5.656854249492381,1.562391757965088,0.885291113381001
0,,sub_108,2024-07-01 10:48:36,3,distance,cathedral,numerosity_judgement,3,26,4,countries_reversed,"['_Sudan_reversed', '_Yemen_reversed', '_Mali_reversed', '_Congo_reversed']","['m', 'f', 'f', 'f']","['p256', 'p268', 'p245', 'p284']","[9, 10, 1, 0]","[92.00610777531934, 93.00003341222717, 86.2038576498559, 84.40078082039426]",3.0,False,7.0,5.228129047119374,2.3123412132263184,0.8090341618431506
0,,sub_108,2024-07-01 10:48:39,3,distance,cathedral,numerosity_judgement,3,27,6,countries_reversed,"['_Yemen_reversed', '_Sudan_reversed', '_Cuba_reversed', '_Britain_reversed', '_Oman_reversed', '_Congo_reversed']","['m', 'f', 'f', 'm', 'f', 'f']","['p229', 'p248', 'p245', 'p307', 'p284', 'p268']","[6, 10, 5, 7, 0, 3]","[91.58892582949886, 93.00003341222717, 90.34149293193902, 91.73820004985969, 84.40078082039426, 89.14911522239515]",2.0,False,7.166666666666667,3.4302575219167823,2.187349796295166,0.6710135058449666
0,,sub_108,2024-07-01 10:48:42,3,distance,cathedral,numerosity_judgement,3,28,3,countries_reversed,"['_Yemen_reversed', '_Oman_reversed', '_Tonga_reversed']","['m', 'm', 'f']","['p256', 'p307', 'p245']","[2, 5, 10]","[87.57049330475357, 90.34149293193902, 93.00003341222717]",3.0,True,7.666666666666667,4.041451884327381,1.6873831748962402,0.5832936102599023
0,,sub_108,2024-07-01 10:48:45,3,distance,cathedral,numerosity_judgement,3,29,5,countries_reversed,"['_Congo_reversed', '_Peru_reversed', '_Japan_reversed', '_Belgium_reversed', '_Mali_reversed']","['f', 'f', 'm', 'm', 'm']","['p248', 'p268', 'p229', 'p318', 'p307']","[8, 1, 2, 10, 9]","[92.0152836843556, 86.2038576498559, 87.57049330475357, 93.00003341222717, 92.00610777531934]",4.0,False,8.0,4.183300132670378,1.4998972415924072,0.8995346725683805
0,,sub_108,2024-07-01 10:48:48,3,distance,cathedral,numerosity_judgement,3,30,3,countries_reversed,"['_Britain_reversed', '_Yemen_reversed', '_Belgium_reversed']","['m', 'f', 'm']","['p256', 'p248', 'p318']","[3, 0, 6]","[89.14911522239515, 84.40078082039426, 91.58892582949886]",2.0,False,5.0,3.0,1.4374005794525146,0.8665872205198047
0,,sub_108,2024-07-01 10:48:51,3,distance,cathedral,numerosity_judgement,3,31,5,countries_reversed,"['_Britain_reversed', '_Togo_reversed', '_Oman_reversed', '_Cuba_reversed', '_Syria_reversed']","['m', 'm', 'm', 'f', 'f']","['p256', 'p229', 'p307', 'p268', 'p248']","[0, 1, 9, 6, 2]","[84.40078082039426, 86.2038576498559, 92.00610777531934, 91.58892582949886, 87.57049330475357]",2.0,False,5.6,3.7815340802378072,2.1248538494110107,0.6839859266825559
0,,sub_108,2024-07-01 10:48:54,3,distance,cathedral,numerosity_judgement,3,32,4,countries_reversed,"['_Tonga_reversed', '_Congo_reversed', '_Togo_reversed', '_Cuba_reversed']","['m', 'f', 'f', 'f']","['p307', 'p248', 'p245', 'p268']","[6, 10, 9, 1]","[91.58892582949886, 93.00003341222717, 92.00610777531934, 86.2038576498559]",3.0,False,8.5,4.041451884327381,1.8123862743377686,0.7082397003745319
0,,sub_108,2024-07-01 10:48:57,3,distance,cathedral,numerosity_judgement,3,33,2,countries_reversed,"['_Tonga_reversed', '_Oman_reversed']","['f', 'm']","['p248', 'p307']","[10, 7]","[93.00003341222717, 91.73820004985969]",2.0,True,10.5,2.1213203435596424,1.7498788833618164,0.6091249574395642
0,,sub_108,2024-07-01 10:49:01,3,distance,cathedral,numerosity_judgement,3,34,6,countries_reversed,"['_Sudan_reversed', '_Togo_reversed', '_Yemen_reversed', '_Peru_reversed', '_Tonga_reversed', '_Oman_reversed']","['f', 'm', 'm', 'f', 'f', 'm']","['p245', 'p256', 'p318', 'p248', 'p268', 'p229']","[2, 6, 5, 8, 9, 0]","[87.57049330475357, 91.58892582949886, 90.34149293193902, 92.0152836843556, 92.00610777531934, 84.40078082039426]",3.0,False,7.0,3.4641016151377544,2.3123583793640137,0.7884235614572693
0,,sub_108,2024-07-01 10:49:05,3,distance,cathedral,numerosity_judgement,3,35,4,countries_reversed,"['_Sudan_reversed', '_Belgium_reversed', '_Mali_reversed', '_Congo_reversed']","['f', 'f', 'm', 'm']","['p245', 'p268', 'p307', 'p318']","[8, 0, 2, 6]","[92.0152836843556, 84.40078082039426, 87.57049330475357, 91.58892582949886]",3.0,False,6.0,3.6514837167011076,2.999793529510498,0.9602315287708546
0,,sub_108,2024-07-01 10:49:08,3,distance,cathedral,numerosity_judgement,3,36,2,countries_reversed,"['_Sudan_reversed', '_Belgium_reversed']","['f', 'f']","['p248', 'p284']","[5, 10]","[90.34149293193902, 93.00003341222717]",2.0,True,9.5,3.5355339059327378,1.687382698059082,0.9185563500170242
0,,sub_108,2024-07-01 10:49:12,3,distance,cathedral,numerosity_judgement,3,37,5,countries_reversed,"['_Yemen_reversed', '_Tonga_reversed', '_Oman_reversed', '_Peru_reversed', '_Mali_reversed']","['f', 'm', 'f', 'f', 'm']","['p248', 'p318', 'p245', 'p284', 'p256']","[5, 2, 3, 7, 8]","[90.34149293193902, 87.57049330475357, 89.14911522239515, 91.73820004985969, 92.0152836843556]",4.0,False,7.0,2.5495097567963922,2.937361478805542,0.7399387129724209
0,,sub_108,2024-07-01 10:49:16,3,distance,cathedral,numerosity_judgement,3,38,6,countries_reversed,"['_Peru_reversed', '_Tonga_reversed', '_Japan_reversed', '_Cuba_reversed', '_Togo_reversed', '_Oman_reversed']","['f', 'm', 'f', 'm', 'm', 'f']","['p248', 'p318', 'p268', 'p256', 'p229', 'p245']","[5, 10, 8, 7, 1, 6]","[90.34149293193902, 93.00003341222717, 92.0152836843556, 91.73820004985969, 86.2038576498559, 91.58892582949886]",3.0,False,8.166666666666666,3.0605010483034745,2.6872901916503906,0.8270457382816934
0,,sub_108,2024-07-01 10:49:19,3,distance,cathedral,numerosity_judgement,3,39,3,countries_reversed,"['_Mali_reversed', '_Peru_reversed', '_Togo_reversed']","['m', 'f', 'f']","['p256', 'p245', 'p248']","[10, 9, 3]","[93.00003341222717, 92.00610777531934, 89.14911522239515]",3.0,True,9.333333333333334,3.7859388972001824,1.5624184608459473,0.789218022925888
0,,sub_108,2024-07-01 10:49:22,3,distance,cathedral,numerosity_judgement,3,40,2,countries_reversed,"['_Togo_reversed', '_Syria_reversed']","['f', 'f']","['p248', 'p284']","[0, 3]","[84.40078082039426, 89.14911522239515]",2.0,True,3.5,2.1213203435596424,1.5623931884765625,0.9590625354670298
0,,sub_108,2024-07-01 10:49:27,3,distance,cathedral,numerosity_judgement,3,41,4,countries_reversed,"['_Mali_reversed', '_Yemen_reversed', '_Sudan_reversed', '_Togo_reversed']","['f', 'm', 'm', 'f']","['p284', 'p307', 'p318', 'p245']","[3, 1, 10, 9]","[89.14911522239515, 86.2038576498559, 93.00003341222717, 92.00610777531934]",3.0,False,7.75,4.425306015783918,3.6872446537017822,0.900408580183861
0,,sub_108,2024-07-01 10:49:31,3,distance,cathedral,numerosity_judgement,3,42,6,countries_reversed,"['_Togo_reversed', '_Japan_reversed', '_Tonga_reversed', '_Syria_reversed', '_Yemen_reversed', '_Cuba_reversed']","['f', 'm', 'm', 'f', 'f', 'f']","['p284', 'p307', 'p256', 'p245', 'p268', 'p248']","[4, 7, 5, 6, 3, 2]","[89.31368318402099, 91.73820004985969, 90.34149293193902, 91.58892582949886, 89.14911522239515, 87.57049330475357]",3.0,False,6.5,1.8708286933869707,2.8123061656951904,0.714708886618999
0,,sub_108,2024-07-01 10:49:35,3,distance,cathedral,numerosity_judgement,3,43,3,countries_reversed,"['_Oman_reversed', '_Syria_reversed', '_Belgium_reversed']","['f', 'm', 'm']","['p245', 'p256', 'p229']","[8, 4, 3]","[92.0152836843556, 89.31368318402099, 89.14911522239515]",2.0,False,7.0,2.6457513110645907,3.062290906906128,0.8586539552831688
0,,sub_108,2024-07-01 10:49:38,3,distance,cathedral,numerosity_judgement,3,44,5,countries_reversed,"['_Togo_reversed', '_Mali_reversed', '_Belgium_reversed', '_Tonga_reversed', '_Britain_reversed']","['m', 'f', 'f', 'f', 'f']","['p229', 'p245', 'p284', 'p268', 'p248']","[4, 7, 5, 2, 0]","[89.31368318402099, 91.73820004985969, 90.34149293193902, 87.57049330475357, 84.40078082039426]",3.0,False,5.6,2.701851217221259,1.7498795986175537,0.8769265690614005
0,,sub_108,2024-07-01 10:49:41,3,distance,cathedral,numerosity_judgement,3,45,3,countries_reversed,"['_Oman_reversed', '_Peru_reversed', '_Japan_reversed']","['f', 'm', 'm']","['p245', 'p256', 'p318']","[2, 7, 4]","[87.57049330475357, 91.73820004985969, 89.31368318402099]",3.0,True,6.333333333333333,2.516611478423583,1.6248881816864014,0.8341050959028488
0,,sub_108,2024-07-01 10:49:45,3,distance,cathedral,numerosity_judgement,3,46,2,countries_reversed,"['_Togo_reversed', '_Peru_reversed']","['m', 'f']","['p318', 'p268']","[10, 1]","[93.00003341222717, 86.2038576498559]",2.0,True,7.5,6.363961030678928,2.8748011589050293,0.8505277494041539
0,,sub_108,2024-07-01 10:49:48,3,distance,cathedral,numerosity_judgement,3,47,5,countries_reversed,"['_Oman_reversed', '_Belgium_reversed', '_Britain_reversed', '_Tonga_reversed', '_Syria_reversed']","['m', 'f', 'f', 'm', 'm']","['p256', 'p245', 'p284', 'p307', 'p229']","[7, 5, 2, 8, 9]","[91.73820004985969, 90.34149293193902, 87.57049330475357, 92.0152836843556, 92.00610777531934]",4.0,False,8.2,2.7748873851023217,1.562391996383667,0.773203949608444
0,,sub_108,2024-07-01 10:49:51,3,distance,cathedral,numerosity_judgement,3,48,6,countries_reversed,"['_Britain_reversed', '_Belgium_reversed', '_Yemen_reversed', '_Peru_reversed', '_Sudan_reversed', '_Oman_reversed']","['f', 'm', 'f', 'm', 'f', 'm']","['p268', 'p256', 'p284', 'p229', 'p245', 'p318']","[3, 10, 7, 8, 5, 6]","[89.14911522239515, 93.00003341222717, 91.73820004985969, 92.0152836843556, 90.34149293193902, 91.58892582949886]",3.0,False,8.5,2.4289915602982237,1.6248888969421387,0.88742480989672
0,,sub_108,2024-07-01 10:49:55,3,distance,cathedral,numerosity_judgement,3,49,4,countries_reversed,"['_Togo_reversed', '_Peru_reversed', '_Oman_reversed', '_Tonga_reversed']","['m', 'f', 'm', 'f']","['p307', 'p248', 'p318', 'p245']","[9, 8, 7, 5]","[92.00610777531934, 92.0152836843556, 91.73820004985969, 90.34149293193902]",2.0,False,9.25,1.707825127659933,2.6248388290405273,0.7669277040063557
0,,sub_108,2024-07-01 10:49:58,3,distance,cathedral,numerosity_judgement,3,50,6,countries_reversed,"['_Congo_reversed', '_Oman_reversed', '_Sudan_reversed', '_Yemen_reversed', '_Syria_reversed', '_Tonga_reversed']","['f', 'm', 'f', 'm', 'f', 'm']","['p245', 'p229', 'p284', 'p307', 'p248', 'p256']","[7, 1, 6, 9, 2, 8]","[91.73820004985969, 86.2038576498559, 91.58892582949886, 92.00610777531934, 87.57049330475357, 92.0152836843556]",3.0,False,7.5,3.271085446759225,2.1248459815979004,0.8818635796163886
0,,sub_108,2024-07-01 10:50:02,3,distance,cathedral,numerosity_judgement,3,51,4,countries_reversed,"['_Tonga_reversed', '_Japan_reversed', '_Mali_reversed', '_Congo_reversed']","['f', 'f', 'f', 'm']","['p268', 'p248', 'p284', 'p229']","[3, 6, 5, 0]","[89.14911522239515, 91.58892582949886, 90.34149293193902, 84.40078082039426]",3.0,False,5.5,2.6457513110645907,2.487724781036377,0.9242197253433208
0,,sub_108,2024-07-01 10:50:06,3,distance,cathedral,numerosity_judgement,3,52,3,countries_reversed,"['_Yemen_reversed', '_Peru_reversed', '_Cuba_reversed']","['m', 'm', 'f']","['p256', 'p229', 'p268']","[9, 3, 6]","[92.00610777531934, 89.14911522239515, 91.58892582949886]",2.0,False,8.0,3.0,3.1872799396514893,0.6228237430484621
0,,sub_108,2024-07-01 10:50:10,3,distance,cathedral,numerosity_judgement,3,53,2,countries_reversed,"['_Congo_reversed', '_Mali_reversed']","['f', 'm']","['p284', 'p318']","[0, 4]","[84.40078082039426, 89.31368318402099]",2.0,True,4.0,2.8284271247461903,2.6873152256011963,0.9296674611281353
0,,sub_108,2024-07-01 10:50:14,3,distance,cathedral,numerosity_judgement,3,54,5,countries_reversed,"['_Oman_reversed', '_Peru_reversed', '_Mali_reversed', '_Belgium_reversed', '_Sudan_reversed']","['m', 'f', 'f', 'm', 'f']","['p318', 'p245', 'p284', 'p256', 'p268']","[7, 10, 5, 2, 0]","[91.73820004985969, 93.00003341222717, 90.34149293193902, 87.57049330475357, 84.40078082039426]",3.0,False,6.8,3.96232255123179,2.6248185634613037,0.9349222562705708
0,,sub_108,2024-07-01 10:50:17,3,distance,cathedral,numerosity_judgement,3,55,2,countries_reversed,"['_Peru_reversed', '_Oman_reversed']","['m', 'm']","['p256', 'p307']","[6, 5]","[91.58892582949886, 90.34149293193902]",2.0,True,7.5,0.7071067811865476,1.5623648166656494,0.5561570763817955
0,,sub_108,2024-07-01 10:50:21,3,distance,cathedral,numerosity_judgement,3,56,5,countries_reversed,"['_Tonga_reversed', '_Peru_reversed', '_Oman_reversed', '_Britain_reversed', '_Yemen_reversed']","['f', 'f', 'm', 'm', 'f']","['p268', 'p245', 'p307', 'p229', 'p248']","[4, 5, 7, 1, 3]","[89.31368318402099, 90.34149293193902, 91.73820004985969, 86.2038576498559, 89.14911522239515]",3.0,False,6.0,2.23606797749979,2.6248159408569336,0.697979797979798
0,,sub_108,2024-07-01 10:50:24,3,distance,cathedral,numerosity_judgement,3,57,6,countries_reversed,"['_Mali_reversed', '_Cuba_reversed', '_Britain_reversed', '_Tonga_reversed', '_Belgium_reversed', '_Yemen_reversed']","['f', 'm', 'f', 'm', 'm', 'f']","['p248', 'p256', 'p245', 'p307', 'p229', 'p268']","[10, 7, 8, 1, 5, 9]","[93.00003341222717, 91.73820004985969, 92.0152836843556, 86.2038576498559, 90.34149293193902, 92.00610777531934]",4.0,False,8.666666666666666,3.265986323710904,1.9373652935028076,0.770060152082624
0,,sub_108,2024-07-01 10:50:27,3,distance,cathedral,numerosity_judgement,3,58,4,countries_reversed,"['_Britain_reversed', '_Sudan_reversed', '_Togo_reversed', '_Japan_reversed']","['f', 'f', 'f', 'f']","['p245', 'p248', 'p284', 'p268']","[10, 7, 2, 9]","[93.00003341222717, 91.73820004985969, 87.57049330475357, 92.00610777531934]",4.0,True,9.0,3.559026084010437,1.7498795986175537,0.841652479854727
0,,sub_108,2024-07-01 10:50:29,3,distance,cathedral,numerosity_judgement,3,59,3,countries_reversed,"['_Yemen_reversed', '_Mali_reversed', '_Cuba_reversed']","['f', 'f', 'f']","['p268', 'p284', 'p248']","[2, 8, 5]","[87.57049330475357, 92.0152836843556, 90.34149293193902]",3.0,True,7.0,3.0,1.2499134540557861,0.8978549540347294
0,,sub_108,2024-07-01 10:50:33,3,distance,cathedral,numerosity_judgement,3,60,5,countries_reversed,"['_Togo_reversed', '_Congo_reversed', '_Tonga_reversed', '_Oman_reversed', '_Sudan_reversed']","['f', 'm', 'm', 'f', 'm']","['p248', 'p318', 'p307', 'p268', 'p256']","[7, 1, 10, 9, 8]","[91.73820004985969, 86.2038576498559, 93.00003341222717, 92.00610777531934, 92.0152836843556]",3.0,False,9.0,3.5355339059327378,2.6199941635131836,0.7104868913857678
0,,sub_108,2024-07-01 10:50:36,3,distance,cathedral,numerosity_judgement,3,61,2,countries_reversed,"['_Tonga_reversed', '_Congo_reversed']","['m', 'm']","['p318', 'p307']","[0, 7]","[84.40078082039426, 91.73820004985969]",2.0,True,5.5,4.949747468305833,1.4262478351593018,0.7788786743842924
0,,sub_108,2024-07-01 10:50:39,3,distance,cathedral,numerosity_judgement,3,62,4,countries_reversed,"['_Syria_reversed', '_Sudan_reversed', '_Yemen_reversed', '_Oman_reversed']","['m', 'm', 'm', 'f']","['p318', 'p256', 'p229', 'p284']","[5, 7, 9, 8]","[90.34149293193902, 91.73820004985969, 92.00610777531934, 92.0152836843556]",3.0,False,9.25,1.707825127659933,2.1560885906219482,0.737237543979117
0,,sub_108,2024-07-01 10:50:42,3,distance,cathedral,numerosity_judgement,3,63,3,countries_reversed,"['_Yemen_reversed', '_Cuba_reversed', '_Oman_reversed']","['f', 'f', 'm']","['p268', 'p245', 'p256']","[8, 5, 9]","[92.0152836843556, 90.34149293193902, 92.00610777531934]",2.0,False,9.333333333333334,2.0816659994661326,1.6873853206634521,0.6368630121439111
0,,sub_108,2024-07-01 10:50:47,3,distance,cathedral,numerosity_judgement,3,64,6,countries_reversed,"['_Yemen_reversed', '_Peru_reversed', '_Syria_reversed', '_Cuba_reversed', '_Tonga_reversed', '_Togo_reversed']","['m', 'm', 'm', 'm', 'f', 'f']","['p256', 'p318', 'p229', 'p307', 'p245', 'p268']","[9, 8, 6, 7, 4, 5]","[92.00610777531934, 92.0152836843556, 91.58892582949886, 91.73820004985969, 89.31368318402099, 90.34149293193902]",3.0,False,8.5,1.8708286933869707,2.749810218811035,0.7618204517080922
0,,sub_108,2024-07-01 10:50:49,3,distance,cathedral,numerosity_judgement,3,65,2,countries_reversed,"['_Oman_reversed', '_Britain_reversed']","['f', 'm']","['p248', 'p229']","[5, 1]","[90.34149293193902, 86.2038576498559]",2.0,True,5.0,2.8284271247461903,1.3905541896820068,0.7206673476336398
0,,sub_108,2024-07-01 10:50:52,3,distance,cathedral,numerosity_judgement,3,66,4,countries_reversed,"['_Peru_reversed', '_Belgium_reversed', '_Yemen_reversed', '_Sudan_reversed']","['f', 'm', 'f', 'f']","['p245', 'p229', 'p284', 'p248']","[7, 5, 6, 0]","[91.73820004985969, 90.34149293193902, 91.58892582949886, 84.40078082039426]",2.0,False,6.5,3.1091263510296048,1.6248621940612793,0.7954602201793213
0,,sub_108,2024-07-01 10:50:57,3,distance,cathedral,numerosity_judgement,3,67,5,countries_reversed,"['_Oman_reversed', '_Yemen_reversed', '_Sudan_reversed', '_Peru_reversed', '_Japan_reversed']","['f', 'f', 'f', 'm', 'm']","['p248', 'p284', 'p268', 'p256', 'p307']","[6, 9, 4, 5, 8]","[91.58892582949886, 92.00610777531934, 89.31368318402099, 90.34149293193902, 92.0152836843556]",3.0,False,8.4,2.073644135332772,3.3747663497924805,0.8620928384973329
0,,sub_108,2024-07-01 10:50:59,3,distance,cathedral,numerosity_judgement,3,68,3,countries_reversed,"['_Oman_reversed', '_Britain_reversed', '_Yemen_reversed']","['f', 'm', 'f']","['p268', 'p229', 'p245']","[6, 3, 4]","[91.58892582949886, 89.14911522239515, 89.31368318402099]",2.0,False,6.333333333333333,1.5275252316519465,1.4374005794525146,0.6890477811826127
0,,sub_108,2024-07-01 10:51:03,3,distance,cathedral,numerosity_judgement,3,69,6,countries_reversed,"['_Japan_reversed', '_Congo_reversed', '_Togo_reversed', '_Yemen_reversed', '_Syria_reversed', '_Tonga_reversed']","['m', 'm', 'm', 'f', 'm', 'f']","['p318', 'p307', 'p256', 'p268', 'p229', 'p248']","[10, 0, 4, 9, 5, 3]","[93.00003341222717, 84.40078082039426, 89.31368318402099, 92.00610777531934, 90.34149293193902, 89.14911522239515]",4.0,False,7.166666666666667,3.763863263545405,2.4998273849487305,0.8603109749177165
0,,sub_108,2024-07-01 10:51:07,3,distance,cathedral,numerosity_judgement,3,70,4,countries_reversed,"['_Tonga_reversed', '_Britain_reversed', '_Togo_reversed', '_Oman_reversed']","['m', 'f', 'm', 'f']","['p256', 'p284', 'p318', 'p248']","[9, 1, 3, 7]","[92.00610777531934, 86.2038576498559, 89.14911522239515, 91.73820004985969]",3.0,False,7.0,3.6514837167011076,2.6248185634613037,0.8650323459312224
0,,sub_108,2024-07-01 10:51:11,3,distance,cathedral,numerosity_judgement,3,71,2,countries_reversed,"['_Britain_reversed', '_Belgium_reversed']","['f', 'm']","['p268', 'p256']","[7, 5]","[91.73820004985969, 90.34149293193902]",2.0,True,8.0,1.4142135623730951,3.062288761138916,0.8199977301100897
0,,sub_108,2024-07-01 10:51:15,3,distance,cathedral,numerosity_judgement,3,72,6,countries_reversed,"['_Congo_reversed', '_Syria_reversed', '_Belgium_reversed', '_Britain_reversed', '_Japan_reversed', '_Peru_reversed']","['f', 'f', 'm', 'f', 'm', 'f']","['p268', 'p245', 'p256', 'p248', 'p229', 'p284']","[0, 10, 3, 9, 5, 7]","[84.40078082039426, 93.00003341222717, 89.14911522239515, 92.00610777531934, 90.34149293193902, 91.73820004985969]",3.0,False,7.666666666666667,3.777124126457412,2.2498459815979004,0.937464532970151
0,,sub_108,2024-07-01 10:51:19,3,distance,cathedral,numerosity_judgement,3,73,5,countries_reversed,"['_Congo_reversed', '_Britain_reversed', '_Belgium_reversed', '_Japan_reversed', '_Sudan_reversed']","['m', 'f', 'm', 'f', 'm']","['p256', 'p245', 'p318', 'p268', 'p307']","[0, 9, 5, 8, 4]","[84.40078082039426, 92.00610777531934, 90.34149293193902, 92.0152836843556, 89.31368318402099]",3.0,False,7.2,3.5637059362410923,2.687314510345459,0.915310407445239
0,,sub_108,2024-07-01 10:51:22,3,distance,cathedral,numerosity_judgement,3,74,3,countries_reversed,"['_Cuba_reversed', '_Peru_reversed', '_Britain_reversed']","['f', 'm', 'm']","['p245', 'p318', 'p256']","[9, 1, 10]","[92.00610777531934, 86.2038576498559, 93.00003341222717]",2.0,False,8.666666666666666,4.932882862316248,1.49989652633667,0.7175008512087164
0,,sub_108,2024-07-01 10:52:48,3,distance,cathedral,numerosity_judgement,4,0,3,countries_reversed,"['_Oman_reversed', '_Peru_reversed', '_Cuba_reversed']","['f', 'f', 'm']","['p284', 'p248', 'p307']","[6, 10, 7]","[91.58892582949886, 93.00003341222717, 91.73820004985969]",2.0,False,9.666666666666666,2.0816659994661326,2.0624213218688965,0.6376234252638747
0,,sub_108,2024-07-01 10:52:52,3,distance,cathedral,numerosity_judgement,4,1,2,countries_reversed,"['_Congo_reversed', '_Togo_reversed']","['m', 'm']","['p307', 'p256']","[6, 5]","[91.58892582949886, 90.34149293193902]",2.0,True,7.5,0.7071067811865476,2.187284469604492,0.7834298036545227
0,,sub_108,2024-07-01 10:52:54,3,distance,cathedral,numerosity_judgement,4,2,6,countries_reversed,"['_Tonga_reversed', '_Sudan_reversed', '_Congo_reversed', '_Japan_reversed', '_Syria_reversed', '_Britain_reversed']","['f', 'f', 'm', 'm', 'f', 'f']","['p268', 'p245', 'p307', 'p229', 'p248', 'p284']","[9, 2, 5, 1, 8, 4]","[92.00610777531934, 87.57049330475357, 90.34149293193902, 86.2038576498559, 92.0152836843556, 89.31368318402099]",4.0,False,6.833333333333333,3.188521078284832,1.5623924732208252,0.956849392804449
0,,sub_108,2024-07-01 10:52:58,3,distance,cathedral,numerosity_judgement,4,3,5,countries_reversed,"['_Oman_reversed', '_Cuba_reversed', '_Mali_reversed', '_Togo_reversed', '_Yemen_reversed']","['f', 'f', 'm', 'm', 'f']","['p284', 'p248', 'p256', 'p229', 'p268']","[9, 8, 10, 3, 4]","[92.00610777531934, 92.0152836843556, 93.00003341222717, 89.14911522239515, 89.31368318402099]",3.0,False,8.8,3.1144823004794873,2.1248245239257812,0.7399727613210759
0,,sub_108,2024-07-01 10:53:01,3,distance,cathedral,numerosity_judgement,4,4,4,countries_reversed,"['_Oman_reversed', '_Cuba_reversed', '_Congo_reversed', '_Yemen_reversed']","['m', 'm', 'f', 'f']","['p307', 'p318', 'p284', 'p245']","[6, 9, 10, 8]","[91.58892582949886, 92.00610777531934, 93.00003341222717, 92.0152836843556]",3.0,False,10.25,1.707825127659933,1.562391996383667,0.7469980705935763
0,,sub_108,2024-07-01 10:53:04,3,distance,cathedral,numerosity_judgement,4,5,5,countries_reversed,"['_Oman_reversed', '_Tonga_reversed', '_Syria_reversed', '_Britain_reversed', '_Togo_reversed']","['m', 'f', 'm', 'm', 'f']","['p256', 'p284', 'p229', 'p307', 'p245']","[7, 6, 1, 10, 2]","[91.73820004985969, 91.58892582949886, 86.2038576498559, 93.00003341222717, 87.57049330475357]",2.0,False,7.2,3.7013511046643495,2.187347888946533,0.8105095902848711
0,,sub_108,2024-07-01 10:53:07,3,distance,cathedral,numerosity_judgement,4,6,2,countries_reversed,"['_Peru_reversed', '_Togo_reversed']","['f', 'f']","['p268', 'p284']","[2, 3]","[87.57049330475357, 89.14911522239515]",2.0,True,4.5,0.7071067811865476,2.062356948852539,0.9293496765406878
0,,sub_108,2024-07-01 10:53:12,3,distance,cathedral,numerosity_judgement,4,7,3,countries_reversed,"['_Cuba_reversed', '_Tonga_reversed', '_Oman_reversed']","['m', 'f', 'f']","['p307', 'p284', 'p245']","[7, 9, 5]","[91.73820004985969, 92.00610777531934, 90.34149293193902]",3.0,True,9.0,2.0,3.2497751712799072,0.5873453637498581
0,,sub_108,2024-07-01 10:53:15,3,distance,cathedral,numerosity_judgement,4,8,6,countries_reversed,"['_Peru_reversed', '_Congo_reversed', '_Syria_reversed', '_Oman_reversed', '_Japan_reversed', '_Sudan_reversed']","['m', 'm', 'f', 'f', 'f', 'm']","['p229', 'p318', 'p284', 'p268', 'p248', 'p307']","[10, 4, 9, 2, 1, 8]","[93.00003341222717, 89.31368318402099, 92.00610777531934, 87.57049330475357, 86.2038576498559, 92.0152836843556]",4.0,False,7.666666666666667,3.8297084310253524,2.1873488426208496,0.9079900124843944
0,,sub_108,2024-07-01 10:53:18,3,distance,cathedral,numerosity_judgement,4,9,4,countries_reversed,"['_Sudan_reversed', '_Britain_reversed', '_Congo_reversed', '_Tonga_reversed']","['f', 'f', 'm', 'f']","['p248', 'p284', 'p229', 'p268']","[1, 0, 7, 5]","[86.2038576498559, 84.40078082039426, 91.73820004985969, 90.34149293193902]",2.0,False,5.25,3.304037933599835,1.4998974800109863,0.9528430371127
0,,sub_108,2024-07-01 10:53:21,3,distance,cathedral,numerosity_judgement,4,10,2,countries_reversed,"['_Peru_reversed', '_Tonga_reversed']","['m', 'm']","['p256', 'p307']","[9, 0]","[92.00610777531934, 84.40078082039426]",2.0,True,6.5,6.363961030678928,1.6248259544372559,0.8626376120758144
0,,sub_108,2024-07-01 10:53:24,3,distance,cathedral,numerosity_judgement,4,11,5,countries_reversed,"['_Tonga_reversed', '_Japan_reversed', '_Yemen_reversed', '_Belgium_reversed', '_Syria_reversed']","['m', 'm', 'm', 'f', 'f']","['p318', 'p307', 'p256', 'p284', 'p248']","[1, 3, 6, 10, 2]","[86.2038576498559, 89.14911522239515, 91.58892582949886, 93.00003341222717, 87.57049330475357]",3.0,False,6.4,3.646916505762094,1.687382698059082,0.8645783679491544
0,,sub_108,2024-07-01 10:53:27,3,distance,cathedral,numerosity_judgement,4,12,6,countries_reversed,"['_Mali_reversed', '_Cuba_reversed', '_Britain_reversed', '_Japan_reversed', '_Togo_reversed', '_Belgium_reversed']","['f', 'm', 'f', 'm', 'm', 'f']","['p248', 'p256', 'p268', 'p229', 'p307', 'p284']","[7, 0, 2, 9, 1, 3]","[91.73820004985969, 84.40078082039426, 87.57049330475357, 92.00610777531934, 86.2038576498559, 89.14911522239515]",4.0,False,5.666666666666667,3.559026084010437,1.9998605251312256,0.9296674611281353
0,,sub_108,2024-07-01 10:53:30,3,distance,cathedral,numerosity_judgement,4,13,4,countries_reversed,"['_Mali_reversed', '_Oman_reversed', '_Britain_reversed', '_Peru_reversed']","['m', 'm', 'm', 'f']","['p318', 'p307', 'p256', 'p248']","[1, 5, 8, 3]","[86.2038576498559, 90.34149293193902, 92.0152836843556, 89.14911522239515]",2.0,False,6.25,2.9860788111948193,1.4998962879180908,0.6719441607082056
0,,sub_108,2024-07-01 10:53:33,3,distance,cathedral,numerosity_judgement,4,14,3,countries_reversed,"['_Tonga_reversed', '_Yemen_reversed', '_Congo_reversed']","['f', 'm', 'm']","['p245', 'p318', 'p256']","[6, 9, 10]","[91.58892582949886, 92.00610777531934, 93.00003341222717]",3.0,True,10.333333333333334,2.0816659994661326,1.8748507499694824,0.7998297582567245
0,,sub_108,2024-07-01 10:53:37,3,distance,cathedral,numerosity_judgement,4,15,4,countries_reversed,"['_Yemen_reversed', '_Oman_reversed', '_Syria_reversed', '_Britain_reversed']","['f', 'm', 'f', 'f']","['p268', 'p318', 'p248', 'p245']","[9, 3, 6, 1]","[92.00610777531934, 89.14911522239515, 91.58892582949886, 86.2038576498559]",3.0,False,6.75,3.5,2.187350273132324,0.7685620247418
0,,sub_108,2024-07-01 10:53:41,3,distance,cathedral,numerosity_judgement,4,16,3,countries_reversed,"['_Oman_reversed', '_Yemen_reversed', '_Peru_reversed']","['m', 'm', 'm']","['p229', 'p318', 'p256']","[6, 5, 1]","[91.58892582949886, 90.34149293193902, 86.2038576498559]",3.0,True,6.0,2.6457513110645907,2.6248185634613037,0.6271819316763138
0,,sub_108,2024-07-01 10:53:44,3,distance,cathedral,numerosity_judgement,4,17,6,countries_reversed,"['_Peru_reversed', '_Congo_reversed', '_Britain_reversed', '_Mali_reversed', '_Japan_reversed', '_Syria_reversed']","['f', 'm', 'f', 'm', 'f', 'f']","['p268', 'p318', 'p245', 'p229', 'p284', 'p248']","[9, 0, 7, 8, 4, 6]","[92.00610777531934, 84.40078082039426, 91.73820004985969, 92.0152836843556, 89.31368318402099, 91.58892582949886]",5.0,False,7.666666666666667,3.265986323710904,1.9373648166656494,0.8857904891612757
0,,sub_108,2024-07-01 10:53:47,3,distance,cathedral,numerosity_judgement,4,18,5,countries_reversed,"['_Syria_reversed', '_Oman_reversed', '_Cuba_reversed', '_Togo_reversed', '_Sudan_reversed']","['f', 'm', 'm', 'f', 'f']","['p284', 'p229', 'p318', 'p248', 'p245']","[1, 2, 8, 3, 0]","[86.2038576498559, 87.57049330475357, 92.0152836843556, 89.14911522239515, 84.40078082039426]",4.0,False,4.8,3.1144823004794877,1.9998626708984375,0.9562932697764158
0,,sub_108,2024-07-01 10:53:50,3,distance,cathedral,numerosity_judgement,4,19,2,countries_reversed,"['_Oman_reversed', '_Yemen_reversed']","['m', 'f']","['p256', 'p245']","[3, 5]","[89.14911522239515, 90.34149293193902]",3.0,False,6.0,1.4142135623730951,1.9373664855957031,0.5576552037226195
0,,sub_108,2024-07-01 10:53:55,3,distance,cathedral,numerosity_judgement,4,20,5,countries_reversed,"['_Togo_reversed', '_Tonga_reversed', '_Oman_reversed', '_Mali_reversed', '_Yemen_reversed']","['f', 'm', 'm', 'm', 'f']","['p245', 'p256', 'p307', 'p318', 'p248']","[10, 3, 6, 9, 5]","[93.00003341222717, 89.14911522239515, 91.58892582949886, 92.00610777531934, 90.34149293193902]",3.0,False,8.6,2.8809720581775866,3.8122377395629883,0.6536828963795256
0,,sub_108,2024-07-01 10:53:58,3,distance,cathedral,numerosity_judgement,4,21,2,countries_reversed,"['_Mali_reversed', '_Cuba_reversed']","['f', 'm']","['p245', 'p229']","[2, 8]","[87.57049330475357, 92.0152836843556]",2.0,True,7.0,4.242640687119285,1.437401294708252,0.823652252865736
0,,sub_108,2024-07-01 10:54:01,3,distance,cathedral,numerosity_judgement,4,22,4,countries_reversed,"['_Cuba_reversed', '_Peru_reversed', '_Congo_reversed', '_Britain_reversed']","['f', 'm', 'm', 'f']","['p268', 'p318', 'p229', 'p245']","[8, 0, 2, 10]","[92.0152836843556, 84.40078082039426, 87.57049330475357, 93.00003341222717]",3.0,False,7.0,4.760952285695233,1.937366008758545,0.8151628646010668
0,,sub_108,2024-07-01 10:54:05,3,distance,cathedral,numerosity_judgement,4,23,6,countries_reversed,"['_Tonga_reversed', '_Togo_reversed', '_Syria_reversed', '_Peru_reversed', '_Cuba_reversed', '_Yemen_reversed']","['m', 'm', 'f', 'm', 'f', 'm']","['p307', 'p256', 'p284', 'p229', 'p245', 'p318']","[8, 10, 0, 6, 7, 1]","[92.0152836843556, 93.00003341222717, 84.40078082039426, 91.58892582949886, 91.73820004985969, 86.2038576498559]",3.0,False,7.333333333333333,3.9832984656772417,2.31234073638916,0.7506185450005675
0,,sub_108,2024-07-01 10:54:09,3,distance,cathedral,numerosity_judgement,4,24,3,countries_reversed,"['_Tonga_reversed', '_Togo_reversed', '_Congo_reversed']","['f', 'm', 'm']","['p248', 'p307', 'p256']","[3, 5, 6]","[89.14911522239515, 90.34149293193902, 91.58892582949886]",2.0,False,6.666666666666667,1.5275252316519465,2.687319278717041,0.7504483032572921
0,,sub_108,2024-07-01 10:54:11,3,distance,cathedral,numerosity_judgement,4,25,5,countries_reversed,"['_Britain_reversed', '_Cuba_reversed', '_Japan_reversed', '_Congo_reversed', '_Oman_reversed']","['f', 'm', 'f', 'm', 'm']","['p245', 'p256', 'p284', 'p229', 'p307']","[9, 5, 8, 7, 2]","[92.00610777531934, 90.34149293193902, 92.0152836843556, 91.73820004985969, 87.57049330475357]",3.0,False,8.2,2.7748873851023217,1.3749048709869385,0.9191805697423676
0,,sub_108,2024-07-01 10:54:14,3,distance,cathedral,numerosity_judgement,4,26,2,countries_reversed,"['_Yemen_reversed', '_Cuba_reversed']","['f', 'm']","['p248', 'p307']","[9, 5]","[92.00610777531934, 90.34149293193902]",2.0,True,9.0,2.8284271247461903,1.8123745918273926,0.5836227442969016
0,,sub_108,2024-07-01 10:54:18,3,distance,cathedral,numerosity_judgement,4,27,3,countries_reversed,"['_Britain_reversed', '_Cuba_reversed', '_Mali_reversed']","['f', 'm', 'm']","['p268', 'p318', 'p256']","[10, 4, 5]","[93.00003341222717, 89.31368318402099, 90.34149293193902]",3.0,True,8.333333333333334,3.214550253664318,2.4997634887695312,0.8452162070139598
0,,sub_108,2024-07-01 10:54:22,3,distance,cathedral,numerosity_judgement,4,28,6,countries_reversed,"['_Tonga_reversed', '_Cuba_reversed', '_Belgium_reversed', '_Syria_reversed', '_Mali_reversed', '_Britain_reversed']","['f', 'm', 'm', 'm', 'm', 'f']","['p284', 'p318', 'p229', 'p307', 'p256', 'p268']","[0, 7, 5, 10, 2, 4]","[84.40078082039426, 91.73820004985969, 90.34149293193902, 93.00003341222717, 87.57049330475357, 89.31368318402099]",2.0,False,6.666666666666667,3.559026084010437,2.4373631477355957,0.7291226875496538
0,,sub_108,2024-07-01 10:54:25,3,distance,cathedral,numerosity_judgement,4,29,4,countries_reversed,"['_Japan_reversed', '_Cuba_reversed', '_Congo_reversed', '_Oman_reversed']","['m', 'm', 'm', 'f']","['p318', 'p307', 'p256', 'p245']","[9, 7, 10, 3]","[92.00610777531934, 91.73820004985969, 93.00003341222717, 89.14911522239515]",2.0,False,9.25,3.095695936834452,1.7498817443847656,0.6886505504483033
0,,sub_108,2024-07-01 10:54:28,3,distance,cathedral,numerosity_judgement,4,30,6,countries_reversed,"['_Yemen_reversed', '_Tonga_reversed', '_Belgium_reversed', '_Oman_reversed', '_Mali_reversed', '_Peru_reversed']","['m', 'f', 'm', 'm', 'f', 'f']","['p256', 'p245', 'p307', 'p318', 'p268', 'p284']","[2, 1, 8, 4, 10, 9]","[87.57049330475357, 86.2038576498559, 92.0152836843556, 89.31368318402099, 93.00003341222717, 92.00610777531934]",2.0,False,7.666666666666667,3.8297084310253524,2.0623574256896973,0.8016229712858927
0,,sub_108,2024-07-01 10:54:32,3,distance,cathedral,numerosity_judgement,4,31,3,countries_reversed,"['_Sudan_reversed', '_Syria_reversed', '_Peru_reversed']","['m', 'f', 'm']","['p229', 'p284', 'p256']","[2, 3, 1]","[87.57049330475357, 89.14911522239515, 86.2038576498559]",2.0,False,4.0,1.0,2.2498440742492676,0.971592327772103
0,,sub_108,2024-07-01 10:54:36,3,distance,cathedral,numerosity_judgement,4,32,5,countries_reversed,"['_Japan_reversed', '_Cuba_reversed', '_Mali_reversed', '_Belgium_reversed', '_Yemen_reversed']","['m', 'm', 'f', 'm', 'f']","['p307', 'p318', 'p268', 'p229', 'p284']","[0, 4, 3, 10, 7]","[84.40078082039426, 89.31368318402099, 89.14911522239515, 93.00003341222717, 91.73820004985969]",3.0,False,6.8,3.8340579025361627,2.4373574256896973,0.8898649415503348
0,,sub_108,2024-07-01 10:54:38,3,distance,cathedral,numerosity_judgement,4,33,2,countries_reversed,"['_Mali_reversed', '_Yemen_reversed']","['m', 'f']","['p307', 'p248']","[8, 3]","[92.0152836843556, 89.14911522239515]",2.0,True,7.5,3.5355339059327378,1.4998970031738281,0.6426739303143798
0,,sub_108,2024-07-01 10:54:41,3,distance,cathedral,numerosity_judgement,4,34,4,countries_reversed,"['_Yemen_reversed', '_Sudan_reversed', '_Japan_reversed', '_Cuba_reversed']","['m', 'm', 'f', 'm']","['p318', 'p229', 'p268', 'p256']","[6, 9, 10, 8]","[91.58892582949886, 92.00610777531934, 93.00003341222717, 92.0152836843556]",4.0,True,10.25,1.707825127659933,1.4998955726623535,0.8440018159119282
