,event_id,subject_id,timestamp,session_index,plane,setup,task,block,trial_index,stim_number,stim_type,stim_country_ids,stim_sexes,stim_talker_ids,speaker_ids,stim_level,resp_number,is_correct,speaker_distance_mean,speaker_distance_st_dev,reaction_time,spectral_coverage
0,,sub_110,2024-07-08 10:43:18,3,distance,cathedral,numerosity_judgement,1,0,5,countries_forward,"['_Congo_', '_Yemen_', '_Cuba_', '_Oman_', '_Belgium_']","['m', 'f', 'f', 'm', 'm']","['p256', 'p245', 'p284', 'p307', 'p318']","[3, 4, 8, 6, 0]","[89.14911522239515, 89.31368318402099, 92.0152836843556, 91.58892582949886, 84.40078082039426]",3.0,False,6.2,3.03315017762062,2.31233549118042,0.7946317103620475
0,,sub_110,2024-07-08 10:43:21,3,distance,cathedral,numerosity_judgement,1,1,3,countries_forward,"['_Togo_', '_Peru_', '_Yemen_']","['m', 'f', 'f']","['p307', 'p245', 'p248']","[1, 4, 5]","[86.2038576498559, 89.31368318402099, 90.34149293193902]",2.0,False,5.333333333333333,2.0816659994661326,1.3749003410339355,0.7509136306889116
0,,sub_110,2024-07-08 10:43:24,3,distance,cathedral,numerosity_judgement,1,2,2,countries_forward,"['_Congo_', '_Yemen_']","['m', 'm']","['p229', 'p256']","[4, 7]","[89.31368318402099, 91.73820004985969]",4.0,False,7.5,2.1213203435596424,1.1874148845672607,0.6806037907161503
0,,sub_110,2024-07-08 10:43:28,3,distance,cathedral,numerosity_judgement,1,3,4,countries_forward,"['_Sudan_', '_Mali_', '_Syria_', '_Tonga_']","['f', 'f', 'f', 'm']","['p245', 'p284', 'p268', 'p307']","[7, 8, 10, 4]","[91.73820004985969, 92.0152836843556, 93.00003341222717, 89.31368318402099]",5.0,False,9.25,2.5,1.749875545501709,0.9376688230620814
0,,sub_110,2024-07-08 10:43:31,3,distance,cathedral,numerosity_judgement,1,4,6,countries_forward,"['_Sudan_', '_Cuba_', '_Japan_', '_Oman_', '_Syria_', '_Tonga_']","['m', 'm', 'f', 'm', 'f', 'f']","['p229', 'p318', 'p248', 'p307', 'p245', 'p268']","[4, 2, 0, 5, 8, 9]","[89.31368318402099, 87.57049330475357, 84.40078082039426, 90.34149293193902, 92.0152836843556, 92.00610777531934]",5.0,False,6.666666666666667,3.444802848737017,1.8123431205749512,0.9084666893655656
0,,sub_110,2024-07-08 10:43:34,3,distance,cathedral,numerosity_judgement,1,5,5,countries_forward,"['_Oman_', '_Yemen_', '_Belgium_', '_Cuba_', '_Britain_']","['f', 'f', 'm', 'f', 'f']","['p245', 'p284', 'p256', 'p268', 'p248']","[10, 8, 9, 7, 1]","[93.00003341222717, 92.0152836843556, 92.00610777531934, 91.73820004985969, 86.2038576498559]",6.0,False,9.0,3.5355339059327378,1.1874172687530518,0.7730564067642719
0,,sub_110,2024-07-08 10:43:37,3,distance,cathedral,numerosity_judgement,1,6,2,countries_forward,"['_Peru_', '_Mali_']","['m', 'm']","['p318', 'p229']","[2, 0]","[87.57049330475357, 84.40078082039426]",2.0,True,3.0,1.4142135623730951,1.3749046325683594,0.9059811599137442
0,,sub_110,2024-07-08 10:43:41,3,distance,cathedral,numerosity_judgement,1,7,6,countries_forward,"['_Togo_', '_Mali_', '_Oman_', '_Yemen_', '_Peru_', '_Britain_']","['f', 'm', 'f', 'm', 'f', 'm']","['p268', 'p318', 'p245', 'p307', 'p248', 'p256']","[7, 1, 2, 8, 0, 6]","[91.73820004985969, 86.2038576498559, 87.57049330475357, 92.0152836843556, 84.40078082039426, 91.58892582949886]",4.0,False,6.0,3.40587727318528,1.7498750686645508,0.7939620928384973
0,,sub_110,2024-07-08 10:43:45,3,distance,cathedral,numerosity_judgement,1,8,4,countries_forward,"['_Yemen_', '_Peru_', '_Togo_', '_Tonga_']","['m', 'f', 'm', 'f']","['p256', 'p248', 'p318', 'p245']","[4, 9, 8, 6]","[89.31368318402099, 92.00610777531934, 92.0152836843556, 91.58892582949886]",3.0,False,8.75,2.217355782608345,2.187343120574951,0.7267052547951425
0,,sub_110,2024-07-08 10:43:48,3,distance,cathedral,numerosity_judgement,1,9,3,countries_forward,"['_Cuba_', '_Tonga_', '_Yemen_']","['f', 'f', 'm']","['p268', 'p245', 'p256']","[10, 6, 5]","[93.00003341222717, 91.58892582949886, 90.34149293193902]",3.0,True,9.0,2.6457513110645907,1.4998924732208252,0.7057655203722619
0,,sub_110,2024-07-08 10:43:52,3,distance,cathedral,numerosity_judgement,1,10,5,countries_forward,"['_Belgium_', '_Japan_', '_Congo_', '_Tonga_', '_Peru_']","['m', 'f', 'm', 'f', 'f']","['p229', 'p248', 'p318', 'p245', 'p268']","[1, 4, 3, 7, 10]","[86.2038576498559, 89.31368318402099, 89.14911522239515, 91.73820004985969, 93.00003341222717]",4.0,False,7.0,3.5355339059327378,1.7498738765716553,0.7535694018840087
0,,sub_110,2024-07-08 10:43:55,3,distance,cathedral,numerosity_judgement,1,11,3,countries_forward,"['_Syria_', '_Mali_', '_Oman_']","['f', 'm', 'f']","['p284', 'p256', 'p268']","[2, 4, 6]","[87.57049330475357, 89.31368318402099, 91.58892582949886]",2.0,False,6.0,2.0,1.3124058246612549,0.8453750993076836
0,,sub_110,2024-07-08 10:43:58,3,distance,cathedral,numerosity_judgement,1,12,4,countries_forward,"['_Cuba_', '_Yemen_', '_Congo_', '_Oman_']","['m', 'f', 'f', 'f']","['p307', 'p268', 'p245', 'p248']","[7, 8, 4, 3]","[91.73820004985969, 92.0152836843556, 89.31368318402099, 89.14911522239515]",3.0,False,7.5,2.3804761428476167,1.8123700618743896,0.629043241402792
0,,sub_110,2024-07-08 10:44:01,3,distance,cathedral,numerosity_judgement,1,13,2,countries_forward,"['_Tonga_', '_Yemen_']","['m', 'm']","['p229', 'p307']","[3, 5]","[89.14911522239515, 90.34149293193902]",2.0,True,6.0,1.4142135623730951,1.3124349117279053,0.798354329815004
0,,sub_110,2024-07-08 10:44:05,3,distance,cathedral,numerosity_judgement,1,14,6,countries_forward,"['_Togo_', '_Oman_', '_Tonga_', '_Yemen_', '_Peru_', '_Britain_']","['f', 'f', 'f', 'f', 'm', 'm']","['p268', 'p245', 'p284', 'p248', 'p256', 'p229']","[2, 9, 1, 7, 3, 6]","[87.57049330475357, 92.00610777531934, 86.2038576498559, 91.73820004985969, 89.14911522239515, 91.58892582949886]",3.0,False,6.666666666666667,3.141125063837266,2.124847173690796,0.8367268187492907
0,,sub_110,2024-07-08 10:44:09,3,distance,cathedral,numerosity_judgement,1,15,5,countries_forward,"['_Britain_', '_Togo_', '_Tonga_', '_Belgium_', '_Congo_']","['f', 'm', 'f', 'f', 'm']","['p248', 'p256', 'p268', 'p284', 'p229']","[8, 6, 1, 7, 0]","[92.0152836843556, 91.58892582949886, 86.2038576498559, 91.73820004985969, 84.40078082039426]",4.0,False,6.4,3.6469165057620936,1.7498745918273926,0.9573033707865168
0,,sub_110,2024-07-08 10:44:13,3,distance,cathedral,numerosity_judgement,1,16,6,countries_forward,"['_Belgium_', '_Japan_', '_Britain_', '_Sudan_', '_Peru_', '_Yemen_']","['f', 'f', 'm', 'm', 'f', 'm']","['p284', 'p245', 'p229', 'p307', 'p268', 'p256']","[8, 4, 0, 6, 10, 7]","[92.0152836843556, 89.31368318402099, 84.40078082039426, 91.58892582949886, 93.00003341222717, 91.73820004985969]",4.0,False,7.833333333333333,3.488074922742725,2.2498388290405273,0.7515491998638066
0,,sub_110,2024-07-08 10:44:16,3,distance,cathedral,numerosity_judgement,1,17,2,countries_forward,"['_Mali_', '_Oman_']","['m', 'm']","['p307', 'p256']","[5, 7]","[90.34149293193902, 91.73820004985969]",2.0,True,8.0,1.4142135623730951,1.2499110698699951,0.5621949835432981
0,,sub_110,2024-07-08 10:44:19,3,distance,cathedral,numerosity_judgement,1,18,3,countries_forward,"['_Peru_', '_Togo_', '_Oman_']","['f', 'f', 'm']","['p268', 'p245', 'p229']","[3, 4, 6]","[89.14911522239515, 89.31368318402099, 91.58892582949886]",2.0,False,6.333333333333333,1.5275252316519465,1.4998924732208252,0.7581091817046873
0,,sub_110,2024-07-08 10:44:22,3,distance,cathedral,numerosity_judgement,1,19,4,countries_forward,"['_Sudan_', '_Tonga_', '_Cuba_', '_Peru_']","['f', 'm', 'f', 'm']","['p245', 'p256', 'p284', 'p229']","[10, 4, 2, 6]","[93.00003341222717, 89.31368318402099, 87.57049330475357, 91.58892582949886]",3.0,False,7.5,3.415650255319866,1.1873910427093506,0.8908409942117808
0,,sub_110,2024-07-08 10:44:26,3,distance,cathedral,numerosity_judgement,1,20,5,countries_forward,"['_Japan_', '_Cuba_', '_Mali_', '_Oman_', '_Tonga_']","['m', 'f', 'm', 'm', 'f']","['p307', 'p245', 'p229', 'p256', 'p248']","[4, 1, 6, 2, 0]","[89.31368318402099, 86.2038576498559, 91.58892582949886, 87.57049330475357, 84.40078082039426]",4.0,False,4.6,2.4083189157584592,2.2498390674591064,0.8270911360799001
0,,sub_110,2024-07-08 10:44:30,3,distance,cathedral,numerosity_judgement,1,21,3,countries_forward,"['_Tonga_', '_Oman_', '_Yemen_']","['f', 'm', 'm']","['p248', 'p318', 'p256']","[3, 0, 7]","[89.14911522239515, 84.40078082039426, 91.73820004985969]",3.0,True,5.333333333333333,3.5118845842842465,1.8124306201934814,0.682862331176938
0,,sub_110,2024-07-08 10:44:34,3,distance,cathedral,numerosity_judgement,1,22,4,countries_forward,"['_Cuba_', '_Japan_', '_Belgium_', '_Peru_']","['f', 'f', 'm', 'm']","['p268', 'p248', 'p229', 'p318']","[10, 4, 7, 9]","[93.00003341222717, 89.31368318402099, 91.73820004985969, 92.00610777531934]",5.0,False,9.5,2.6457513110645907,2.4373271465301514,0.8092271024855294
0,,sub_110,2024-07-08 10:44:40,3,distance,cathedral,numerosity_judgement,1,23,6,countries_forward,"['_Syria_', '_Tonga_', '_Congo_', '_Yemen_', '_Britain_', '_Mali_']","['f', 'f', 'f', 'm', 'm', 'm']","['p284', 'p245', 'p268', 'p318', 'p256', 'p307']","[5, 7, 6, 9, 0, 2]","[90.34149293193902, 91.73820004985969, 91.58892582949886, 92.00610777531934, 84.40078082039426, 87.57049330475357]",5.0,False,6.833333333333333,3.3115957885386114,3.6247410774230957,0.8780501645670185
0,,sub_110,2024-07-08 10:44:44,3,distance,cathedral,numerosity_judgement,1,24,2,countries_forward,"['_Britain_', '_Oman_']","['m', 'f']","['p307', 'p268']","[10, 7]","[93.00003341222717, 91.73820004985969]",2.0,True,10.5,2.1213203435596424,2.81229829788208,0.6459085234366133
0,,sub_110,2024-07-08 10:44:47,3,distance,cathedral,numerosity_judgement,1,25,3,countries_forward,"['_Yemen_', '_Oman_', '_Britain_']","['f', 'm', 'm']","['p248', 'p229', 'p307']","[10, 3, 6]","[93.00003341222717, 89.14911522239515, 91.58892582949886]",3.0,True,8.333333333333334,3.511884584284246,1.8748657703399658,0.6105209397344229
0,,sub_110,2024-07-08 10:44:51,3,distance,cathedral,numerosity_judgement,1,26,6,countries_forward,"['_Japan_', '_Togo_', '_Yemen_', '_Belgium_', '_Congo_', '_Tonga_']","['f', 'f', 'm', 'm', 'f', 'm']","['p284', 'p248', 'p307', 'p318', 'p268', 'p256']","[6, 4, 2, 10, 1, 8]","[91.58892582949886, 89.31368318402099, 87.57049330475357, 93.00003341222717, 86.2038576498559, 92.0152836843556]",4.0,False,7.166666666666667,3.488074922742725,1.7498750686645508,0.958608557484962
0,,sub_110,2024-07-08 10:44:54,3,distance,cathedral,numerosity_judgement,1,27,2,countries_forward,"['_Yemen_', '_Peru_']","['m', 'f']","['p256', 'p245']","[7, 5]","[91.73820004985969, 90.34149293193902]",3.0,False,8.0,1.4142135623730951,1.6873788833618164,0.5815457950289411
0,,sub_110,2024-07-08 10:44:58,3,distance,cathedral,numerosity_judgement,1,28,5,countries_forward,"['_Peru_', '_Sudan_', '_Cuba_', '_Mali_', '_Syria_']","['f', 'f', 'm', 'm', 'm']","['p248', 'p284', 'p318', 'p229', 'p256']","[4, 0, 10, 5, 3]","[89.31368318402099, 84.40078082039426, 93.00003341222717, 90.34149293193902, 89.14911522239515]",4.0,False,6.4,3.646916505762094,1.8123700618743896,0.8989785495403473
0,,sub_110,2024-07-08 10:45:02,3,distance,cathedral,numerosity_judgement,1,29,4,countries_forward,"['_Syria_', '_Yemen_', '_Mali_', '_Japan_']","['f', 'f', 'm', 'f']","['p268', 'p245', 'p307', 'p284']","[0, 10, 8, 4]","[84.40078082039426, 93.00003341222717, 92.0152836843556, 89.31368318402099]",4.0,True,7.5,4.43471156521669,2.374830484390259,0.9247304505731472
0,,sub_110,2024-07-08 10:45:07,3,distance,cathedral,numerosity_judgement,1,30,3,countries_forward,"['_Sudan_', '_Peru_', '_Togo_']","['f', 'f', 'f']","['p284', 'p268', 'p248']","[6, 4, 10]","[91.58892582949886, 89.31368318402099, 93.00003341222717]",5.0,False,8.666666666666666,3.055050463303893,2.874793291091919,0.9545908523436614
0,,sub_110,2024-07-08 10:45:10,3,distance,cathedral,numerosity_judgement,1,31,6,countries_forward,"['_Yemen_', '_Mali_', '_Congo_', '_Togo_', '_Peru_', '_Oman_']","['m', 'm', 'f', 'm', 'f', 'f']","['p318', 'p256', 'p284', 'p307', 'p245', 'p248']","[0, 8, 2, 7, 5, 6]","[84.40078082039426, 92.0152836843556, 87.57049330475357, 91.73820004985969, 90.34149293193902, 91.58892582949886]",5.0,False,6.666666666666667,3.0767948691238205,1.5623891353607178,0.7287141073657928
0,,sub_110,2024-07-08 10:45:14,3,distance,cathedral,numerosity_judgement,1,32,4,countries_forward,"['_Congo_', '_Oman_', '_Peru_', '_Yemen_']","['m', 'm', 'f', 'f']","['p307', 'p229', 'p284', 'p248']","[3, 10, 2, 6]","[89.14911522239515, 93.00003341222717, 87.57049330475357, 91.58892582949886]",3.0,False,7.25,3.593976442141304,1.9373607635498047,0.672829417773238
0,,sub_110,2024-07-08 10:45:18,3,distance,cathedral,numerosity_judgement,1,33,5,countries_forward,"['_Congo_', '_Cuba_', '_Togo_', '_Oman_', '_Syria_']","['f', 'm', 'm', 'f', 'f']","['p248', 'p307', 'p318', 'p284', 'p245']","[9, 2, 4, 3, 0]","[92.00610777531934, 87.57049330475357, 89.31368318402099, 89.14911522239515, 84.40078082039426]",3.0,False,5.6,3.361547262794322,2.56231689453125,0.8801498127340824
0,,sub_110,2024-07-08 10:45:21,3,distance,cathedral,numerosity_judgement,1,34,2,countries_forward,"['_Peru_', '_Britain_']","['m', 'm']","['p307', 'p256']","[4, 10]","[89.31368318402099, 93.00003341222717]",2.0,True,9.0,4.242640687119285,1.3749017715454102,0.696334127794802
0,,sub_110,2024-07-08 10:45:26,3,distance,cathedral,numerosity_judgement,1,35,5,countries_forward,"['_Togo_', '_Oman_', '_Yemen_', '_Britain_', '_Tonga_']","['f', 'm', 'm', 'f', 'm']","['p245', 'p256', 'p307', 'p248', 'p318']","[2, 6, 8, 1, 0]","[87.57049330475357, 91.58892582949886, 92.0152836843556, 86.2038576498559, 84.40078082039426]",3.0,False,5.4,3.4351128074635335,3.1872737407684326,0.7287254568153445
0,,sub_110,2024-07-08 10:45:30,3,distance,cathedral,numerosity_judgement,1,36,4,countries_forward,"['_Peru_', '_Togo_', '_Cuba_', '_Oman_']","['m', 'f', 'm', 'f']","['p256', 'p268', 'p307', 'p284']","[6, 10, 5, 2]","[91.58892582949886, 93.00003341222717, 90.34149293193902, 87.57049330475357]",4.0,True,7.75,3.304037933599835,1.6248865127563477,0.6809669731018045
0,,sub_110,2024-07-08 10:45:34,3,distance,cathedral,numerosity_judgement,1,37,6,countries_forward,"['_Syria_', '_Cuba_', '_Sudan_', '_Togo_', '_Yemen_', '_Oman_']","['m', 'f', 'm', 'm', 'f', 'f']","['p307', 'p268', 'p229', 'p256', 'p245', 'p248']","[6, 8, 4, 2, 3, 1]","[91.58892582949886, 92.0152836843556, 89.31368318402099, 87.57049330475357, 89.14911522239515, 86.2038576498559]",5.0,False,6.0,2.6076809620810595,2.624809980392456,0.8715128816252412
0,,sub_110,2024-07-08 10:45:37,3,distance,cathedral,numerosity_judgement,1,38,2,countries_forward,"['_Yemen_', '_Congo_']","['f', 'm']","['p245', 'p307']","[7, 6]","[91.73820004985969, 91.58892582949886]",2.0,True,8.5,0.7071067811865476,1.1249182224273682,0.7425377369197594
0,,sub_110,2024-07-08 10:45:40,3,distance,cathedral,numerosity_judgement,1,39,3,countries_forward,"['_Congo_', '_Sudan_', '_Japan_']","['m', 'f', 'm']","['p256', 'p284', 'p307']","[4, 0, 6]","[89.31368318402099, 84.40078082039426, 91.58892582949886]",3.0,True,5.333333333333333,3.0550504633038935,1.1249189376831055,0.8650436953807741
0,,sub_110,2024-07-08 10:45:43,3,distance,cathedral,numerosity_judgement,1,40,6,countries_forward,"['_Syria_', '_Togo_', '_Peru_', '_Cuba_', '_Oman_', '_Yemen_']","['f', 'm', 'f', 'm', 'f', 'm']","['p248', 'p307', 'p268', 'p229', 'p245', 'p256']","[4, 2, 10, 0, 5, 8]","[89.31368318402099, 87.57049330475357, 93.00003341222717, 84.40078082039426, 90.34149293193902, 92.0152836843556]",4.0,False,6.833333333333333,3.7103458958251676,1.499952793121338,0.8222789694699807
0,,sub_110,2024-07-08 10:45:47,3,distance,cathedral,numerosity_judgement,1,41,3,countries_forward,"['_Belgium_', '_Peru_', '_Sudan_']","['f', 'm', 'f']","['p245', 'p229', 'p268']","[5, 3, 1]","[90.34149293193902, 89.14911522239515, 86.2038576498559]",4.0,False,5.0,2.0,2.1248247623443604,0.9394960844399046
0,,sub_110,2024-07-08 10:45:52,3,distance,cathedral,numerosity_judgement,1,42,2,countries_forward,"['_Togo_', '_Oman_']","['m', 'f']","['p229', 'p268']","[9, 7]","[92.00610777531934, 91.73820004985969]",4.0,False,10.0,1.4142135623730951,3.312262773513794,0.8241062308478039
0,,sub_110,2024-07-08 10:45:56,3,distance,cathedral,numerosity_judgement,1,43,4,countries_forward,"['_Tonga_', '_Japan_', '_Congo_', '_Britain_']","['f', 'm', 'm', 'm']","['p268', 'p318', 'p307', 'p256']","[6, 9, 1, 7]","[91.58892582949886, 92.00610777531934, 86.2038576498559, 91.73820004985969]",5.0,False,7.75,3.4034296427770228,1.9373610019683838,0.8775167404380888
0,,sub_110,2024-07-08 10:45:59,3,distance,cathedral,numerosity_judgement,1,44,5,countries_forward,"['_Syria_', '_Cuba_', '_Togo_', '_Tonga_', '_Oman_']","['f', 'f', 'm', 'f', 'm']","['p248', 'p268', 'p318', 'p245', 'p229']","[0, 3, 4, 6, 10]","[84.40078082039426, 89.14911522239515, 89.31368318402099, 91.58892582949886, 93.00003341222717]",3.0,False,6.6,3.714835124201342,1.8748629093170166,0.696220633299285
0,,sub_110,2024-07-08 10:46:03,3,distance,cathedral,numerosity_judgement,1,45,6,countries_forward,"['_Tonga_', '_Congo_', '_Mali_', '_Yemen_', '_Belgium_', '_Syria_']","['m', 'm', 'f', 'm', 'f', 'm']","['p256', 'p307', 'p245', 'p318', 'p268', 'p229']","[9, 10, 4, 7, 5, 1]","[92.00610777531934, 93.00003341222717, 89.31368318402099, 91.73820004985969, 90.34149293193902, 86.2038576498559]",5.0,False,8.0,3.3466401061363023,1.4998929500579834,0.8432073544433095
0,,sub_110,2024-07-08 10:46:07,3,distance,cathedral,numerosity_judgement,1,46,2,countries_forward,"['_Cuba_', '_Peru_']","['m', 'm']","['p229', 'p256']","[3, 1]","[89.14911522239515, 86.2038576498559]",4.0,False,4.0,1.4142135623730951,2.062351942062378,0.768936556577006
0,,sub_110,2024-07-08 10:46:10,3,distance,cathedral,numerosity_judgement,1,47,3,countries_forward,"['_Cuba_', '_Oman_', '_Togo_']","['m', 'm', 'f']","['p307', 'p229', 'p284']","[5, 6, 1]","[90.34149293193902, 91.58892582949886, 86.2038576498559]",3.0,True,6.0,2.6457513110645907,1.562387466430664,0.7289864941550335
0,,sub_110,2024-07-08 10:46:14,3,distance,cathedral,numerosity_judgement,1,48,4,countries_forward,"['_Tonga_', '_Belgium_', '_Congo_', '_Peru_']","['f', 'm', 'm', 'f']","['p245', 'p256', 'p318', 'p248']","[4, 10, 0, 2]","[89.31368318402099, 93.00003341222717, 84.40078082039426, 87.57049330475357]",4.0,True,6.0,4.320493798938574,2.562317132949829,0.7873567131994098
0,,sub_110,2024-07-08 10:46:18,3,distance,cathedral,numerosity_judgement,1,49,5,countries_forward,"['_Syria_', '_Britain_', '_Yemen_', '_Cuba_', '_Togo_']","['m', 'm', 'f', 'f', 'm']","['p318', 'p307', 'p248', 'p268', 'p256']","[7, 3, 9, 4, 2]","[91.73820004985969, 89.14911522239515, 92.00610777531934, 89.31368318402099, 87.57049330475357]",5.0,True,7.0,2.9154759474226504,2.312333822250366,0.8376688230620815
0,,sub_110,2024-07-08 10:46:22,3,distance,cathedral,numerosity_judgement,1,50,4,countries_forward,"['_Britain_', '_Oman_', '_Cuba_', '_Yemen_']","['m', 'f', 'm', 'm']","['p256', 'p284', 'p229', 'p307']","[3, 1, 4, 7]","[89.14911522239515, 86.2038576498559, 89.31368318402099, 91.73820004985969]",3.0,False,5.75,2.5,2.2498393058776855,0.7457269322437862
0,,sub_110,2024-07-08 10:46:26,3,distance,cathedral,numerosity_judgement,1,51,3,countries_forward,"['_Oman_', '_Mali_', '_Togo_']","['f', 'm', 'f']","['p245', 'p307', 'p268']","[2, 1, 10]","[87.57049330475357, 86.2038576498559, 93.00003341222717]",4.0,False,6.333333333333333,4.932882862316247,1.8748655319213867,0.8121666099194189
0,,sub_110,2024-07-08 10:46:31,3,distance,cathedral,numerosity_judgement,1,52,6,countries_forward,"['_Tonga_', '_Mali_', '_Peru_', '_Oman_', '_Cuba_', '_Japan_']","['m', 'm', 'f', 'f', 'f', 'f']","['p229', 'p307', 'p268', 'p284', 'p248', 'p245']","[8, 4, 3, 7, 10, 2]","[92.0152836843556, 89.31368318402099, 89.14911522239515, 91.73820004985969, 93.00003341222717, 87.57049330475357]",5.0,False,7.666666666666667,3.141125063837266,2.8122992515563965,0.7804108500737714
0,,sub_110,2024-07-08 10:46:34,3,distance,cathedral,numerosity_judgement,1,53,5,countries_forward,"['_Cuba_', '_Yemen_', '_Britain_', '_Belgium_', '_Japan_']","['m', 'f', 'm', 'f', 'f']","['p256', 'p284', 'p318', 'p248', 'p245']","[0, 4, 5, 9, 8]","[84.40078082039426, 89.31368318402099, 90.34149293193902, 92.00610777531934, 92.0152836843556]",6.0,False,7.2,3.5637059362410923,1.6873791217803955,0.9236863012143912
0,,sub_110,2024-07-08 10:46:38,3,distance,cathedral,numerosity_judgement,1,54,2,countries_forward,"['_Syria_', '_Japan_']","['f', 'm']","['p284', 'p307']","[8, 0]","[92.0152836843556, 84.40078082039426]",3.0,False,6.0,5.656854249492381,2.187342882156372,0.951458404267393
0,,sub_110,2024-07-08 10:46:41,3,distance,cathedral,numerosity_judgement,1,55,3,countries_forward,"['_Togo_', '_Sudan_', '_Oman_']","['f', 'f', 'm']","['p268', 'p245', 'p318']","[10, 4, 0]","[93.00003341222717, 89.31368318402099, 84.40078082039426]",4.0,False,6.666666666666667,5.033222956847167,1.1873528957366943,0.912915673589831
0,,sub_110,2024-07-08 10:46:44,3,distance,cathedral,numerosity_judgement,1,56,6,countries_forward,"['_Togo_', '_Cuba_', '_Britain_', '_Yemen_', '_Peru_', '_Mali_']","['m', 'f', 'f', 'm', 'm', 'm']","['p229', 'p268', 'p248', 'p256', 'p318', 'p307']","[0, 3, 7, 5, 10, 4]","[84.40078082039426, 89.14911522239515, 91.73820004985969, 90.34149293193902, 93.00003341222717, 89.31368318402099]",5.0,False,6.833333333333333,3.4302575219167823,1.3124330043792725,0.7446146861877199
0,,sub_110,2024-07-08 10:46:47,3,distance,cathedral,numerosity_judgement,1,57,2,countries_forward,"['_Congo_', '_Britain_']","['f', 'f']","['p248', 'p268']","[7, 1]","[91.73820004985969, 86.2038576498559]",3.0,False,6.0,4.242640687119285,1.5623867511749268,0.8404607876517989
0,,sub_110,2024-07-08 10:46:50,3,distance,cathedral,numerosity_judgement,1,58,5,countries_forward,"['_Oman_', '_Belgium_', '_Congo_', '_Tonga_', '_Sudan_']","['m', 'm', 'f', 'f', 'f']","['p307', 'p256', 'p248', 'p268', 'p284']","[9, 6, 10, 8, 7]","[92.00610777531934, 91.58892582949886, 93.00003341222717, 92.0152836843556, 91.73820004985969]",6.0,False,10.0,1.5811388300841898,1.4998929500579834,0.8675973215299058
0,,sub_110,2024-07-08 10:46:54,3,distance,cathedral,numerosity_judgement,1,59,4,countries_forward,"['_Togo_', '_Syria_', '_Belgium_', '_Mali_']","['m', 'f', 'f', 'm']","['p256', 'p268', 'p248', 'p229']","[3, 7, 4, 2]","[89.14911522239515, 91.73820004985969, 89.31368318402099, 87.57049330475357]",5.0,False,6.0,2.160246899469287,2.4373252391815186,0.9558279423447964
0,,sub_110,2024-07-08 10:46:58,3,distance,cathedral,numerosity_judgement,1,60,5,countries_forward,"['_Togo_', '_Japan_', '_Sudan_', '_Syria_', '_Mali_']","['f', 'f', 'f', 'f', 'm']","['p284', 'p245', 'p268', 'p248', 'p229']","[5, 0, 6, 9, 3]","[90.34149293193902, 84.40078082039426, 91.58892582949886, 92.00610777531934, 89.14911522239515]",4.0,False,6.6,3.361547262794322,1.8123695850372314,0.9349790035183294
0,,sub_110,2024-07-08 10:47:02,3,distance,cathedral,numerosity_judgement,1,61,3,countries_forward,"['_Peru_', '_Syria_', '_Cuba_']","['m', 'f', 'f']","['p318', 'p268', 'p284']","[6, 5, 0]","[91.58892582949886, 90.34149293193902, 84.40078082039426]",3.0,True,5.666666666666667,3.2145502536643185,2.124847412109375,0.8889342866870956
0,,sub_110,2024-07-08 10:47:05,3,distance,cathedral,numerosity_judgement,1,62,6,countries_forward,"['_Tonga_', '_Sudan_', '_Britain_', '_Peru_', '_Yemen_', '_Belgium_']","['m', 'm', 'f', 'f', 'f', 'f']","['p318', 'p229', 'p248', 'p284', 'p268', 'p245']","[8, 7, 4, 1, 10, 2]","[92.0152836843556, 91.73820004985969, 89.31368318402099, 86.2038576498559, 93.00003341222717, 87.57049330475357]",4.0,False,7.333333333333333,3.559026084010437,1.1874146461486816,0.937385086823289
0,,sub_110,2024-07-08 10:47:09,3,distance,cathedral,numerosity_judgement,1,63,4,countries_forward,"['_Sudan_', '_Oman_', '_Tonga_', '_Peru_']","['m', 'm', 'f', 'm']","['p307', 'p256', 'p248', 'p318']","[1, 2, 7, 8]","[86.2038576498559, 87.57049330475357, 91.73820004985969, 92.0152836843556]",5.0,False,6.5,3.5118845842842465,1.6248843669891357,0.8494836000453978
0,,sub_110,2024-07-08 10:47:12,3,distance,cathedral,numerosity_judgement,1,64,2,countries_forward,"['_Syria_', '_Mali_']","['f', 'f']","['p268', 'p284']","[7, 5]","[91.73820004985969, 90.34149293193902]",3.0,False,8.0,1.4142135623730951,1.8748652935028076,0.9480422199523324
0,,sub_110,2024-07-08 10:47:16,3,distance,cathedral,numerosity_judgement,1,65,3,countries_forward,"['_Peru_', '_Britain_', '_Yemen_']","['f', 'm', 'm']","['p245', 'p256', 'p307']","[5, 1, 8]","[90.34149293193902, 86.2038576498559, 92.0152836843556]",3.0,True,6.666666666666667,3.5118845842842465,2.312380313873291,0.6509136306889116
0,,sub_110,2024-07-08 10:47:19,3,distance,cathedral,numerosity_judgement,1,66,2,countries_forward,"['_Sudan_', '_Oman_']","['m', 'f']","['p318', 'p245']","[5, 8]","[90.34149293193902, 92.0152836843556]",2.0,True,8.5,2.1213203435596424,1.9998562335968018,0.867699466575871
0,,sub_110,2024-07-08 10:47:23,3,distance,cathedral,numerosity_judgement,1,67,4,countries_forward,"['_Peru_', '_Yemen_', '_Congo_', '_Cuba_']","['f', 'f', 'm', 'm']","['p245', 'p248', 'p256', 'p229']","[5, 2, 1, 3]","[90.34149293193902, 87.57049330475357, 86.2038576498559, 89.14911522239515]",3.0,False,4.75,1.707825127659933,1.8123712539672852,0.7025309272500284
0,,sub_110,2024-07-08 10:47:26,3,distance,cathedral,numerosity_judgement,1,68,5,countries_forward,"['_Tonga_', '_Yemen_', '_Togo_', '_Japan_', '_Cuba_']","['f', 'm', 'f', 'm', 'f']","['p245', 'p307', 'p284', 'p318', 'p268']","[3, 9, 2, 7, 0]","[89.14911522239515, 92.00610777531934, 87.57049330475357, 91.73820004985969, 84.40078082039426]",3.0,False,6.2,3.7013511046643495,1.8123700618743896,0.7784587447508796
0,,sub_110,2024-07-08 10:47:30,3,distance,cathedral,numerosity_judgement,1,69,6,countries_forward,"['_Cuba_', '_Oman_', '_Belgium_', '_Mali_', '_Japan_', '_Togo_']","['f', 'f', 'f', 'f', 'm', 'm']","['p284', 'p248', 'p245', 'p268', 'p229', 'p256']","[7, 0, 1, 2, 10, 6]","[91.73820004985969, 84.40078082039426, 86.2038576498559, 87.57049330475357, 93.00003341222717, 91.58892582949886]",4.0,False,6.333333333333333,3.9327683210007,1.5623514652252197,0.931097491771649
0,,sub_110,2024-07-08 10:47:34,3,distance,cathedral,numerosity_judgement,1,70,3,countries_forward,"['_Japan_', '_Yemen_', '_Peru_']","['m', 'f', 'm']","['p307', 'p268', 'p256']","[9, 2, 4]","[92.00610777531934, 87.57049330475357, 89.31368318402099]",4.0,False,7.0,3.605551275463989,2.4998199939727783,0.8028600612870276
0,,sub_110,2024-07-08 10:47:37,3,distance,cathedral,numerosity_judgement,1,71,6,countries_forward,"['_Tonga_', '_Peru_', '_Britain_', '_Oman_', '_Yemen_', '_Mali_']","['f', 'f', 'm', 'f', 'm', 'f']","['p245', 'p268', 'p318', 'p248', 'p307', 'p284']","[10, 8, 6, 9, 2, 7]","[93.00003341222717, 92.0152836843556, 91.58892582949886, 92.00610777531934, 87.57049330475357, 91.73820004985969]",5.0,False,9.0,2.8284271247461903,1.2498860359191895,0.7124843945068664
0,,sub_110,2024-07-08 10:47:41,3,distance,cathedral,numerosity_judgement,1,72,5,countries_forward,"['_Tonga_', '_Yemen_', '_Peru_', '_Mali_', '_Oman_']","['m', 'f', 'f', 'f', 'm']","['p229', 'p268', 'p248', 'p284', 'p307']","[10, 8, 6, 2, 4]","[93.00003341222717, 92.0152836843556, 91.58892582949886, 87.57049330475357, 89.31368318402099]",5.0,True,8.0,3.1622776601683795,1.312406301498413,0.6974804221995233
0,,sub_110,2024-07-08 10:47:44,3,distance,cathedral,numerosity_judgement,1,73,2,countries_forward,"['_Oman_', '_Yemen_']","['m', 'm']","['p307', 'p229']","[5, 3]","[90.34149293193902, 89.14911522239515]",2.0,True,6.0,1.4142135623730951,1.937361240386963,0.6022471910112359
0,,sub_110,2024-07-08 10:47:48,3,distance,cathedral,numerosity_judgement,1,74,4,countries_forward,"['_Syria_', '_Mali_', '_Sudan_', '_Togo_']","['m', 'f', 'f', 'f']","['p256', 'p245', 'p284', 'p268']","[8, 7, 2, 0]","[92.0152836843556, 91.73820004985969, 87.57049330475357, 84.40078082039426]",3.0,False,6.25,3.8622100754188224,1.749875783920288,0.8373737373737373
0,,sub_110,2024-07-08 10:49:45,3,distance,cathedral,numerosity_judgement,2,0,3,countries_forward,"['_Tonga_', '_Mali_', '_Congo_']","['f', 'f', 'f']","['p245', 'p268', 'p248']","[9, 2, 7]","[92.00610777531934, 87.57049330475357, 91.73820004985969]",3.0,True,8.0,3.605551275463989,2.9997851848602295,0.8197934400181591
0,,sub_110,2024-07-08 10:49:49,3,distance,cathedral,numerosity_judgement,2,1,6,countries_forward,"['_Britain_', '_Belgium_', '_Oman_', '_Cuba_', '_Yemen_', '_Mali_']","['f', 'm', 'm', 'm', 'f', 'f']","['p268', 'p256', 'p307', 'p229', 'p245', 'p248']","[7, 3, 6, 10, 8, 9]","[91.73820004985969, 89.14911522239515, 91.58892582949886, 93.00003341222717, 92.0152836843556, 92.00610777531934]",3.0,False,9.166666666666666,2.48327740429189,2.4373245239257812,0.7578254454658949
0,,sub_110,2024-07-08 10:49:52,3,distance,cathedral,numerosity_judgement,2,2,2,countries_forward,"['_Yemen_', '_Tonga_']","['m', 'm']","['p307', 'p229']","[2, 7]","[87.57049330475357, 91.73820004985969]",2.0,True,6.5,3.5355339059327378,1.7498741149902344,0.86729088639201
0,,sub_110,2024-07-08 10:49:56,3,distance,cathedral,numerosity_judgement,2,3,5,countries_forward,"['_Belgium_', '_Peru_', '_Britain_', '_Sudan_', '_Oman_']","['m', 'f', 'm', 'm', 'm']","['p229', 'p284', 'p307', 'p318', 'p256']","[8, 2, 10, 0, 6]","[92.0152836843556, 87.57049330475357, 93.00003341222717, 84.40078082039426, 91.58892582949886]",3.0,False,7.2,4.147288270665544,1.4374563694000244,0.8321416411304052
0,,sub_110,2024-07-08 10:49:59,3,distance,cathedral,numerosity_judgement,2,4,4,countries_forward,"['_Belgium_', '_Syria_', '_Japan_', '_Congo_']","['f', 'm', 'f', 'f']","['p245', 'p229', 'p268', 'p284']","[6, 3, 8, 9]","[91.58892582949886, 89.14911522239515, 92.0152836843556, 92.00610777531934]",4.0,True,8.5,2.6457513110645907,1.874866008758545,0.9227669958007036
0,,sub_110,2024-07-08 10:50:03,3,distance,cathedral,numerosity_judgement,2,5,5,countries_forward,"['_Oman_', '_Cuba_', '_Japan_', '_Sudan_', '_Togo_']","['f', 'f', 'm', 'm', 'm']","['p248', 'p268', 'p307', 'p256', 'p318']","[3, 6, 7, 5, 2]","[89.14911522239515, 91.58892582949886, 91.73820004985969, 90.34149293193902, 87.57049330475357]",3.0,False,6.6,2.073644135332772,1.4999287128448486,0.7387243218703893
0,,sub_110,2024-07-08 10:50:07,3,distance,cathedral,numerosity_judgement,2,6,6,countries_forward,"['_Cuba_', '_Belgium_', '_Yemen_', '_Peru_', '_Mali_', '_Togo_']","['f', 'f', 'f', 'm', 'm', 'f']","['p248', 'p284', 'p245', 'p307', 'p256', 'p268']","[3, 8, 7, 1, 4, 5]","[89.14911522239515, 92.0152836843556, 91.73820004985969, 86.2038576498559, 89.31368318402099, 90.34149293193902]",4.0,False,6.666666666666667,2.581988897471611,2.187342405319214,0.8293156281920326
0,,sub_110,2024-07-08 10:50:11,3,distance,cathedral,numerosity_judgement,2,7,4,countries_forward,"['_Tonga_', '_Syria_', '_Togo_', '_Japan_']","['f', 'm', 'f', 'm']","['p268', 'p229', 'p248', 'p307']","[2, 9, 7, 5]","[87.57049330475357, 92.00610777531934, 91.73820004985969, 90.34149293193902]",4.0,True,7.75,2.9860788111948193,2.2498385906219482,0.9023833844058564
0,,sub_110,2024-07-08 10:50:14,3,distance,cathedral,numerosity_judgement,2,8,3,countries_forward,"['_Sudan_', '_Tonga_', '_Cuba_']","['f', 'm', 'f']","['p245', 'p307', 'p268']","[10, 6, 5]","[93.00003341222717, 91.58892582949886, 90.34149293193902]",3.0,True,9.0,2.6457513110645907,1.1874148845672607,0.8871410736579276
0,,sub_110,2024-07-08 10:50:16,3,distance,cathedral,numerosity_judgement,2,9,2,countries_forward,"['_Cuba_', '_Peru_']","['m', 'f']","['p307', 'p268']","[7, 4]","[91.73820004985969, 89.31368318402099]",2.0,True,7.5,2.1213203435596424,1.1874148845672607,0.6280104414935875
0,,sub_110,2024-07-08 10:50:20,3,distance,cathedral,numerosity_judgement,2,10,5,countries_forward,"['_Yemen_', '_Cuba_', '_Tonga_', '_Oman_', '_Peru_']","['f', 'm', 'f', 'f', 'm']","['p284', 'p229', 'p248', 'p245', 'p307']","[7, 3, 5, 6, 2]","[91.73820004985969, 89.14911522239515, 90.34149293193902, 91.58892582949886, 87.57049330475357]",3.0,False,6.6,2.073644135332772,1.5623884201049805,0.6934740665077743
0,,sub_110,2024-07-08 10:50:23,3,distance,cathedral,numerosity_judgement,2,11,2,countries_forward,"['_Yemen_', '_Peru_']","['f', 'f']","['p245', 'p268']","[7, 3]","[91.73820004985969, 89.14911522239515]",2.0,True,7.0,2.8284271247461903,1.7498726844787598,0.7169787765293383
0,,sub_110,2024-07-08 10:50:26,3,distance,cathedral,numerosity_judgement,2,12,3,countries_forward,"['_Mali_', '_Britain_', '_Yemen_']","['f', 'm', 'm']","['p284', 'p256', 'p318']","[4, 5, 7]","[89.31368318402099, 90.34149293193902, 91.73820004985969]",3.0,True,7.333333333333333,1.5275252316519465,1.4998931884765625,0.774361593462717
0,,sub_110,2024-07-08 10:50:30,3,distance,cathedral,numerosity_judgement,2,13,4,countries_forward,"['_Cuba_', '_Peru_', '_Togo_', '_Belgium_']","['m', 'f', 'm', 'f']","['p307', 'p248', 'p256', 'p268']","[7, 2, 5, 0]","[91.73820004985969, 87.57049330475357, 90.34149293193902, 84.40078082039426]",3.0,False,5.5,3.1091263510296048,1.6248838901519775,0.7362047440699127
0,,sub_110,2024-07-08 10:50:33,3,distance,cathedral,numerosity_judgement,2,14,6,countries_forward,"['_Belgium_', '_Japan_', '_Sudan_', '_Oman_', '_Yemen_', '_Togo_']","['m', 'f', 'f', 'f', 'f', 'm']","['p229', 'p248', 'p268', 'p284', 'p245', 'p318']","[10, 9, 4, 6, 8, 7]","[93.00003341222717, 92.00610777531934, 89.31368318402099, 91.58892582949886, 92.0152836843556, 91.73820004985969]",4.0,False,9.333333333333334,2.160246899469287,1.3749027252197266,0.9269322437861764
0,,sub_110,2024-07-08 10:50:36,3,distance,cathedral,numerosity_judgement,2,15,2,countries_forward,"['_Britain_', '_Belgium_']","['m', 'm']","['p318', 'p307']","[9, 7]","[92.00610777531934, 91.73820004985969]",2.0,True,10.0,1.4142135623730951,1.687378168106079,0.8087163772557031
0,,sub_110,2024-07-08 10:50:40,3,distance,cathedral,numerosity_judgement,2,16,5,countries_forward,"['_Belgium_', '_Cuba_', '_Britain_', '_Sudan_', '_Peru_']","['f', 'm', 'f', 'm', 'f']","['p248', 'p256', 'p245', 'p229', 'p284']","[9, 4, 2, 10, 0]","[92.00610777531934, 89.31368318402099, 87.57049330475357, 93.00003341222717, 84.40078082039426]",4.0,False,7.0,4.358898943540674,1.5623865127563477,0.943865622517308
0,,sub_110,2024-07-08 10:50:43,3,distance,cathedral,numerosity_judgement,2,17,6,countries_forward,"['_Oman_', '_Cuba_', '_Mali_', '_Britain_', '_Togo_', '_Tonga_']","['m', 'm', 'm', 'f', 'm', 'f']","['p229', 'p318', 'p256', 'p248', 'p307', 'p245']","[10, 3, 4, 9, 8, 5]","[93.00003341222717, 89.14911522239515, 89.31368318402099, 92.00610777531934, 92.0152836843556, 90.34149293193902]",5.0,False,8.5,2.8809720581775866,1.1874430179595947,0.7045851776188855
0,,sub_110,2024-07-08 10:50:46,3,distance,cathedral,numerosity_judgement,2,18,4,countries_forward,"['_Britain_', '_Mali_', '_Peru_', '_Oman_']","['f', 'f', 'm', 'm']","['p268', 'p248', 'p318', 'p229']","[0, 4, 1, 3]","[84.40078082039426, 89.31368318402099, 86.2038576498559, 89.14911522239515]",4.0,True,4.0,1.8257418583505538,1.1249194145202637,0.6887413460447168
0,,sub_110,2024-07-08 10:50:49,3,distance,cathedral,numerosity_judgement,2,19,3,countries_forward,"['_Congo_', '_Oman_', '_Togo_']","['f', 'm', 'm']","['p248', 'p307', 'p318']","[4, 1, 2]","[89.31368318402099, 86.2038576498559, 87.57049330475357]",3.0,True,4.333333333333333,1.5275252316519465,1.4374196529388428,0.8484621495857451
0,,sub_110,2024-07-08 10:50:52,3,distance,cathedral,numerosity_judgement,2,20,2,countries_forward,"['_Oman_', '_Yemen_']","['m', 'm']","['p229', 'p256']","[3, 6]","[89.14911522239515, 91.58892582949886]",2.0,True,6.5,2.1213203435596424,1.7498745918273926,0.5410623084780388
0,,sub_110,2024-07-08 10:50:55,3,distance,cathedral,numerosity_judgement,2,21,3,countries_forward,"['_Congo_', '_Oman_', '_Yemen_']","['f', 'm', 'f']","['p268', 'p307', 'p245']","[3, 4, 6]","[89.14911522239515, 89.31368318402099, 91.58892582949886]",4.0,False,6.333333333333333,1.5275252316519465,1.5623605251312256,0.6248439450686641
0,,sub_110,2024-07-08 10:50:59,3,distance,cathedral,numerosity_judgement,2,22,5,countries_forward,"['_Britain_', '_Oman_', '_Peru_', '_Japan_', '_Congo_']","['m', 'm', 'm', 'm', 'f']","['p307', 'p229', 'p318', 'p256', 'p268']","[6, 9, 10, 3, 5]","[91.58892582949886, 92.00610777531934, 93.00003341222717, 89.14911522239515, 90.34149293193902]",5.0,True,8.6,2.8809720581775866,1.8748652935028076,0.7337532629667461
0,,sub_110,2024-07-08 10:51:03,3,distance,cathedral,numerosity_judgement,2,23,6,countries_forward,"['_Tonga_', '_Mali_', '_Cuba_', '_Belgium_', '_Togo_', '_Sudan_']","['m', 'm', 'f', 'f', 'f', 'f']","['p307', 'p318', 'p245', 'p268', 'p248', 'p284']","[2, 1, 0, 5, 3, 9]","[87.57049330475357, 86.2038576498559, 84.40078082039426, 90.34149293193902, 89.14911522239515, 92.00610777531934]",5.0,False,5.333333333333333,3.265986323710904,1.9998564720153809,0.9438769719668596
0,,sub_110,2024-07-08 10:51:06,3,distance,cathedral,numerosity_judgement,2,24,4,countries_forward,"['_Syria_', '_Britain_', '_Mali_', '_Togo_']","['m', 'm', 'm', 'f']","['p229', 'p307', 'p256', 'p245']","[3, 8, 5, 10]","[89.14911522239515, 92.0152836843556, 90.34149293193902, 93.00003341222717]",4.0,True,8.5,3.1091263510296048,1.8123703002929688,0.7546362501418681
0,,sub_110,2024-07-08 10:51:09,3,distance,cathedral,numerosity_judgement,2,25,2,countries_forward,"['_Cuba_', '_Oman_']","['m', 'f']","['p307', 'p245']","[2, 10]","[87.57049330475357, 93.00003341222717]",3.0,False,8.0,5.656854249492381,1.3124053478240967,0.6400295085688344
0,,sub_110,2024-07-08 10:51:12,3,distance,cathedral,numerosity_judgement,2,26,3,countries_forward,"['_Mali_', '_Sudan_', '_Congo_']","['f', 'f', 'f']","['p284', 'p245', 'p268']","[3, 9, 0]","[89.14911522239515, 92.00610777531934, 84.40078082039426]",3.0,True,6.0,4.58257569495584,1.6248829364776611,0.9515265009647031
0,,sub_110,2024-07-08 10:51:16,3,distance,cathedral,numerosity_judgement,2,27,6,countries_forward,"['_Sudan_', '_Togo_', '_Japan_', '_Britain_', '_Syria_', '_Tonga_']","['m', 'm', 'm', 'm', 'f', 'f']","['p229', 'p256', 'p318', 'p307', 'p268', 'p284']","[2, 3, 10, 4, 6, 0]","[87.57049330475357, 89.14911522239515, 93.00003341222717, 89.31368318402099, 91.58892582949886, 84.40078082039426]",4.0,False,6.166666666666667,3.488074922742725,1.6873795986175537,0.955237770968108
0,,sub_110,2024-07-08 10:51:20,3,distance,cathedral,numerosity_judgement,2,28,4,countries_forward,"['_Congo_', '_Syria_', '_Cuba_', '_Japan_']","['f', 'f', 'm', 'm']","['p248', 'p245', 'p318', 'p307']","[2, 9, 7, 0]","[87.57049330475357, 92.00610777531934, 91.73820004985969, 84.40078082039426]",4.0,True,6.5,4.203173404306164,2.5623157024383545,0.8758143230053342
0,,sub_110,2024-07-08 10:51:24,3,distance,cathedral,numerosity_judgement,2,29,5,countries_forward,"['_Britain_', '_Syria_', '_Belgium_', '_Tonga_', '_Congo_']","['f', 'f', 'f', 'f', 'm']","['p248', 'p284', 'p245', 'p268', 'p307']","[4, 9, 3, 1, 8]","[89.31368318402099, 92.00610777531934, 89.14911522239515, 86.2038576498559, 92.0152836843556]",3.0,False,7.0,3.391164991562634,1.7499024868011475,0.9658268073998412
0,,sub_110,2024-07-08 10:51:28,3,distance,cathedral,numerosity_judgement,2,30,3,countries_forward,"['_Peru_', '_Tonga_', '_Mali_']","['m', 'm', 'f']","['p256', 'p307', 'p248']","[4, 1, 7]","[89.31368318402099, 86.2038576498559, 91.73820004985969]",3.0,True,6.0,3.0,1.9998564720153809,0.9122347066167292
0,,sub_110,2024-07-08 10:51:32,3,distance,cathedral,numerosity_judgement,2,31,4,countries_forward,"['_Oman_', '_Mali_', '_Yemen_', '_Britain_']","['f', 'f', 'm', 'f']","['p248', 'p268', 'p256', 'p245']","[3, 6, 9, 7]","[89.14911522239515, 91.58892582949886, 92.00610777531934, 91.73820004985969]",2.0,False,8.25,2.5,2.062352418899536,0.6700034048348655
0,,sub_110,2024-07-08 10:51:35,3,distance,cathedral,numerosity_judgement,2,32,6,countries_forward,"['_Togo_', '_Japan_', '_Cuba_', '_Congo_', '_Belgium_', '_Mali_']","['m', 'm', 'm', 'f', 'f', 'm']","['p318', 'p307', 'p256', 'p245', 'p248', 'p229']","[3, 7, 9, 10, 6, 1]","[89.14911522239515, 91.73820004985969, 92.00610777531934, 93.00003341222717, 91.58892582949886, 86.2038576498559]",5.0,False,8.0,3.4641016151377544,1.6248836517333984,0.8713539893315174
0,,sub_110,2024-07-08 10:51:40,3,distance,cathedral,numerosity_judgement,2,33,5,countries_forward,"['_Peru_', '_Yemen_', '_Britain_', '_Oman_', '_Mali_']","['f', 'f', 'f', 'f', 'm']","['p284', 'p248', 'p245', 'p268', 'p229']","[2, 10, 1, 4, 6]","[87.57049330475357, 93.00003341222717, 86.2038576498559, 89.31368318402099, 91.58892582949886]",5.0,True,6.6,3.5777087639996634,2.937289237976074,0.7091703552377709
0,,sub_110,2024-07-08 10:51:43,3,distance,cathedral,numerosity_judgement,2,34,2,countries_forward,"['_Oman_', '_Congo_']","['m', 'f']","['p307', 'p245']","[1, 2]","[86.2038576498559, 87.57049330475357]",2.0,True,3.5,0.7071067811865476,1.3749010562896729,0.8505731472023607
0,,sub_110,2024-07-08 10:51:46,3,distance,cathedral,numerosity_judgement,2,35,4,countries_forward,"['_Mali_', '_Britain_', '_Yemen_', '_Togo_']","['m', 'f', 'f', 'm']","['p229', 'p248', 'p245', 'p307']","[4, 0, 9, 10]","[89.31368318402099, 84.40078082039426, 92.00610777531934, 93.00003341222717]",4.0,True,7.75,4.645786621588784,1.8748672008514404,0.8296674611281353
0,,sub_110,2024-07-08 10:51:50,3,distance,cathedral,numerosity_judgement,2,36,2,countries_forward,"['_Oman_', '_Yemen_']","['m', 'f']","['p307', 'p245']","[6, 10]","[91.58892582949886, 93.00003341222717]",3.0,False,10.0,2.8284271247461903,2.2498388290405273,0.5938372488934287
0,,sub_110,2024-07-08 10:51:54,3,distance,cathedral,numerosity_judgement,2,37,3,countries_forward,"['_Mali_', '_Cuba_', '_Britain_']","['f', 'm', 'f']","['p268', 'p307', 'p248']","[10, 4, 6]","[93.00003341222717, 89.31368318402099, 91.58892582949886]",2.0,False,8.666666666666666,3.055050463303893,2.1873433589935303,0.8030530019294064
0,,sub_110,2024-07-08 10:51:58,3,distance,cathedral,numerosity_judgement,2,38,5,countries_forward,"['_Yemen_', '_Syria_', '_Oman_', '_Belgium_', '_Sudan_']","['m', 'f', 'm', 'f', 'f']","['p229', 'p268', 'p318', 'p245', 'p248']","[5, 8, 3, 7, 1]","[90.34149293193902, 92.0152836843556, 89.14911522239515, 91.73820004985969, 86.2038576498559]",5.0,True,6.8,2.863564212655271,1.8123700618743896,0.8758824197026445
0,,sub_110,2024-07-08 10:52:02,3,distance,cathedral,numerosity_judgement,2,39,6,countries_forward,"['_Syria_', '_Congo_', '_Britain_', '_Togo_', '_Yemen_', '_Mali_']","['m', 'm', 'm', 'f', 'm', 'f']","['p307', 'p229', 'p318', 'p248', 'p256', 'p245']","[10, 4, 5, 2, 9, 0]","[93.00003341222717, 89.31368318402099, 90.34149293193902, 87.57049330475357, 92.00610777531934, 84.40078082039426]",5.0,False,7.0,3.8987177379235853,1.8748643398284912,0.8110316649642493
0,,sub_110,2024-07-08 10:52:05,3,distance,cathedral,numerosity_judgement,2,40,4,countries_forward,"['_Mali_', '_Japan_', '_Cuba_', '_Britain_']","['f', 'm', 'm', 'm']","['p245', 'p256', 'p307', 'p229']","[5, 10, 2, 9]","[90.34149293193902, 93.00003341222717, 87.57049330475357, 92.00610777531934]",4.0,True,8.5,3.696845502136472,1.7498743534088135,0.8098626716604245
0,,sub_110,2024-07-08 10:52:08,3,distance,cathedral,numerosity_judgement,2,41,5,countries_forward,"['_Syria_', '_Oman_', '_Sudan_', '_Britain_', '_Japan_']","['m', 'm', 'm', 'f', 'f']","['p307', 'p229', 'p256', 'p248', 'p284']","[9, 4, 8, 3, 6]","[92.00610777531934, 89.31368318402099, 92.0152836843556, 89.14911522239515, 91.58892582949886]",4.0,False,8.0,2.5495097567963922,1.1874148845672607,0.8652139371240495
0,,sub_110,2024-07-08 10:52:12,3,distance,cathedral,numerosity_judgement,2,42,3,countries_forward,"['_Yemen_', '_Oman_', '_Britain_']","['m', 'm', 'f']","['p229', 'p307', 'p245']","[3, 8, 7]","[89.14911522239515, 92.0152836843556, 91.73820004985969]",3.0,True,8.0,2.6457513110645907,2.124849557876587,0.6654295766655317
0,,sub_110,2024-07-08 10:52:15,3,distance,cathedral,numerosity_judgement,2,43,2,countries_forward,"['_Tonga_', '_Cuba_']","['m', 'm']","['p229', 'p307']","[0, 7]","[84.40078082039426, 91.73820004985969]",2.0,True,5.5,4.949747468305833,1.7498719692230225,0.6963795255930088
0,,sub_110,2024-07-08 10:52:20,3,distance,cathedral,numerosity_judgement,2,44,6,countries_forward,"['_Cuba_', '_Yemen_', '_Japan_', '_Peru_', '_Britain_', '_Sudan_']","['f', 'm', 'f', 'm', 'f', 'f']","['p245', 'p307', 'p248', 'p229', 'p284', 'p268']","[6, 4, 8, 5, 1, 7]","[91.58892582949886, 89.31368318402099, 92.0152836843556, 90.34149293193902, 86.2038576498559, 91.73820004985969]",5.0,False,7.166666666666667,2.48327740429189,2.5623161792755127,0.8863693110884122
0,,sub_110,2024-07-08 10:52:23,3,distance,cathedral,numerosity_judgement,2,45,2,countries_forward,"['_Belgium_', '_Mali_']","['f', 'm']","['p245', 'p318']","[2, 5]","[87.57049330475357, 90.34149293193902]",2.0,True,5.5,2.1213203435596424,1.5623877048492432,0.9806945863125638
0,,sub_110,2024-07-08 10:52:26,3,distance,cathedral,numerosity_judgement,2,46,5,countries_forward,"['_Sudan_', '_Togo_', '_Japan_', '_Syria_', '_Peru_']","['m', 'm', 'f', 'f', 'f']","['p318', 'p256', 'p248', 'p284', 'p268']","[10, 0, 5, 1, 7]","[93.00003341222717, 84.40078082039426, 90.34149293193902, 86.2038576498559, 91.73820004985969]",4.0,False,6.6,4.159326868617084,1.43739652633667,0.916354556803995
0,,sub_110,2024-07-08 10:52:30,3,distance,cathedral,numerosity_judgement,2,47,6,countries_forward,"['_Sudan_', '_Peru_', '_Mali_', '_Oman_', '_Tonga_', '_Cuba_']","['m', 'm', 'f', 'm', 'f', 'f']","['p256', 'p229', 'p248', 'p307', 'p245', 'p268']","[4, 6, 5, 8, 7, 3]","[89.31368318402099, 91.58892582949886, 90.34149293193902, 92.0152836843556, 91.73820004985969, 89.14911522239515]",5.0,False,7.5,1.8708286933869707,1.8748652935028076,0.7172625127681308
0,,sub_110,2024-07-08 10:52:33,3,distance,cathedral,numerosity_judgement,2,48,3,countries_forward,"['_Yemen_', '_Mali_', '_Peru_']","['m', 'f', 'm']","['p256', 'p245', 'p318']","[3, 4, 10]","[89.14911522239515, 89.31368318402099, 93.00003341222717]",3.0,True,7.666666666666667,3.7859388972001824,1.249910593032837,0.7485075473839519
0,,sub_110,2024-07-08 10:52:36,3,distance,cathedral,numerosity_judgement,2,49,4,countries_forward,"['_Yemen_', '_Oman_', '_Peru_', '_Togo_']","['m', 'm', 'f', 'm']","['p229', 'p307', 'p268', 'p256']","[9, 5, 3, 10]","[92.00610777531934, 90.34149293193902, 89.14911522239515, 93.00003341222717]",3.0,False,8.75,3.304037933599835,1.312406063079834,0.6414935875610033
0,,sub_110,2024-07-08 10:52:39,3,distance,cathedral,numerosity_judgement,2,50,2,countries_forward,"['_Yemen_', '_Togo_']","['f', 'm']","['p248', 'p318']","[8, 3]","[92.0152836843556, 89.14911522239515]",2.0,True,7.5,3.5355339059327378,1.1874141693115234,0.7683804335489729
0,,sub_110,2024-07-08 10:52:42,3,distance,cathedral,numerosity_judgement,2,51,3,countries_forward,"['_Belgium_', '_Mali_', '_Oman_']","['m', 'm', 'm']","['p229', 'p256', 'p307']","[0, 3, 1]","[84.40078082039426, 89.14911522239515, 86.2038576498559]",3.0,True,3.3333333333333335,1.5275252316519468,2.124847173690796,0.7231528770854614
0,,sub_110,2024-07-08 10:52:46,3,distance,cathedral,numerosity_judgement,2,52,4,countries_forward,"['_Belgium_', '_Tonga_', '_Yemen_', '_Cuba_']","['m', 'm', 'f', 'f']","['p318', 'p256', 'p284', 'p248']","[8, 6, 9, 4]","[92.0152836843556, 91.58892582949886, 92.00610777531934, 89.31368318402099]",4.0,True,8.75,2.217355782608345,1.4374032020568848,0.8603563727159232
0,,sub_110,2024-07-08 10:52:50,3,distance,cathedral,numerosity_judgement,2,53,6,countries_forward,"['_Belgium_', '_Cuba_', '_Sudan_', '_Britain_', '_Japan_', '_Oman_']","['m', 'm', 'm', 'm', 'f', 'f']","['p256', 'p318', 'p307', 'p229', 'p268', 'p284']","[1, 7, 5, 3, 10, 9]","[86.2038576498559, 91.73820004985969, 90.34149293193902, 89.14911522239515, 93.00003341222717, 92.00610777531934]",4.0,False,7.833333333333333,3.488074922742725,2.0623526573181152,0.8427193281125865
0,,sub_110,2024-07-08 10:52:53,3,distance,cathedral,numerosity_judgement,2,54,5,countries_forward,"['_Congo_', '_Japan_', '_Yemen_', '_Togo_', '_Peru_']","['m', 'f', 'f', 'f', 'm']","['p318', 'p268', 'p248', 'p284', 'p256']","[8, 3, 10, 0, 6]","[92.0152836843556, 89.14911522239515, 93.00003341222717, 84.40078082039426, 91.58892582949886]",5.0,True,7.4,3.9749213828703582,1.6248841285705566,0.7972647826580411
0,,sub_110,2024-07-08 10:52:58,3,distance,cathedral,numerosity_judgement,2,55,6,countries_forward,"['_Tonga_', '_Syria_', '_Yemen_', '_Congo_', '_Mali_', '_Japan_']","['f', 'f', 'f', 'm', 'f', 'm']","['p284', 'p268', 'p248', 'p229', 'p245', 'p318']","[10, 5, 3, 1, 8, 7]","[93.00003341222717, 90.34149293193902, 89.14911522239515, 86.2038576498559, 92.0152836843556, 91.73820004985969]",6.0,True,7.666666666666667,3.32665998663324,2.749803066253662,0.9129951197366928
0,,sub_110,2024-07-08 10:53:01,3,distance,cathedral,numerosity_judgement,2,56,5,countries_forward,"['_Oman_', '_Cuba_', '_Congo_', '_Yemen_', '_Togo_']","['f', 'f', 'm', 'f', 'm']","['p284', 'p245', 'p307', 'p268', 'p229']","[2, 7, 5, 3, 9]","[87.57049330475357, 91.73820004985969, 90.34149293193902, 89.14911522239515, 92.00610777531934]",4.0,False,7.2,2.863564212655271,1.4373974800109863,0.7906934513676087
0,,sub_110,2024-07-08 10:53:04,3,distance,cathedral,numerosity_judgement,2,57,4,countries_forward,"['_Yemen_', '_Mali_', '_Syria_', '_Tonga_']","['m', 'f', 'm', 'f']","['p256', 'p284', 'p229', 'p245']","[1, 7, 2, 0]","[86.2038576498559, 91.73820004985969, 87.57049330475357, 84.40078082039426]",3.0,False,4.5,3.1091263510296048,1.4998924732208252,0.9461695607763024
0,,sub_110,2024-07-08 10:53:08,3,distance,cathedral,numerosity_judgement,2,58,2,countries_forward,"['_Oman_', '_Cuba_']","['f', 'm']","['p268', 'p307']","[6, 5]","[91.58892582949886, 90.34149293193902]",2.0,True,7.5,0.7071067811865476,2.624784469604492,0.6831687663148337
0,,sub_110,2024-07-08 10:53:12,3,distance,cathedral,numerosity_judgement,2,59,3,countries_forward,"['_Oman_', '_Mali_', '_Britain_']","['f', 'f', 'm']","['p245', 'p268', 'p318']","[10, 8, 3]","[93.00003341222717, 92.0152836843556, 89.14911522239515]",3.0,True,9.0,3.605551275463989,1.4373970031738281,0.6959141981613892
0,,sub_110,2024-07-08 10:53:16,3,distance,cathedral,numerosity_judgement,2,60,5,countries_forward,"['_Congo_', '_Peru_', '_Japan_', '_Oman_', '_Britain_']","['f', 'm', 'f', 'm', 'm']","['p268', 'p318', 'p245', 'p307', 'p256']","[5, 10, 0, 2, 6]","[90.34149293193902, 93.00003341222717, 84.40078082039426, 87.57049330475357, 91.58892582949886]",3.0,False,6.6,3.847076812334269,2.49981951713562,0.7623538758370219
0,,sub_110,2024-07-08 10:53:20,3,distance,cathedral,numerosity_judgement,2,61,4,countries_forward,"['_Cuba_', '_Mali_', '_Britain_', '_Belgium_']","['m', 'm', 'f', 'f']","['p256', 'p229', 'p284', 'p248']","[10, 1, 8, 9]","[93.00003341222717, 86.2038576498559, 92.0152836843556, 92.00610777531934]",4.0,True,9.0,4.08248290463863,2.187343120574951,0.7896266031097492
0,,sub_110,2024-07-08 10:53:23,3,distance,cathedral,numerosity_judgement,2,62,2,countries_forward,"['_Togo_', '_Syria_']","['m', 'm']","['p256', 'p307']","[8, 4]","[92.0152836843556, 89.31368318402099]",2.0,True,8.0,2.8284271247461903,1.3749017715454102,0.9031778458744752
0,,sub_110,2024-07-08 10:53:26,3,distance,cathedral,numerosity_judgement,2,63,3,countries_forward,"['_Britain_', '_Yemen_', '_Tonga_']","['m', 'f', 'f']","['p318', 'p268', 'p245']","[2, 6, 4]","[87.57049330475357, 91.58892582949886, 89.31368318402099]",3.0,True,6.0,2.0,1.6873786449432373,0.6490069231642266
0,,sub_110,2024-07-08 10:53:29,3,distance,cathedral,numerosity_judgement,2,64,6,countries_forward,"['_Oman_', '_Tonga_', '_Peru_', '_Belgium_', '_Congo_', '_Togo_']","['m', 'm', 'f', 'm', 'f', 'f']","['p256', 'p307', 'p248', 'p229', 'p268', 'p284']","[6, 5, 0, 1, 10, 8]","[91.58892582949886, 90.34149293193902, 84.40078082039426, 86.2038576498559, 93.00003341222717, 92.0152836843556]",4.0,False,7.0,3.8987177379235853,1.3749008178710938,0.7798660764952899
0,,sub_110,2024-07-08 10:53:33,3,distance,cathedral,numerosity_judgement,2,65,5,countries_forward,"['_Peru_', '_Yemen_', '_Togo_', '_Congo_', '_Cuba_']","['m', 'm', 'f', 'f', 'm']","['p318', 'p256', 'p248', 'p284', 'p229']","[4, 9, 8, 2, 5]","[89.31368318402099, 92.00610777531934, 92.0152836843556, 87.57049330475357, 90.34149293193902]",4.0,False,7.6,2.8809720581775866,1.5623879432678223,0.8360799001248439
0,,sub_110,2024-07-08 10:53:36,3,distance,cathedral,numerosity_judgement,2,66,3,countries_forward,"['_Yemen_', '_Tonga_', '_Peru_']","['f', 'm', 'f']","['p284', 'p318', 'p245']","[1, 4, 6]","[86.2038576498559, 89.31368318402099, 91.58892582949886]",3.0,True,5.666666666666667,2.516611478423583,1.43739652633667,0.8621836340937464
0,,sub_110,2024-07-08 10:53:40,3,distance,cathedral,numerosity_judgement,2,67,6,countries_forward,"['_Togo_', '_Peru_', '_Yemen_', '_Oman_', '_Sudan_', '_Mali_']","['m', 'f', 'f', 'm', 'm', 'f']","['p318', 'p284', 'p268', 'p256', 'p307', 'p245']","[7, 10, 9, 3, 1, 0]","[91.73820004985969, 93.00003341222717, 92.00610777531934, 89.14911522239515, 86.2038576498559, 84.40078082039426]",5.0,False,7.0,4.242640687119285,2.1872973442077637,0.7916468051299512
0,,sub_110,2024-07-08 10:53:44,3,distance,cathedral,numerosity_judgement,2,68,2,countries_forward,"['_Oman_', '_Syria_']","['m', 'f']","['p318', 'p245']","[2, 9]","[87.57049330475357, 92.00610777531934]",3.0,False,7.5,4.949747468305833,2.3122894763946533,0.9364657814096016
0,,sub_110,2024-07-08 10:53:47,3,distance,cathedral,numerosity_judgement,2,69,4,countries_forward,"['_Cuba_', '_Togo_', '_Peru_', '_Yemen_']","['f', 'm', 'f', 'f']","['p268', 'p318', 'p284', 'p248']","[6, 0, 1, 5]","[91.58892582949886, 84.40078082039426, 86.2038576498559, 90.34149293193902]",3.0,False,5.0,2.943920288775949,1.5623877048492432,0.7102826012938372
0,,sub_110,2024-07-08 10:53:50,3,distance,cathedral,numerosity_judgement,2,70,2,countries_forward,"['_Yemen_', '_Oman_']","['f', 'm']","['p268', 'p229']","[2, 1]","[87.57049330475357, 86.2038576498559]",2.0,True,3.5,0.7071067811865476,1.4998915195465088,0.7964589717398706
0,,sub_110,2024-07-08 10:53:54,3,distance,cathedral,numerosity_judgement,2,71,5,countries_forward,"['_Britain_', '_Syria_', '_Congo_', '_Yemen_', '_Tonga_']","['f', 'f', 'm', 'f', 'm']","['p284', 'p245', 'p256', 'p248', 'p307']","[1, 9, 2, 5, 4]","[86.2038576498559, 92.00610777531934, 87.57049330475357, 90.34149293193902, 89.31368318402099]",4.0,False,6.2,3.1144823004794877,1.7498753070831299,0.9083758937691522
0,,sub_110,2024-07-08 10:53:57,3,distance,cathedral,numerosity_judgement,2,72,4,countries_forward,"['_Britain_', '_Sudan_', '_Japan_', '_Mali_']","['f', 'f', 'f', 'm']","['p248', 'p284', 'p245', 'p318']","[0, 2, 6, 5]","[84.40078082039426, 87.57049330475357, 91.58892582949886, 90.34149293193902]",3.0,False,5.25,2.753785273643051,1.7498745918273926,0.973873567131994
0,,sub_110,2024-07-08 10:54:01,3,distance,cathedral,numerosity_judgement,2,73,6,countries_forward,"['_Cuba_', '_Mali_', '_Peru_', '_Oman_', '_Yemen_', '_Congo_']","['f', 'f', 'm', 'f', 'm', 'm']","['p268', 'p284', 'p307', 'p248', 'p229', 'p256']","[3, 8, 1, 2, 5, 4]","[89.14911522239515, 92.0152836843556, 86.2038576498559, 87.57049330475357, 90.34149293193902, 89.31368318402099]",4.0,False,5.833333333333333,2.48327740429189,1.7498753070831299,0.7327772103053002
0,,sub_110,2024-07-08 10:54:04,3,distance,cathedral,numerosity_judgement,2,74,3,countries_forward,"['_Tonga_', '_Congo_', '_Sudan_']","['m', 'm', 'f']","['p318', 'p229', 'p284']","[9, 1, 8]","[92.00610777531934, 86.2038576498559, 92.0152836843556]",3.0,True,8.0,4.358898943540674,1.8749239444732666,0.9573941663829304
0,,sub_110,2024-07-08 10:55:14,3,distance,cathedral,numerosity_judgement,3,0,4,countries_reversed,"['_Togo_reversed', '_Sudan_reversed', '_Japan_reversed', '_Syria_reversed']","['f', 'm', 'm', 'm']","['p245', 'p307', 'p318', 'p229']","[5, 7, 9, 2]","[90.34149293193902, 91.73820004985969, 92.00610777531934, 87.57049330475357]",3.0,False,7.75,2.9860788111948193,3.6247398853302,0.8661559414368403
0,,sub_110,2024-07-08 10:55:18,3,distance,cathedral,numerosity_judgement,3,1,5,countries_reversed,"['_Oman_reversed', '_Britain_reversed', '_Peru_reversed', '_Togo_reversed', '_Cuba_reversed']","['f', 'm', 'f', 'm', 'f']","['p245', 'p256', 'p248', 'p229', 'p268']","[8, 1, 5, 9, 7]","[92.0152836843556, 86.2038576498559, 90.34149293193902, 92.00610777531934, 91.73820004985969]",3.0,False,8.0,3.1622776601683795,1.9998562335968018,0.7967654068777664
0,,sub_110,2024-07-08 10:55:21,3,distance,cathedral,numerosity_judgement,3,2,2,countries_reversed,"['_Congo_reversed', '_Syria_reversed']","['m', 'm']","['p256', 'p307']","[3, 2]","[89.14911522239515, 87.57049330475357]",2.0,True,4.5,0.7071067811865476,1.8748657703399658,0.8762796504369538
0,,sub_110,2024-07-08 10:55:23,3,distance,cathedral,numerosity_judgement,3,3,3,countries_reversed,"['_Cuba_reversed', '_Oman_reversed', '_Sudan_reversed']","['f', 'f', 'f']","['p268', 'p245', 'p248']","[5, 7, 3]","[90.34149293193902, 91.73820004985969, 89.14911522239515]",4.0,False,7.0,2.0,1.1248910427093506,0.7990466462376574
0,,sub_110,2024-07-08 10:55:26,3,distance,cathedral,numerosity_judgement,3,4,6,countries_reversed,"['_Peru_reversed', '_Cuba_reversed', '_Togo_reversed', '_Japan_reversed', '_Congo_reversed', '_Oman_reversed']","['m', 'm', 'm', 'f', 'f', 'f']","['p307', 'p318', 'p229', 'p248', 'p268', 'p245']","[0, 3, 10, 8, 7, 9]","[84.40078082039426, 89.14911522239515, 93.00003341222717, 92.0152836843556, 91.73820004985969, 92.00610777531934]",5.0,False,8.166666666666666,3.8686776379877745,1.4998927116394043,0.6953467256838043
0,,sub_110,2024-07-08 10:55:29,3,distance,cathedral,numerosity_judgement,3,5,2,countries_reversed,"['_Tonga_reversed', '_Oman_reversed']","['f', 'm']","['p248', 'p229']","[10, 6]","[93.00003341222717, 91.58892582949886]",4.0,False,10.0,2.8284271247461903,1.4998927116394043,0.5940869367835659
0,,sub_110,2024-07-08 10:55:31,3,distance,cathedral,numerosity_judgement,3,6,6,countries_reversed,"['_Japan_reversed', '_Cuba_reversed', '_Oman_reversed', '_Syria_reversed', '_Yemen_reversed', '_Peru_reversed']","['f', 'm', 'f', 'm', 'f', 'f']","['p284', 'p229', 'p248', 'p256', 'p245', 'p268']","[9, 1, 0, 2, 3, 7]","[92.00610777531934, 86.2038576498559, 84.40078082039426, 87.57049330475357, 89.14911522239515, 91.73820004985969]",4.0,False,5.666666666666667,3.559026084010437,1.1874158382415771,0.930200885257065
0,,sub_110,2024-07-08 10:55:35,3,distance,cathedral,numerosity_judgement,3,7,5,countries_reversed,"['_Yemen_reversed', '_Cuba_reversed', '_Sudan_reversed', '_Peru_reversed', '_Japan_reversed']","['m', 'f', 'm', 'm', 'f']","['p318', 'p268', 'p229', 'p256', 'p284']","[4, 0, 1, 9, 2]","[89.31368318402099, 84.40078082039426, 86.2038576498559, 92.00610777531934, 87.57049330475357]",5.0,True,5.2,3.5637059362410923,2.0623550415039062,0.9526614459198728
0,,sub_110,2024-07-08 10:55:38,3,distance,cathedral,numerosity_judgement,3,8,4,countries_reversed,"['_Peru_reversed', '_Britain_reversed', '_Yemen_reversed', '_Congo_reversed']","['m', 'f', 'f', 'm']","['p307', 'p245', 'p268', 'p256']","[6, 0, 4, 3]","[91.58892582949886, 84.40078082039426, 89.31368318402099, 89.14911522239515]",3.0,False,5.25,2.5,2.2498395442962646,0.6504256043581886
0,,sub_110,2024-07-08 10:55:42,3,distance,cathedral,numerosity_judgement,3,9,3,countries_reversed,"['_Tonga_reversed', '_Yemen_reversed', '_Japan_reversed']","['f', 'm', 'm']","['p245', 'p307', 'p256']","[7, 8, 5]","[91.73820004985969, 92.0152836843556, 90.34149293193902]",2.0,False,8.666666666666666,1.5275252316519468,2.812298536300659,0.6445919872886166
0,,sub_110,2024-07-08 10:55:45,3,distance,cathedral,numerosity_judgement,3,10,4,countries_reversed,"['_Japan_reversed', '_Britain_reversed', '_Tonga_reversed', '_Yemen_reversed']","['m', 'm', 'f', 'f']","['p307', 'p318', 'p268', 'p284']","[3, 1, 9, 10]","[89.14911522239515, 86.2038576498559, 92.00610777531934, 93.00003341222717]",3.0,False,7.75,4.425306015783918,1.1874198913574219,0.7914311655884689
0,,sub_110,2024-07-08 10:55:47,3,distance,cathedral,numerosity_judgement,3,11,3,countries_reversed,"['_Mali_reversed', '_Oman_reversed', '_Yemen_reversed']","['m', 'm', 'm']","['p318', 'p229', 'p256']","[8, 6, 3]","[92.0152836843556, 91.58892582949886, 89.14911522239515]",2.0,False,7.666666666666667,2.516611478423583,1.4998929500579834,0.6290886392009988
0,,sub_110,2024-07-08 10:55:50,3,distance,cathedral,numerosity_judgement,3,12,2,countries_reversed,"['_Oman_reversed', '_Yemen_reversed']","['m', 'f']","['p307', 'p245']","[5, 9]","[90.34149293193902, 92.00610777531934]",2.0,True,9.0,2.8284271247461903,1.7498738765716553,0.5617750539098854
0,,sub_110,2024-07-08 10:55:53,3,distance,cathedral,numerosity_judgement,3,13,5,countries_reversed,"['_Oman_reversed', '_Belgium_reversed', '_Japan_reversed', '_Yemen_reversed', '_Congo_reversed']","['f', 'f', 'm', 'f', 'm']","['p245', 'p284', 'p256', 'p248', 'p229']","[10, 2, 4, 8, 3]","[93.00003341222717, 87.57049330475357, 89.31368318402099, 92.0152836843556, 89.14911522239515]",4.0,False,7.4,3.4351128074635335,1.624882459640503,0.7331403926909544
0,,sub_110,2024-07-08 10:55:56,3,distance,cathedral,numerosity_judgement,3,14,6,countries_reversed,"['_Belgium_reversed', '_Mali_reversed', '_Syria_reversed', '_Sudan_reversed', '_Togo_reversed', '_Cuba_reversed']","['m', 'f', 'm', 'f', 'm', 'm']","['p318', 'p284', 'p256', 'p268', 'p307', 'p229']","[5, 9, 4, 8, 1, 0]","[90.34149293193902, 92.00610777531934, 89.31368318402099, 92.0152836843556, 86.2038576498559, 84.40078082039426]",4.0,False,6.5,3.6193922141707713,1.6248819828033447,0.9538644875723528
0,,sub_110,2024-07-08 10:55:59,3,distance,cathedral,numerosity_judgement,3,15,2,countries_reversed,"['_Sudan_reversed', '_Belgium_reversed']","['m', 'f']","['p318', 'p248']","[2, 0]","[87.57049330475357, 84.40078082039426]",2.0,True,3.0,1.4142135623730951,1.3124048709869385,0.959993190330269
0,,sub_110,2024-07-08 10:56:02,3,distance,cathedral,numerosity_judgement,3,16,5,countries_reversed,"['_Yemen_reversed', '_Oman_reversed', '_Sudan_reversed', '_Tonga_reversed', '_Syria_reversed']","['m', 'f', 'f', 'f', 'm']","['p318', 'p284', 'p268', 'p245', 'p229']","[9, 4, 3, 6, 5]","[92.00610777531934, 89.31368318402099, 89.14911522239515, 91.58892582949886, 90.34149293193902]",5.0,True,7.4,2.3021728866442674,1.4999034404754639,0.884394506866417
0,,sub_110,2024-07-08 10:56:04,3,distance,cathedral,numerosity_judgement,3,17,6,countries_reversed,"['_Mali_reversed', '_Yemen_reversed', '_Syria_reversed', '_Cuba_reversed', '_Peru_reversed', '_Tonga_reversed']","['m', 'm', 'f', 'm', 'f', 'm']","['p229', 'p318', 'p245', 'p256', 'p284', 'p307']","[2, 6, 10, 1, 4, 0]","[87.57049330475357, 91.58892582949886, 93.00003341222717, 86.2038576498559, 89.31368318402099, 84.40078082039426]",5.0,False,5.833333333333333,3.7103458958251676,1.3124053478240967,0.9178640335943706
0,,sub_110,2024-07-08 10:56:07,3,distance,cathedral,numerosity_judgement,3,18,4,countries_reversed,"['_Tonga_reversed', '_Syria_reversed', '_Britain_reversed', '_Peru_reversed']","['m', 'f', 'f', 'f']","['p318', 'p245', 'p248', 'p268']","[3, 9, 10, 2]","[89.14911522239515, 92.00610777531934, 93.00003341222717, 87.57049330475357]",4.0,True,8.0,4.08248290463863,1.2499096393585205,0.8902054250368857
0,,sub_110,2024-07-08 10:56:10,3,distance,cathedral,numerosity_judgement,3,19,3,countries_reversed,"['_Belgium_reversed', '_Tonga_reversed', '_Congo_reversed']","['f', 'f', 'm']","['p284', 'p245', 'p229']","[4, 9, 7]","[89.31368318402099, 92.00610777531934, 91.73820004985969]",3.0,True,8.666666666666666,2.516611478423583,1.6873786449432373,0.8574168652820339
0,,sub_110,2024-07-08 10:56:13,3,distance,cathedral,numerosity_judgement,3,20,2,countries_reversed,"['_Belgium_reversed', '_Congo_reversed']","['m', 'm']","['p307', 'p256']","[9, 8]","[92.00610777531934, 92.0152836843556]",2.0,True,10.5,0.7071067811865476,1.8748657703399658,0.7646010668482579
0,,sub_110,2024-07-08 10:56:15,3,distance,cathedral,numerosity_judgement,3,21,6,countries_reversed,"['_Britain_reversed', '_Oman_reversed', '_Mali_reversed', '_Togo_reversed', '_Yemen_reversed', '_Belgium_reversed']","['m', 'm', 'f', 'f', 'f', 'm']","['p318', 'p307', 'p245', 'p248', 'p284', 'p256']","[1, 7, 5, 6, 9, 3]","[86.2038576498559, 91.73820004985969, 90.34149293193902, 91.58892582949886, 92.00610777531934, 89.14911522239515]",4.0,False,7.166666666666667,2.857738033247041,1.437396764755249,0.7176937918510953
0,,sub_110,2024-07-08 10:56:19,3,distance,cathedral,numerosity_judgement,3,22,4,countries_reversed,"['_Britain_reversed', '_Syria_reversed', '_Congo_reversed', '_Mali_reversed']","['f', 'm', 'f', 'm']","['p268', 'p318', 'p245', 'p256']","[8, 4, 10, 7]","[92.0152836843556, 89.31368318402099, 93.00003341222717, 91.73820004985969]",5.0,False,9.25,2.5,2.062352180480957,0.8498354329815004
0,,sub_110,2024-07-08 10:56:22,3,distance,cathedral,numerosity_judgement,3,23,5,countries_reversed,"['_Mali_reversed', '_Belgium_reversed', '_Japan_reversed', '_Britain_reversed', '_Congo_reversed']","['f', 'm', 'f', 'f', 'f']","['p248', 'p229', 'p284', 'p245', 'p268']","[1, 3, 8, 4, 9]","[86.2038576498559, 89.14911522239515, 92.0152836843556, 89.31368318402099, 92.00610777531934]",4.0,False,7.0,3.391164991562634,1.6873791217803955,0.949404153898536
0,,sub_110,2024-07-08 10:56:24,3,distance,cathedral,numerosity_judgement,3,24,3,countries_reversed,"['_Belgium_reversed', '_Mali_reversed', '_Britain_reversed']","['m', 'm', 'm']","['p229', 'p307', 'p256']","[7, 1, 8]","[91.73820004985969, 86.2038576498559, 92.0152836843556]",3.0,True,7.333333333333333,3.7859388972001824,1.249910831451416,0.7335262739757121
0,,sub_110,2024-07-08 10:56:28,3,distance,cathedral,numerosity_judgement,3,25,4,countries_reversed,"['_Oman_reversed', '_Yemen_reversed', '_Britain_reversed', '_Mali_reversed']","['m', 'm', 'm', 'm']","['p229', 'p318', 'p307', 'p256']","[5, 7, 9, 6]","[90.34149293193902, 91.73820004985969, 92.00610777531934, 91.58892582949886]",2.0,False,8.75,1.707825127659933,2.1873624324798584,0.6135966405629327
0,,sub_110,2024-07-08 10:56:31,3,distance,cathedral,numerosity_judgement,3,26,5,countries_reversed,"['_Mali_reversed', '_Congo_reversed', '_Yemen_reversed', '_Peru_reversed', '_Cuba_reversed']","['m', 'f', 'm', 'f', 'm']","['p256', 'p248', 'p318', 'p284', 'p307']","[7, 5, 10, 6, 8]","[91.73820004985969, 90.34149293193902, 93.00003341222717, 91.58892582949886, 92.0152836843556]",3.0,False,9.2,1.9235384061671346,1.7498750686645508,0.7069799114742935
0,,sub_110,2024-07-08 10:56:33,3,distance,cathedral,numerosity_judgement,3,27,6,countries_reversed,"['_Yemen_reversed', '_Sudan_reversed', '_Cuba_reversed', '_Britain_reversed', '_Oman_reversed', '_Congo_reversed']","['m', 'f', 'f', 'm', 'f', 'f']","['p229', 'p248', 'p245', 'p307', 'p284', 'p268']","[6, 10, 5, 7, 0, 3]","[91.58892582949886, 93.00003341222717, 90.34149293193902, 91.73820004985969, 84.40078082039426, 89.14911522239515]",4.0,False,7.166666666666667,3.4302575219167823,1.4373970031738281,0.6710135058449666
0,,sub_110,2024-07-08 10:56:36,3,distance,cathedral,numerosity_judgement,3,28,2,countries_reversed,"['_Tonga_reversed', '_Congo_reversed']","['f', 'f']","['p268', 'p245']","[3, 9]","[89.14911522239515, 92.00610777531934]",2.0,True,8.0,4.242640687119285,1.5623877048492432,0.8438202247191011
0,,sub_110,2024-07-08 10:56:39,3,distance,cathedral,numerosity_judgement,3,29,3,countries_reversed,"['_Tonga_reversed', '_Peru_reversed', '_Cuba_reversed']","['f', 'm', 'f']","['p245', 'p256', 'p248']","[8, 7, 10]","[92.0152836843556, 91.73820004985969, 93.00003341222717]",3.0,True,10.333333333333334,1.5275252316519468,1.4374146461486816,0.6979003518329361
0,,sub_110,2024-07-08 10:56:42,3,distance,cathedral,numerosity_judgement,3,30,2,countries_reversed,"['_Togo_reversed', '_Yemen_reversed']","['f', 'm']","['p248', 'p229']","[4, 0]","[89.31368318402099, 84.40078082039426]",2.0,True,4.0,2.8284271247461903,1.374901533126831,0.9316309159005788
0,,sub_110,2024-07-08 10:56:44,3,distance,cathedral,numerosity_judgement,3,31,4,countries_reversed,"['_Yemen_reversed', '_Britain_reversed', '_Syria_reversed', '_Mali_reversed']","['f', 'm', 'm', 'f']","['p248', 'p318', 'p256', 'p245']","[5, 3, 2, 9]","[90.34149293193902, 89.14911522239515, 87.57049330475357, 92.00610777531934]",3.0,False,6.75,3.095695936834452,1.4373970031738281,0.7648507547383951
0,,sub_110,2024-07-08 10:56:47,3,distance,cathedral,numerosity_judgement,3,32,5,countries_reversed,"['_Congo_reversed', '_Yemen_reversed', '_Cuba_reversed', '_Tonga_reversed', '_Togo_reversed']","['m', 'm', 'f', 'f', 'm']","['p318', 'p307', 'p248', 'p245', 'p256']","[2, 7, 10, 8, 1]","[87.57049330475357, 91.73820004985969, 93.00003341222717, 92.0152836843556, 86.2038576498559]",4.0,False,7.6,3.9115214431215892,1.1249194145202637,0.7257632504823516
0,,sub_110,2024-07-08 10:56:49,3,distance,cathedral,numerosity_judgement,3,33,6,countries_reversed,"['_Yemen_reversed', '_Oman_reversed', '_Mali_reversed', '_Britain_reversed', '_Japan_reversed', '_Peru_reversed']","['f', 'm', 'm', 'f', 'f', 'm']","['p245', 'p229', 'p307', 'p248', 'p268', 'p256']","[9, 3, 7, 1, 5, 8]","[92.00610777531934, 89.14911522239515, 91.73820004985969, 86.2038576498559, 90.34149293193902, 92.0152836843556]",5.0,False,7.5,3.082207001484488,1.1249442100524902,0.7627284076722279
0,,sub_110,2024-07-08 10:56:52,3,distance,cathedral,numerosity_judgement,3,34,3,countries_reversed,"['_Sudan_reversed', '_Cuba_reversed', '_Oman_reversed']","['m', 'f', 'f']","['p256', 'p284', 'p248']","[8, 3, 6]","[92.0152836843556, 89.14911522239515, 91.58892582949886]",4.0,False,7.666666666666667,2.516611478423583,1.3124053478240967,0.7467029849052321
0,,sub_110,2024-07-08 10:56:54,3,distance,cathedral,numerosity_judgement,3,35,6,countries_reversed,"['_Britain_reversed', '_Togo_reversed', '_Sudan_reversed', '_Tonga_reversed', '_Oman_reversed', '_Cuba_reversed']","['f', 'm', 'f', 'm', 'f', 'f']","['p284', 'p318', 'p248', 'p229', 'p245', 'p268']","[9, 4, 5, 3, 10, 6]","[92.00610777531934, 89.31368318402099, 90.34149293193902, 89.14911522239515, 93.00003341222717, 91.58892582949886]",5.0,False,8.166666666666666,2.786873995477131,1.374964714050293,0.808568834411531
0,,sub_110,2024-07-08 10:56:57,3,distance,cathedral,numerosity_judgement,3,36,5,countries_reversed,"['_Mali_reversed', '_Oman_reversed', '_Britain_reversed', '_Peru_reversed', '_Yemen_reversed']","['f', 'm', 'm', 'm', 'f']","['p268', 'p256', 'p318', 'p307', 'p245']","[1, 6, 10, 9, 5]","[86.2038576498559, 91.58892582949886, 93.00003341222717, 92.00610777531934, 90.34149293193902]",4.0,False,8.2,3.5637059362410923,1.6248836517333984,0.6607536034502327
0,,sub_110,2024-07-08 10:57:00,3,distance,cathedral,numerosity_judgement,3,37,4,countries_reversed,"['_Oman_reversed', '_Belgium_reversed', '_Cuba_reversed', '_Britain_reversed']","['m', 'f', 'm', 'f']","['p318', 'p245', 'p229', 'p268']","[1, 2, 0, 4]","[86.2038576498559, 87.57049330475357, 84.40078082039426, 89.31368318402099]",3.0,False,3.75,1.707825127659933,1.7498748302459717,0.9656338667574622
0,,sub_110,2024-07-08 10:57:04,3,distance,cathedral,numerosity_judgement,3,38,2,countries_reversed,"['_Togo_reversed', '_Cuba_reversed']","['f', 'm']","['p268', 'p307']","[7, 8]","[91.73820004985969, 92.0152836843556]",3.0,False,9.5,0.7071067811865476,2.124847650527954,0.7497900351832936
0,,sub_110,2024-07-08 10:57:07,3,distance,cathedral,numerosity_judgement,3,39,3,countries_reversed,"['_Oman_reversed', '_Peru_reversed', '_Syria_reversed']","['f', 'm', 'f']","['p245', 'p318', 'p284']","[6, 4, 5]","[91.58892582949886, 89.31368318402099, 90.34149293193902]",2.0,False,7.0,1.0,1.4998681545257568,0.7870729769606174
0,,sub_110,2024-07-08 10:57:10,3,distance,cathedral,numerosity_judgement,3,40,2,countries_reversed,"['_Mali_reversed', '_Cuba_reversed']","['m', 'f']","['p307', 'p248']","[10, 8]","[93.00003341222717, 92.0152836843556]",2.0,True,11.0,1.4142135623730951,1.7498748302459717,0.627431619566451
0,,sub_110,2024-07-08 10:57:12,3,distance,cathedral,numerosity_judgement,3,41,5,countries_reversed,"['_Mali_reversed', '_Britain_reversed', '_Togo_reversed', '_Cuba_reversed', '_Oman_reversed']","['f', 'f', 'm', 'm', 'm']","['p248', 'p245', 'p256', 'p229', 'p307']","[0, 10, 6, 7, 5]","[84.40078082039426, 93.00003341222717, 91.58892582949886, 91.73820004985969, 90.34149293193902]",3.0,False,7.6,3.646916505762094,1.4998927116394043,0.6807399841107706
0,,sub_110,2024-07-08 10:57:15,3,distance,cathedral,numerosity_judgement,3,42,6,countries_reversed,"['_Cuba_reversed', '_Japan_reversed', '_Mali_reversed', '_Yemen_reversed', '_Sudan_reversed', '_Britain_reversed']","['f', 'f', 'f', 'm', 'm', 'm']","['p248', 'p268', 'p284', 'p229', 'p307', 'p318']","[8, 1, 3, 2, 5, 7]","[92.0152836843556, 86.2038576498559, 89.14911522239515, 87.57049330475357, 90.34149293193902, 91.73820004985969]",4.0,False,6.333333333333333,2.804757862395017,1.2499122619628906,0.8644308251049824
0,,sub_110,2024-07-08 10:57:18,3,distance,cathedral,numerosity_judgement,3,43,4,countries_reversed,"['_Britain_reversed', '_Tonga_reversed', '_Oman_reversed', '_Cuba_reversed']","['f', 'm', 'm', 'm']","['p268', 'p229', 'p256', 'p318']","[1, 4, 10, 5]","[86.2038576498559, 89.31368318402099, 93.00003341222717, 90.34149293193902]",4.0,True,7.0,3.7416573867739413,1.8748652935028076,0.750187265917603
0,,sub_110,2024-07-08 10:57:22,3,distance,cathedral,numerosity_judgement,3,44,3,countries_reversed,"['_Cuba_reversed', '_Togo_reversed', '_Syria_reversed']","['f', 'm', 'f']","['p268', 'p307', 'p245']","[9, 10, 6]","[92.00610777531934, 93.00003341222717, 91.58892582949886]",3.0,True,10.333333333333334,2.0816659994661326,3.1247763633728027,0.9138009306548632
0,,sub_110,2024-07-08 10:57:25,3,distance,cathedral,numerosity_judgement,3,45,2,countries_reversed,"['_Yemen_reversed', '_Oman_reversed']","['f', 'm']","['p248', 'p229']","[10, 1]","[93.00003341222717, 86.2038576498559]",2.0,True,7.5,6.363961030678928,1.8124349117279053,0.6590171376688231
0,,sub_110,2024-07-08 10:57:28,3,distance,cathedral,numerosity_judgement,3,46,5,countries_reversed,"['_Cuba_reversed', '_Yemen_reversed', '_Congo_reversed', '_Togo_reversed', '_Britain_reversed']","['f', 'm', 'f', 'f', 'm']","['p268', 'p229', 'p245', 'p284', 'p318']","[9, 10, 1, 8, 5]","[92.00610777531934, 93.00003341222717, 86.2038576498559, 92.0152836843556, 90.34149293193902]",3.0,False,8.6,3.646916505762094,1.4998929500579834,0.9011803427533764
0,,sub_110,2024-07-08 10:57:31,3,distance,cathedral,numerosity_judgement,3,47,4,countries_reversed,"['_Syria_reversed', '_Mali_reversed', '_Oman_reversed', '_Belgium_reversed']","['m', 'f', 'm', 'f']","['p307', 'p248', 'p318', 'p268']","[7, 1, 0, 8]","[91.73820004985969, 86.2038576498559, 84.40078082039426, 92.0152836843556]",4.0,True,6.0,4.08248290463863,1.1874148845672607,0.9346044716831232
0,,sub_110,2024-07-08 10:57:34,3,distance,cathedral,numerosity_judgement,3,48,6,countries_reversed,"['_Oman_reversed', '_Mali_reversed', '_Syria_reversed', '_Peru_reversed', '_Yemen_reversed', '_Togo_reversed']","['f', 'm', 'f', 'f', 'f', 'm']","['p248', 'p256', 'p284', 'p268', 'p245', 'p229']","[8, 7, 6, 1, 3, 4]","[92.0152836843556, 91.73820004985969, 91.58892582949886, 86.2038576498559, 89.14911522239515, 89.31368318402099]",4.0,False,6.833333333333333,2.6394443859772205,1.5623877048492432,0.8770968108046759
0,,sub_110,2024-07-08 10:57:36,3,distance,cathedral,numerosity_judgement,3,49,3,countries_reversed,"['_Yemen_reversed', '_Belgium_reversed', '_Congo_reversed']","['f', 'm', 'f']","['p248', 'p256', 'p268']","[0, 10, 1]","[84.40078082039426, 93.00003341222717, 86.2038576498559]",3.0,True,5.666666666666667,5.507570547286102,1.5623879432678223,0.8813188060379071
0,,sub_110,2024-07-08 10:57:39,3,distance,cathedral,numerosity_judgement,3,50,2,countries_reversed,"['_Mali_reversed', '_Cuba_reversed']","['f', 'f']","['p245', 'p248']","[3, 8]","[89.14911522239515, 92.0152836843556]",2.0,True,7.5,3.5355339059327378,1.437396764755249,0.7185223016683691
0,,sub_110,2024-07-08 10:57:42,3,distance,cathedral,numerosity_judgement,3,51,6,countries_reversed,"['_Cuba_reversed', '_Belgium_reversed', '_Britain_reversed', '_Syria_reversed', '_Mali_reversed', '_Tonga_reversed']","['m', 'f', 'f', 'f', 'f', 'm']","['p307', 'p268', 'p245', 'p284', 'p248', 'p318']","[9, 0, 2, 6, 4, 8]","[92.00610777531934, 84.40078082039426, 87.57049330475357, 91.58892582949886, 89.31368318402099, 92.0152836843556]",4.0,False,6.833333333333333,3.488074922742725,2.249838352203369,0.8927363522869141
0,,sub_110,2024-07-08 10:57:46,3,distance,cathedral,numerosity_judgement,3,52,5,countries_reversed,"['_Sudan_reversed', '_Britain_reversed', '_Tonga_reversed', '_Syria_reversed', '_Japan_reversed']","['m', 'f', 'f', 'm', 'f']","['p307', 'p284', 'p245', 'p256', 'p248']","[9, 1, 6, 5, 8]","[92.00610777531934, 86.2038576498559, 91.58892582949886, 90.34149293193902, 92.0152836843556]",4.0,False,7.8,3.1144823004794877,2.1873459815979004,0.815344455793894
0,,sub_110,2024-07-08 10:57:49,3,distance,cathedral,numerosity_judgement,3,53,4,countries_reversed,"['_Congo_reversed', '_Yemen_reversed', '_Oman_reversed', '_Syria_reversed']","['f', 'f', 'm', 'm']","['p284', 'p248', 'p229', 'p307']","[4, 10, 8, 7]","[89.31368318402099, 93.00003341222717, 92.0152836843556, 91.73820004985969]",3.0,False,9.25,2.5,1.6873793601989746,0.7253773691975939
0,,sub_110,2024-07-08 10:57:52,3,distance,cathedral,numerosity_judgement,3,54,3,countries_reversed,"['_Syria_reversed', '_Mali_reversed', '_Togo_reversed']","['f', 'm', 'm']","['p268', 'p307', 'p229']","[10, 2, 1]","[93.00003341222717, 87.57049330475357, 86.2038576498559]",2.0,False,6.333333333333333,4.932882862316247,1.9373345375061035,0.9307116104868914
0,,sub_110,2024-07-08 10:57:56,3,distance,cathedral,numerosity_judgement,3,55,5,countries_reversed,"['_Belgium_reversed', '_Togo_reversed', '_Congo_reversed', '_Yemen_reversed', '_Peru_reversed']","['f', 'm', 'f', 'f', 'f']","['p268', 'p307', 'p284', 'p248', 'p245']","[1, 6, 10, 9, 7]","[86.2038576498559, 91.58892582949886, 93.00003341222717, 92.00610777531934, 91.73820004985969]",3.0,False,8.6,3.5071355833500366,2.4997947216033936,0.7619679945522642
0,,sub_110,2024-07-08 10:57:59,3,distance,cathedral,numerosity_judgement,3,56,2,countries_reversed,"['_Mali_reversed', '_Yemen_reversed']","['m', 'm']","['p256', 'p307']","[9, 10]","[92.00610777531934, 93.00003341222717]",2.0,True,11.5,0.7071067811865476,1.6873793601989746,0.7868346385200318
0,,sub_110,2024-07-08 10:58:01,3,distance,cathedral,numerosity_judgement,3,57,4,countries_reversed,"['_Yemen_reversed', '_Belgium_reversed', '_Oman_reversed', '_Peru_reversed']","['f', 'f', 'm', 'm']","['p284', 'p245', 'p307', 'p256']","[10, 7, 4, 9]","[93.00003341222717, 91.73820004985969, 89.31368318402099, 92.00610777531934]",3.0,False,9.5,2.6457513110645907,1.4373960494995117,0.6722846441947565
0,,sub_110,2024-07-08 10:58:05,3,distance,cathedral,numerosity_judgement,3,58,3,countries_reversed,"['_Cuba_reversed', '_Congo_reversed', '_Yemen_reversed']","['f', 'm', 'f']","['p268', 'p307', 'p248']","[10, 9, 5]","[93.00003341222717, 92.00610777531934, 90.34149293193902]",2.0,False,10.0,2.6457513110645907,2.374830961227417,0.6675973215299058
0,,sub_110,2024-07-08 10:58:08,3,distance,cathedral,numerosity_judgement,3,59,6,countries_reversed,"['_Congo_reversed', '_Japan_reversed', '_Tonga_reversed', '_Oman_reversed', '_Sudan_reversed', '_Syria_reversed']","['m', 'f', 'f', 'm', 'f', 'm']","['p256', 'p268', 'p284', 'p229', 'p245', 'p318']","[8, 5, 2, 1, 10, 6]","[92.0152836843556, 90.34149293193902, 87.57049330475357, 86.2038576498559, 93.00003341222717, 91.58892582949886]",3.0,False,7.333333333333333,3.444802848737017,1.6873793601989746,0.8022585404607877
0,,sub_110,2024-07-08 10:58:11,3,distance,cathedral,numerosity_judgement,3,60,3,countries_reversed,"['_Belgium_reversed', '_Sudan_reversed', '_Peru_reversed']","['m', 'f', 'm']","['p307', 'p284', 'p256']","[5, 7, 0]","[90.34149293193902, 91.73820004985969, 84.40078082039426]",3.0,True,6.0,3.605551275463989,1.6873788833618164,0.9571558279423448
0,,sub_110,2024-07-08 10:58:14,3,distance,cathedral,numerosity_judgement,3,61,5,countries_reversed,"['_Yemen_reversed', '_Belgium_reversed', '_Japan_reversed', '_Congo_reversed', '_Togo_reversed']","['f', 'm', 'm', 'm', 'f']","['p245', 'p229', 'p318', 'p307', 'p268']","[4, 8, 5, 0, 3]","[89.31368318402099, 92.0152836843556, 90.34149293193902, 84.40078082039426, 89.14911522239515]",2.0,False,6.0,2.9154759474226504,1.249908685684204,0.9255589603904212
0,,sub_110,2024-07-08 10:58:16,3,distance,cathedral,numerosity_judgement,3,62,6,countries_reversed,"['_Yemen_reversed', '_Congo_reversed', '_Britain_reversed', '_Tonga_reversed', '_Togo_reversed', '_Syria_reversed']","['m', 'f', 'm', 'f', 'm', 'f']","['p318', 'p245', 'p307', 'p284', 'p256', 'p248']","[0, 8, 7, 6, 10, 5]","[84.40078082039426, 92.0152836843556, 91.73820004985969, 91.58892582949886, 93.00003341222717, 90.34149293193902]",3.0,False,8.0,3.40587727318528,1.4998939037322998,0.8342980365452276
0,,sub_110,2024-07-08 10:58:20,3,distance,cathedral,numerosity_judgement,3,63,4,countries_reversed,"['_Belgium_reversed', '_Japan_reversed', '_Sudan_reversed', '_Syria_reversed']","['f', 'm', 'm', 'm']","['p268', 'p256', 'p307', 'p229']","[1, 0, 6, 9]","[86.2038576498559, 84.40078082039426, 91.58892582949886, 92.00610777531934]",4.0,True,6.0,4.242640687119285,1.99985933303833,0.9093065486323914
0,,sub_110,2024-07-08 10:58:22,3,distance,cathedral,numerosity_judgement,3,64,2,countries_reversed,"['_Mali_reversed', '_Belgium_reversed']","['f', 'm']","['p268', 'p229']","[7, 2]","[91.73820004985969, 87.57049330475357]",2.0,True,6.5,3.5355339059327378,1.6248867511749268,0.905277494041539
0,,sub_110,2024-07-08 10:58:25,3,distance,cathedral,numerosity_judgement,3,65,3,countries_reversed,"['_Japan_reversed', '_Cuba_reversed', '_Syria_reversed']","['f', 'f', 'm']","['p248', 'p284', 'p256']","[5, 4, 3]","[90.34149293193902, 89.31368318402099, 89.14911522239515]",3.0,True,6.0,1.0,1.4998955726623535,0.8325275224151628
0,,sub_110,2024-07-08 10:58:28,3,distance,cathedral,numerosity_judgement,3,66,4,countries_reversed,"['_Yemen_reversed', '_Oman_reversed', '_Cuba_reversed', '_Sudan_reversed']","['m', 'm', 'f', 'f']","['p256', 'p229', 'p248', 'p245']","[3, 8, 0, 7]","[89.14911522239515, 92.0152836843556, 84.40078082039426, 91.73820004985969]",4.0,True,6.5,3.696845502136472,1.3124079704284668,0.689558506412439
0,,sub_110,2024-07-08 10:58:31,3,distance,cathedral,numerosity_judgement,3,67,2,countries_reversed,"['_Cuba_reversed', '_Peru_reversed']","['m', 'f']","['p318', 'p284']","[6, 9]","[91.58892582949886, 92.00610777531934]",3.0,False,9.5,2.1213203435596424,2.187343120574951,0.8390988537055952
0,,sub_110,2024-07-08 10:58:34,3,distance,cathedral,numerosity_judgement,3,68,6,countries_reversed,"['_Congo_reversed', '_Cuba_reversed', '_Yemen_reversed', '_Japan_reversed', '_Peru_reversed', '_Oman_reversed']","['f', 'm', 'f', 'm', 'm', 'f']","['p245', 'p229', 'p284', 'p307', 'p256', 'p268']","[10, 3, 9, 8, 6, 2]","[93.00003341222717, 89.14911522239515, 92.00610777531934, 92.0152836843556, 91.58892582949886, 87.57049330475357]",4.0,False,8.333333333333334,3.265986323710904,1.5623881816864014,0.7366133242537737
0,,sub_110,2024-07-08 10:58:37,3,distance,cathedral,numerosity_judgement,3,69,5,countries_reversed,"['_Oman_reversed', '_Cuba_reversed', '_Japan_reversed', '_Sudan_reversed', '_Togo_reversed']","['m', 'f', 'm', 'f', 'm']","['p307', 'p245', 'p229', 'p268', 'p256']","[0, 7, 8, 9, 4]","[84.40078082039426, 91.73820004985969, 92.0152836843556, 92.00610777531934, 89.31368318402099]",4.0,False,7.6,3.646916505762094,1.3749074935913086,0.8509249801384633
0,,sub_110,2024-07-08 10:58:40,3,distance,cathedral,numerosity_judgement,3,70,3,countries_reversed,"['_Cuba_reversed', '_Yemen_reversed', '_Peru_reversed']","['f', 'm', 'f']","['p245', 'p307', 'p248']","[7, 5, 1]","[91.73820004985969, 90.34149293193902, 86.2038576498559]",2.0,False,6.333333333333333,3.0550504633038935,1.5623888969421387,0.5953013278855975
0,,sub_110,2024-07-08 10:58:43,3,distance,cathedral,numerosity_judgement,3,71,2,countries_reversed,"['_Yemen_reversed', '_Peru_reversed']","['m', 'm']","['p256', 'p229']","[10, 9]","[93.00003341222717, 92.00610777531934]",2.0,True,11.5,0.7071067811865476,1.7498748302459717,0.6766541822721598
0,,sub_110,2024-07-08 10:58:45,3,distance,cathedral,numerosity_judgement,3,72,5,countries_reversed,"['_Oman_reversed', '_Congo_reversed', '_Peru_reversed', '_Yemen_reversed', '_Belgium_reversed']","['f', 'm', 'm', 'f', 'f']","['p245', 'p318', 'p307', 'p284', 'p248']","[10, 0, 1, 4, 5]","[93.00003341222717, 84.40078082039426, 86.2038576498559, 89.31368318402099, 90.34149293193902]",3.0,False,6.0,3.9370039370059056,1.249910593032837,0.8366700715015322
0,,sub_110,2024-07-08 10:58:48,3,distance,cathedral,numerosity_judgement,3,73,6,countries_reversed,"['_Peru_reversed', '_Belgium_reversed', '_Togo_reversed', '_Congo_reversed', '_Oman_reversed', '_Britain_reversed']","['f', 'm', 'm', 'f', 'm', 'f']","['p284', 'p229', 'p307', 'p268', 'p318', 'p245']","[4, 3, 7, 10, 9, 8]","[89.31368318402099, 89.14911522239515, 91.73820004985969, 93.00003341222717, 92.00610777531934, 92.0152836843556]",4.0,False,8.833333333333334,2.786873995477131,1.1248588562011719,0.7753149472250596
0,,sub_110,2024-07-08 10:58:51,3,distance,cathedral,numerosity_judgement,3,74,4,countries_reversed,"['_Britain_reversed', '_Mali_reversed', '_Sudan_reversed', '_Yemen_reversed']","['m', 'f', 'm', 'm']","['p307', 'p284', 'p256', 'p318']","[8, 3, 7, 9]","[92.0152836843556, 89.14911522239515, 91.73820004985969, 92.00610777531934]",4.0,True,8.75,2.6299556396765835,2.37746000289917,0.8126659856996936
0,,sub_110,2024-07-08 10:59:49,3,distance,cathedral,numerosity_judgement,4,0,2,countries_reversed,"['_Togo_reversed', '_Sudan_reversed']","['f', 'm']","['p284', 'p256']","[7, 5]","[91.73820004985969, 90.34149293193902]",2.0,True,8.0,1.4142135623730951,1.7498745918273926,0.7487118374758824
0,,sub_110,2024-07-08 10:59:51,3,distance,cathedral,numerosity_judgement,4,1,5,countries_reversed,"['_Sudan_reversed', '_Yemen_reversed', '_Cuba_reversed', '_Togo_reversed', '_Tonga_reversed']","['f', 'f', 'm', 'm', 'f']","['p248', 'p268', 'p307', 'p318', 'p284']","[6, 0, 7, 9, 8]","[91.58892582949886, 84.40078082039426, 91.73820004985969, 92.00610777531934, 92.0152836843556]",3.0,False,8.0,3.5355339059327378,1.1249196529388428,0.7628986494155033
0,,sub_110,2024-07-08 10:59:54,3,distance,cathedral,numerosity_judgement,4,2,4,countries_reversed,"['_Britain_reversed', '_Peru_reversed', '_Oman_reversed', '_Syria_reversed']","['m', 'f', 'm', 'm']","['p318', 'p245', 'p229', 'p256']","[6, 9, 7, 5]","[91.58892582949886, 92.00610777531934, 91.73820004985969, 90.34149293193902]",3.0,False,8.75,1.707825127659933,1.3749017715454102,0.6560549313358303
0,,sub_110,2024-07-08 10:59:56,3,distance,cathedral,numerosity_judgement,4,3,6,countries_reversed,"['_Mali_reversed', '_Togo_reversed', '_Cuba_reversed', '_Yemen_reversed', '_Congo_reversed', '_Sudan_reversed']","['m', 'f', 'm', 'f', 'f', 'f']","['p307', 'p268', 'p318', 'p248', 'p284', 'p245']","[7, 3, 5, 10, 6, 1]","[91.73820004985969, 89.14911522239515, 90.34149293193902, 93.00003341222717, 91.58892582949886, 86.2038576498559]",4.0,False,7.333333333333333,3.141125063837266,0.9374330043792725,0.7460220179321303
0,,sub_110,2024-07-08 10:59:59,3,distance,cathedral,numerosity_judgement,4,4,3,countries_reversed,"['_Oman_reversed', '_Peru_reversed', '_Britain_reversed']","['f', 'm', 'm']","['p284', 'p256', 'p318']","[6, 0, 3]","[91.58892582949886, 84.40078082039426, 89.14911522239515]",3.0,True,5.0,3.0,1.3749010562896729,0.8861536715469299
0,,sub_110,2024-07-08 11:00:01,3,distance,cathedral,numerosity_judgement,4,5,2,countries_reversed,"['_Cuba_reversed', '_Oman_reversed']","['m', 'm']","['p318', 'p307']","[3, 4]","[89.14911522239515, 89.31368318402099]",2.0,True,5.5,0.7071067811865476,1.3124067783355713,0.6099421178072864
0,,sub_110,2024-07-08 11:00:04,3,distance,cathedral,numerosity_judgement,4,6,5,countries_reversed,"['_Togo_reversed', '_Syria_reversed', '_Sudan_reversed', '_Belgium_reversed', '_Oman_reversed']","['m', 'f', 'm', 'm', 'f']","['p256', 'p268', 'p229', 'p307', 'p245']","[6, 2, 10, 5, 9]","[91.58892582949886, 87.57049330475357, 93.00003341222717, 90.34149293193902, 92.00610777531934]",4.0,False,8.4,3.2093613071762426,1.6873793601989746,0.9449324707751674
0,,sub_110,2024-07-08 11:00:07,3,distance,cathedral,numerosity_judgement,4,7,4,countries_reversed,"['_Oman_reversed', '_Yemen_reversed', '_Peru_reversed', '_Togo_reversed']","['m', 'm', 'm', 'f']","['p318', 'p307', 'p229', 'p268']","[3, 8, 9, 4]","[89.14911522239515, 92.0152836843556, 92.00610777531934, 89.31368318402099]",2.0,False,8.0,2.943920288775949,2.124907970428467,0.7319827488366815
0,,sub_110,2024-07-08 11:00:10,3,distance,cathedral,numerosity_judgement,4,8,6,countries_reversed,"['_Japan_reversed', '_Syria_reversed', '_Belgium_reversed', '_Peru_reversed', '_Congo_reversed', '_Togo_reversed']","['f', 'f', 'f', 'm', 'm', 'f']","['p284', 'p268', 'p248', 'p256', 'p229', 'p245']","[9, 6, 5, 2, 3, 8]","[92.00610777531934, 91.58892582949886, 90.34149293193902, 87.57049330475357, 89.14911522239515, 92.0152836843556]",5.0,False,7.5,2.7386127875258306,1.6249001026153564,0.8525933492225627
0,,sub_110,2024-07-08 11:00:13,3,distance,cathedral,numerosity_judgement,4,9,3,countries_reversed,"['_Yemen_reversed', '_Mali_reversed', '_Japan_reversed']","['f', 'm', 'f']","['p284', 'p318', 'p245']","[2, 4, 3]","[87.57049330475357, 89.31368318402099, 89.14911522239515]",4.0,False,5.0,1.0,1.312401294708252,0.8957780047667688
0,,sub_110,2024-07-08 11:00:16,3,distance,cathedral,numerosity_judgement,4,10,2,countries_reversed,"['_Sudan_reversed', '_Oman_reversed']","['m', 'm']","['p307', 'p256']","[5, 0]","[90.34149293193902, 84.40078082039426]",2.0,True,4.5,3.5355339059327378,1.5623886585235596,0.8640789921688798
0,,sub_110,2024-07-08 11:00:19,3,distance,cathedral,numerosity_judgement,4,11,6,countries_reversed,"['_Syria_reversed', '_Peru_reversed', '_Mali_reversed', '_Japan_reversed', '_Oman_reversed', '_Sudan_reversed']","['m', 'f', 'm', 'm', 'f', 'f']","['p256', 'p245', 'p307', 'p318', 'p248', 'p284']","[5, 9, 8, 1, 3, 4]","[90.34149293193902, 92.00610777531934, 92.0152836843556, 86.2038576498559, 89.14911522239515, 89.31368318402099]",4.0,False,7.0,3.03315017762062,1.4998915195465088,0.8232209737827715
0,,sub_110,2024-07-08 11:00:22,3,distance,cathedral,numerosity_judgement,4,12,5,countries_reversed,"['_Yemen_reversed', '_Tonga_reversed', '_Oman_reversed', '_Peru_reversed', '_Mali_reversed']","['f', 'm', 'f', 'f', 'm']","['p248', 'p318', 'p245', 'p284', 'p256']","[5, 2, 3, 7, 8]","[90.34149293193902, 87.57049330475357, 89.14911522239515, 91.73820004985969, 92.0152836843556]",4.0,False,7.0,2.5495097567963922,2.2498388290405273,0.7399387129724209
0,,sub_110,2024-07-08 11:00:25,3,distance,cathedral,numerosity_judgement,4,13,3,countries_reversed,"['_Congo_reversed', '_Japan_reversed', '_Yemen_reversed']","['f', 'm', 'm']","['p245', 'p256', 'p229']","[8, 0, 1]","[92.0152836843556, 84.40078082039426, 86.2038576498559]",3.0,True,5.0,4.358898943540674,1.312406063079834,0.9213937124049484
0,,sub_110,2024-07-08 11:00:28,3,distance,cathedral,numerosity_judgement,4,14,4,countries_reversed,"['_Oman_reversed', '_Yemen_reversed', '_Britain_reversed', '_Mali_reversed']","['m', 'm', 'm', 'm']","['p229', 'p318', 'p307', 'p256']","[5, 7, 9, 6]","[90.34149293193902, 91.73820004985969, 92.00610777531934, 91.58892582949886]",3.0,False,8.75,1.707825127659933,2.0623793601989746,0.6135966405629327
0,,sub_110,2024-07-08 11:00:31,3,distance,cathedral,numerosity_judgement,4,15,2,countries_reversed,"['_Yemen_reversed', '_Belgium_reversed']","['f', 'm']","['p248', 'p307']","[9, 10]","[92.00610777531934, 93.00003341222717]",2.0,True,11.5,0.7071067811865476,1.4373698234558105,0.8029849052320962
0,,sub_110,2024-07-08 11:00:34,3,distance,cathedral,numerosity_judgement,4,16,4,countries_reversed,"['_Belgium_reversed', '_Sudan_reversed', '_Mali_reversed', '_Britain_reversed']","['m', 'f', 'f', 'm']","['p229', 'p245', 'p284', 'p318']","[1, 4, 0, 2]","[86.2038576498559, 89.31368318402099, 84.40078082039426, 87.57049330475357]",3.0,False,3.75,1.707825127659933,1.8123977184295654,0.9611962319827488
0,,sub_110,2024-07-08 11:00:37,3,distance,cathedral,numerosity_judgement,4,17,3,countries_reversed,"['_Yemen_reversed', '_Togo_reversed', '_Peru_reversed']","['f', 'f', 'm']","['p248', 'p245', 'p307']","[10, 2, 9]","[93.00003341222717, 87.57049330475357, 92.00610777531934]",3.0,True,9.0,4.358898943540674,2.0623512268066406,0.7819430257632505
0,,sub_110,2024-07-08 11:00:40,3,distance,cathedral,numerosity_judgement,4,18,5,countries_reversed,"['_Yemen_reversed', '_Oman_reversed', '_Cuba_reversed', '_Tonga_reversed', '_Britain_reversed']","['f', 'm', 'm', 'm', 'f']","['p245', 'p318', 'p256', 'p307', 'p248']","[0, 5, 10, 9, 1]","[84.40078082039426, 90.34149293193902, 93.00003341222717, 92.00610777531934, 86.2038576498559]",3.0,False,7.0,4.527692569068709,2.1873435974121094,0.7115537396436273
0,,sub_110,2024-07-08 11:00:45,3,distance,cathedral,numerosity_judgement,4,19,6,countries_reversed,"['_Congo_reversed', '_Cuba_reversed', '_Yemen_reversed', '_Japan_reversed', '_Peru_reversed', '_Oman_reversed']","['f', 'm', 'f', 'm', 'm', 'f']","['p245', 'p229', 'p284', 'p307', 'p256', 'p268']","[10, 3, 9, 8, 6, 2]","[93.00003341222717, 89.14911522239515, 92.00610777531934, 92.0152836843556, 91.58892582949886, 87.57049330475357]",4.0,False,8.333333333333334,3.265986323710904,2.8122472763061523,0.7366133242537737
0,,sub_110,2024-07-08 11:00:47,3,distance,cathedral,numerosity_judgement,4,20,2,countries_reversed,"['_Oman_reversed', '_Syria_reversed']","['m', 'f']","['p307', 'p268']","[0, 2]","[84.40078082039426, 87.57049330475357]",2.0,True,3.0,1.4142135623730951,0.9999289512634277,0.961752355010782
0,,sub_110,2024-07-08 11:00:50,3,distance,cathedral,numerosity_judgement,4,21,6,countries_reversed,"['_Belgium_reversed', '_Japan_reversed', '_Congo_reversed', '_Sudan_reversed', '_Peru_reversed', '_Mali_reversed']","['m', 'f', 'm', 'm', 'f', 'f']","['p318', 'p245', 'p256', 'p307', 'p284', 'p268']","[2, 4, 8, 6, 10, 9]","[87.57049330475357, 89.31368318402099, 92.0152836843556, 91.58892582949886, 93.00003341222717, 92.00610777531934]",5.0,False,8.5,3.082207001484488,1.437396764755249,0.8352513903075701
0,,sub_110,2024-07-08 11:00:52,3,distance,cathedral,numerosity_judgement,4,22,3,countries_reversed,"['_Oman_reversed', '_Congo_reversed', '_Togo_reversed']","['f', 'f', 'f']","['p245', 'p268', 'p248']","[6, 3, 8]","[91.58892582949886, 89.14911522239515, 92.0152836843556]",4.0,False,7.666666666666667,2.516611478423583,1.3749010562896729,0.6824537509930768
0,,sub_110,2024-07-08 11:00:55,3,distance,cathedral,numerosity_judgement,4,23,4,countries_reversed,"['_Congo_reversed', '_Yemen_reversed', '_Japan_reversed', '_Oman_reversed']","['f', 'm', 'm', 'f']","['p248', 'p229', 'p318', 'p284']","[2, 4, 3, 7]","[87.57049330475357, 89.31368318402099, 89.14911522239515, 91.73820004985969]",4.0,True,6.0,2.160246899469287,1.7498745918273926,0.8654409261150834
0,,sub_110,2024-07-08 11:00:58,3,distance,cathedral,numerosity_judgement,4,24,5,countries_reversed,"['_Britain_reversed', '_Yemen_reversed', '_Mali_reversed', '_Cuba_reversed', '_Peru_reversed']","['f', 'f', 'm', 'm', 'm']","['p248', 'p245', 'p318', 'p229', 'p307']","[1, 0, 5, 7, 4]","[86.2038576498559, 84.40078082039426, 90.34149293193902, 91.73820004985969, 89.31368318402099]",3.0,False,5.4,2.8809720581775866,1.6873786449432373,0.7963000794461469
0,,sub_110,2024-07-08 11:01:01,3,distance,cathedral,numerosity_judgement,4,25,4,countries_reversed,"['_Yemen_reversed', '_Oman_reversed', '_Syria_reversed', '_Britain_reversed']","['f', 'm', 'f', 'f']","['p268', 'p318', 'p248', 'p245']","[9, 3, 6, 1]","[92.00610777531934, 89.14911522239515, 91.58892582949886, 86.2038576498559]",3.0,False,6.75,3.5,1.6248841285705566,0.7685620247418
0,,sub_110,2024-07-08 11:01:04,3,distance,cathedral,numerosity_judgement,4,26,3,countries_reversed,"['_Yemen_reversed', '_Cuba_reversed', '_Tonga_reversed']","['f', 'f', 'm']","['p268', 'p245', 'p307']","[9, 6, 5]","[92.00610777531934, 91.58892582949886, 90.34149293193902]",2.0,False,8.666666666666666,2.0816659994661326,1.5623881816864014,0.7341277948019521
0,,sub_110,2024-07-08 11:01:07,3,distance,cathedral,numerosity_judgement,4,27,5,countries_reversed,"['_Oman_reversed', '_Tonga_reversed', '_Sudan_reversed', '_Congo_reversed', '_Cuba_reversed']","['m', 'm', 'f', 'm', 'f']","['p307', 'p318', 'p268', 'p229', 'p284']","[0, 3, 7, 5, 4]","[84.40078082039426, 89.14911522239515, 91.73820004985969, 90.34149293193902, 89.31368318402099]",3.0,False,5.8,2.588435821108957,1.4373970031738281,0.9096129837702872
0,,sub_110,2024-07-08 11:01:10,3,distance,cathedral,numerosity_judgement,4,28,6,countries_reversed,"['_Peru_reversed', '_Togo_reversed', '_Sudan_reversed', '_Belgium_reversed', '_Yemen_reversed', '_Japan_reversed']","['f', 'f', 'm', 'f', 'm', 'f']","['p245', 'p268', 'p229', 'p284', 'p256', 'p248']","[5, 10, 0, 8, 2, 1]","[90.34149293193902, 93.00003341222717, 84.40078082039426, 92.0152836843556, 87.57049330475357, 86.2038576498559]",4.0,False,6.333333333333333,4.033195589934446,1.8748655319213867,0.9298717512200658
0,,sub_110,2024-07-08 11:01:13,3,distance,cathedral,numerosity_judgement,4,29,2,countries_reversed,"['_Syria_reversed', '_Oman_reversed']","['f', 'f']","['p248', 'p245']","[10, 5]","[93.00003341222717, 90.34149293193902]",3.0,False,9.5,3.5355339059327378,1.6873788833618164,0.6844058563159687
0,,sub_110,2024-07-08 11:01:17,3,distance,cathedral,numerosity_judgement,4,30,5,countries_reversed,"['_Britain_reversed', '_Mali_reversed', '_Yemen_reversed', '_Togo_reversed', '_Belgium_reversed']","['m', 'f', 'f', 'm', 'f']","['p318', 'p268', 'p284', 'p256', 'p245']","[6, 2, 3, 7, 4]","[91.58892582949886, 87.57049330475357, 89.14911522239515, 91.73820004985969, 89.31368318402099]",4.0,False,6.4,2.073644135332772,2.6873080730438232,0.8806832368630122
0,,sub_110,2024-07-08 11:01:19,3,distance,cathedral,numerosity_judgement,4,31,6,countries_reversed,"['_Japan_reversed', '_Congo_reversed', '_Sudan_reversed', '_Belgium_reversed', '_Peru_reversed', '_Mali_reversed']","['f', 'f', 'f', 'm', 'm', 'm']","['p245', 'p284', 'p248', 'p256', 'p229', 'p307']","[7, 10, 6, 5, 8, 0]","[91.73820004985969, 93.00003341222717, 91.58892582949886, 90.34149293193902, 92.0152836843556, 84.40078082039426]",5.0,False,8.0,3.40587727318528,0.9999277591705322,0.9050732039496084
0,,sub_110,2024-07-08 11:01:22,3,distance,cathedral,numerosity_judgement,4,32,3,countries_reversed,"['_Cuba_reversed', '_Yemen_reversed', '_Peru_reversed']","['f', 'm', 'f']","['p245', 'p307', 'p248']","[7, 5, 1]","[91.73820004985969, 90.34149293193902, 86.2038576498559]",3.0,True,6.333333333333333,3.0550504633038935,1.4998931884765625,0.5953013278855975
0,,sub_110,2024-07-08 11:01:25,3,distance,cathedral,numerosity_judgement,4,33,4,countries_reversed,"['_Belgium_reversed', '_Togo_reversed', '_Mali_reversed', '_Yemen_reversed']","['m', 'f', 'f', 'f']","['p307', 'p268', 'p245', 'p284']","[8, 10, 9, 3]","[92.0152836843556, 93.00003341222717, 92.00610777531934, 89.14911522239515]",3.0,False,9.5,3.1091263510296048,1.7498745918273926,0.8494155033480876
0,,sub_110,2024-07-08 11:01:28,3,distance,cathedral,numerosity_judgement,4,34,2,countries_reversed,"['_Mali_reversed', '_Togo_reversed']","['m', 'f']","['p318', 'p268']","[0, 4]","[84.40078082039426, 89.31368318402099]",2.0,True,4.0,2.8284271247461903,1.9998564720153809,0.94775848371354
