,event_id,subject_id,timestamp,session_index,plane,setup,task,block,trial_index,stim_number,stim_type,stim_country_ids,stim_sexes,stim_talker_ids,speaker_ids,stim_level,resp_number,is_correct,speaker_distance_mean,speaker_distance_st_dev,reaction_time,spectral_coverage
0,,sub_119,2024-07-26 16:16:22,3,distance,cathedral,numerosity_judgement,1,0,5,countries_reversed,"['_Britain_reversed', '_Tonga_reversed', '_Peru_reversed', '_Cuba_reversed', '_Oman_reversed']","['f', 'm', 'm', 'f', 'f']","['p245', 'p256', 'p318', 'p284', 'p248']","[3, 4, 9, 8, 5]","[89.14911522239515, 89.31368318402099, 92.00610777531934, 92.0152836843556, 90.34149293193902]",3.0,False,7.8,2.588435821108957,3.1247916221618652,0.7134150493701056
0,,sub_119,2024-07-26 16:16:25,3,distance,cathedral,numerosity_judgement,1,1,4,countries_reversed,"['_Yemen_reversed', '_Peru_reversed', '_Congo_reversed', '_Cuba_reversed']","['m', 'f', 'm', 'm']","['p229', 'p284', 'p256', 'p307']","[3, 0, 2, 8]","[89.14911522239515, 84.40078082039426, 87.57049330475357, 92.0152836843556]",3.0,False,5.25,3.4034296427770228,1.4999034404754639,0.7692656906140052
0,,sub_119,2024-07-26 16:16:28,3,distance,cathedral,numerosity_judgement,1,2,3,countries_reversed,"['_Syria_reversed', '_Cuba_reversed', '_Yemen_reversed']","['m', 'm', 'f']","['p318', 'p307', 'p248']","[6, 8, 5]","[91.58892582949886, 92.0152836843556, 90.34149293193902]",3.0,True,8.333333333333334,1.5275252316519468,1.3749089241027832,0.6818976279650437
0,,sub_119,2024-07-26 16:16:31,3,distance,cathedral,numerosity_judgement,1,3,2,countries_reversed,"['_Cuba_reversed', '_Sudan_reversed']","['f', 'm']","['p248', 'p256']","[10, 4]","[93.00003341222717, 89.31368318402099]",3.0,False,9.0,4.242640687119285,1.562368631362915,0.7644308251049824
0,,sub_119,2024-07-26 16:16:34,3,distance,cathedral,numerosity_judgement,1,4,6,countries_reversed,"['_Togo_reversed', '_Syria_reversed', '_Oman_reversed', '_Japan_reversed', '_Congo_reversed', '_Cuba_reversed']","['m', 'f', 'f', 'f', 'm', 'm']","['p318', 'p268', 'p248', 'p245', 'p229', 'p256']","[8, 4, 1, 9, 2, 6]","[92.0152836843556, 89.31368318402099, 86.2038576498559, 92.00610777531934, 87.57049330475357, 91.58892582949886]",4.0,False,7.0,3.22490309931942,1.6873633861541748,0.9487685847236408
0,,sub_119,2024-07-26 16:16:38,3,distance,cathedral,numerosity_judgement,1,5,2,countries_reversed,"['_Yemen_reversed', '_Congo_reversed']","['m', 'm']","['p229', 'p256']","[5, 0]","[90.34149293193902, 84.40078082039426]",3.0,False,4.5,3.5355339059327378,3.4372713565826416,0.7367381681988423
0,,sub_119,2024-07-26 16:16:42,3,distance,cathedral,numerosity_judgement,1,6,4,countries_reversed,"['_Syria_reversed', '_Togo_reversed', '_Oman_reversed', '_Cuba_reversed']","['f', 'm', 'm', 'f']","['p284', 'p307', 'p229', 'p248']","[1, 7, 8, 5]","[86.2038576498559, 91.73820004985969, 92.0152836843556, 90.34149293193902]",3.0,False,7.25,3.095695936834452,2.43733811378479,0.7194075587334015
0,,sub_119,2024-07-26 16:16:45,3,distance,cathedral,numerosity_judgement,1,7,5,countries_reversed,"['_Yemen_reversed', '_Sudan_reversed', '_Japan_reversed', '_Cuba_reversed', '_Oman_reversed']","['m', 'm', 'm', 'f', 'f']","['p307', 'p318', 'p229', 'p248', 'p245']","[7, 3, 6, 8, 0]","[91.73820004985969, 89.14911522239515, 91.58892582949886, 92.0152836843556, 84.40078082039426]",3.0,False,6.8,3.2710854467592254,1.8748743534088135,0.8382930427874248
0,,sub_119,2024-07-26 16:16:49,3,distance,cathedral,numerosity_judgement,1,8,3,countries_reversed,"['_Togo_reversed', '_Peru_reversed', '_Oman_reversed']","['f', 'm', 'f']","['p284', 'p229', 'p248']","[8, 1, 10]","[92.0152836843556, 86.2038576498559, 93.00003341222717]",2.0,False,8.333333333333334,4.725815626252608,2.1248223781585693,0.8651117920780842
0,,sub_119,2024-07-26 16:16:51,3,distance,cathedral,numerosity_judgement,1,9,6,countries_reversed,"['_Togo_reversed', '_Belgium_reversed', '_Syria_reversed', '_Oman_reversed', '_Britain_reversed', '_Mali_reversed']","['m', 'f', 'm', 'f', 'f', 'm']","['p229', 'p248', 'p256', 'p268', 'p284', 'p318']","[6, 5, 10, 2, 3, 9]","[91.58892582949886, 90.34149293193902, 93.00003341222717, 87.57049330475357, 89.14911522239515, 92.00610777531934]",3.0,False,7.833333333333333,3.188521078284832,1.4374046325683594,0.8658268073998411
0,,sub_119,2024-07-26 16:16:54,3,distance,cathedral,numerosity_judgement,1,10,5,countries_reversed,"['_Tonga_reversed', '_Togo_reversed', '_Syria_reversed', '_Yemen_reversed', '_Oman_reversed']","['f', 'm', 'm', 'f', 'm']","['p245', 'p256', 'p318', 'p248', 'p307']","[4, 9, 2, 5, 1]","[89.31368318402099, 92.00610777531934, 87.57049330475357, 90.34149293193902, 86.2038576498559]",3.0,False,6.2,3.1144823004794877,1.49989914894104,0.7037793667007151
0,,sub_119,2024-07-26 16:16:58,3,distance,cathedral,numerosity_judgement,1,11,6,countries_reversed,"['_Sudan_reversed', '_Yemen_reversed', '_Mali_reversed', '_Britain_reversed', '_Cuba_reversed', '_Syria_reversed']","['m', 'f', 'm', 'm', 'f', 'f']","['p229', 'p245', 'p256', 'p307', 'p248', 'p284']","[8, 6, 5, 3, 0, 4]","[92.0152836843556, 91.58892582949886, 90.34149293193902, 89.14911522239515, 84.40078082039426, 89.31368318402099]",4.0,False,6.333333333333333,2.7325202042558927,2.124859094619751,0.8866189989785496
0,,sub_119,2024-07-26 16:17:02,3,distance,cathedral,numerosity_judgement,1,12,2,countries_reversed,"['_Yemen_reversed', '_Congo_reversed']","['f', 'f']","['p248', 'p245']","[8, 6]","[92.0152836843556, 91.58892582949886]",2.0,True,9.0,1.4142135623730951,2.6248252391815186,0.709839972761321
0,,sub_119,2024-07-26 16:17:05,3,distance,cathedral,numerosity_judgement,1,13,4,countries_reversed,"['_Britain_reversed', '_Togo_reversed', '_Oman_reversed', '_Tonga_reversed']","['f', 'm', 'm', 'm']","['p245', 'p229', 'p307', 'p318']","[10, 6, 9, 4]","[93.00003341222717, 91.58892582949886, 92.00610777531934, 89.31368318402099]",3.0,False,9.25,2.753785273643051,1.8748793601989746,0.8254000680966973
0,,sub_119,2024-07-26 16:17:09,3,distance,cathedral,numerosity_judgement,1,14,3,countries_reversed,"['_Togo_reversed', '_Oman_reversed', '_Tonga_reversed']","['f', 'm', 'f']","['p248', 'p318', 'p245']","[3, 1, 0]","[89.14911522239515, 86.2038576498559, 84.40078082039426]",3.0,True,3.3333333333333335,1.5275252316519468,2.749817132949829,0.9369992055385312
0,,sub_119,2024-07-26 16:17:12,3,distance,cathedral,numerosity_judgement,1,15,2,countries_reversed,"['_Oman_reversed', '_Mali_reversed']","['m', 'f']","['p307', 'p248']","[2, 10]","[87.57049330475357, 93.00003341222717]",2.0,True,8.0,5.656854249492381,2.3123466968536377,0.8336624673703326
0,,sub_119,2024-07-26 16:17:15,3,distance,cathedral,numerosity_judgement,1,16,3,countries_reversed,"['_Togo_reversed', '_Tonga_reversed', '_Mali_reversed']","['m', 'f', 'm']","['p318', 'p248', 'p307']","[8, 10, 5]","[92.0152836843556, 93.00003341222717, 90.34149293193902]",3.0,True,9.666666666666666,2.516611478423583,1.8123786449432373,0.8070026103733969
0,,sub_119,2024-07-26 16:17:18,3,distance,cathedral,numerosity_judgement,1,17,5,countries_reversed,"['_Mali_reversed', '_Britain_reversed', '_Togo_reversed', '_Cuba_reversed', '_Oman_reversed']","['f', 'f', 'm', 'm', 'm']","['p248', 'p245', 'p256', 'p229', 'p307']","[0, 10, 6, 7, 5]","[84.40078082039426, 93.00003341222717, 91.58892582949886, 91.73820004985969, 90.34149293193902]",3.0,False,7.6,3.646916505762094,1.6873879432678223,0.6807399841107706
0,,sub_119,2024-07-26 16:17:22,3,distance,cathedral,numerosity_judgement,1,18,4,countries_reversed,"['_Oman_reversed', '_Sudan_reversed', '_Syria_reversed', '_Yemen_reversed']","['m', 'f', 'f', 'm']","['p229', 'p284', 'p245', 'p256']","[9, 1, 7, 0]","[92.00610777531934, 86.2038576498559, 91.73820004985969, 84.40078082039426]",4.0,True,6.25,4.425306015783918,2.3748421669006348,0.8482692089433662
0,,sub_119,2024-07-26 16:17:25,3,distance,cathedral,numerosity_judgement,1,19,6,countries_reversed,"['_Togo_reversed', '_Cuba_reversed', '_Sudan_reversed', '_Mali_reversed', '_Belgium_reversed', '_Syria_reversed']","['m', 'm', 'f', 'f', 'f', 'm']","['p256', 'p229', 'p268', 'p284', 'p245', 'p307']","[5, 6, 2, 8, 9, 10]","[90.34149293193902, 91.58892582949886, 87.57049330475357, 92.0152836843556, 92.00610777531934, 93.00003341222717]",4.0,False,8.666666666666666,2.943920288775949,1.749884843826294,0.9158438315741686
0,,sub_119,2024-07-26 16:17:28,3,distance,cathedral,numerosity_judgement,1,20,5,countries_reversed,"['_Tonga_reversed', '_Cuba_reversed', '_Sudan_reversed', '_Britain_reversed', '_Yemen_reversed']","['m', 'm', 'm', 'f', 'f']","['p229', 'p256', 'p307', 'p248', 'p284']","[4, 10, 0, 5, 7]","[89.31368318402099, 93.00003341222717, 84.40078082039426, 90.34149293193902, 91.73820004985969]",4.0,False,7.2,3.7013511046643495,1.312413215637207,0.7519350811485643
0,,sub_119,2024-07-26 16:17:32,3,distance,cathedral,numerosity_judgement,1,21,2,countries_reversed,"['_Britain_reversed', '_Yemen_reversed']","['m', 'm']","['p307', 'p256']","[3, 10]","[89.14911522239515, 93.00003341222717]",3.0,False,8.5,4.949747468305833,3.124793291091919,0.6303597775507888
0,,sub_119,2024-07-26 16:17:36,3,distance,cathedral,numerosity_judgement,1,22,6,countries_reversed,"['_Tonga_reversed', '_Britain_reversed', '_Oman_reversed', '_Cuba_reversed', '_Japan_reversed', '_Belgium_reversed']","['m', 'm', 'f', 'm', 'f', 'f']","['p229', 'p318', 'p268', 'p256', 'p245', 'p284']","[9, 0, 8, 7, 3, 4]","[92.00610777531934, 84.40078082039426, 92.0152836843556, 91.73820004985969, 89.14911522239515, 89.31368318402099]",3.0,False,7.166666666666667,3.430257521916783,2.562329053878784,0.8853024628305527
0,,sub_119,2024-07-26 16:17:40,3,distance,cathedral,numerosity_judgement,1,23,3,countries_reversed,"['_Yemen_reversed', '_Japan_reversed', '_Oman_reversed']","['f', 'm', 'm']","['p284', 'p307', 'p318']","[8, 3, 7]","[92.0152836843556, 89.14911522239515, 91.73820004985969]",3.0,True,8.0,2.6457513110645907,2.249850034713745,0.6985813188060379
0,,sub_119,2024-07-26 16:17:42,3,distance,cathedral,numerosity_judgement,1,24,4,countries_reversed,"['_Togo_reversed', '_Yemen_reversed', '_Mali_reversed', '_Tonga_reversed']","['m', 'f', 'm', 'm']","['p307', 'p268', 'p318', 'p229']","[5, 6, 3, 4]","[90.34149293193902, 91.58892582949886, 89.14911522239515, 89.31368318402099]",3.0,False,6.5,1.2909944487358056,1.062429428100586,0.7404494382022472
0,,sub_119,2024-07-26 16:17:45,3,distance,cathedral,numerosity_judgement,1,25,2,countries_reversed,"['_Sudan_reversed', '_Belgium_reversed']","['f', 'f']","['p245', 'p248']","[1, 9]","[86.2038576498559, 92.00610777531934]",3.0,False,7.0,5.656854249492381,1.4999005794525146,0.93585291113381
0,,sub_119,2024-07-26 16:17:47,3,distance,cathedral,numerosity_judgement,1,26,5,countries_reversed,"['_Sudan_reversed', '_Belgium_reversed', '_Togo_reversed', '_Congo_reversed', '_Japan_reversed']","['f', 'f', 'f', 'm', 'm']","['p284', 'p268', 'p248', 'p318', 'p307']","[2, 6, 1, 5, 4]","[87.57049330475357, 91.58892582949886, 86.2038576498559, 90.34149293193902, 89.31368318402099]",3.0,False,5.6,2.073644135332772,1.1874215602874756,0.9545227556463513
0,,sub_119,2024-07-26 16:17:49,3,distance,cathedral,numerosity_judgement,1,27,4,countries_reversed,"['_Syria_reversed', '_Japan_reversed', '_Sudan_reversed', '_Belgium_reversed']","['f', 'm', 'f', 'f']","['p248', 'p318', 'p245', 'p284']","[5, 10, 9, 1]","[90.34149293193902, 93.00003341222717, 92.00610777531934, 86.2038576498559]",3.0,False,8.25,4.112987559751022,0.9374387264251709,0.9295085688344116
0,,sub_119,2024-07-26 16:17:55,3,distance,cathedral,numerosity_judgement,1,28,6,countries_reversed,"['_Yemen_reversed', '_Sudan_reversed', '_Togo_reversed', '_Mali_reversed', '_Peru_reversed', '_Congo_reversed']","['f', 'm', 'm', 'f', 'f', 'f']","['p248', 'p307', 'p256', 'p245', 'p284', 'p268']","[8, 6, 10, 7, 9, 0]","[92.0152836843556, 91.58892582949886, 93.00003341222717, 91.73820004985969, 92.00610777531934, 84.40078082039426]",3.0,False,8.666666666666666,3.559026084010437,4.562195777893066,0.7549313358302122
0,,sub_119,2024-07-26 16:17:59,3,distance,cathedral,numerosity_judgement,1,29,3,countries_reversed,"['_Cuba_reversed', '_Tonga_reversed', '_Togo_reversed']","['m', 'm', 'f']","['p307', 'p229', 'p245']","[8, 7, 9]","[92.0152836843556, 91.73820004985969, 92.00610777531934]",4.0,False,10.0,1.0,2.437338352203369,0.7775961865849507
0,,sub_119,2024-07-26 16:18:02,3,distance,cathedral,numerosity_judgement,1,30,2,countries_reversed,"['_Peru_reversed', '_Oman_reversed']","['m', 'm']","['p307', 'p256']","[1, 5]","[86.2038576498559, 90.34149293193902]",3.0,False,5.0,2.8284271247461903,1.7498819828033447,0.5986721144024515
0,,sub_119,2024-07-26 16:18:05,3,distance,cathedral,numerosity_judgement,1,31,5,countries_reversed,"['_Britain_reversed', '_Belgium_reversed', '_Yemen_reversed', '_Oman_reversed', '_Cuba_reversed']","['f', 'm', 'm', 'm', 'f']","['p248', 'p318', 'p229', 'p256', 'p268']","[8, 4, 7, 0, 3]","[92.0152836843556, 89.31368318402099, 91.73820004985969, 84.40078082039426, 89.14911522239515]",3.0,False,6.4,3.2093613071762426,1.624891996383667,0.6562705708773124
0,,sub_119,2024-07-26 16:18:08,3,distance,cathedral,numerosity_judgement,1,32,6,countries_reversed,"['_Oman_reversed', '_Togo_reversed', '_Cuba_reversed', '_Tonga_reversed', '_Peru_reversed', '_Yemen_reversed']","['f', 'f', 'f', 'm', 'm', 'm']","['p284', 'p248', 'p268', 'p229', 'p318', 'p256']","[9, 1, 8, 5, 3, 7]","[92.00610777531934, 86.2038576498559, 92.0152836843556, 90.34149293193902, 89.14911522239515, 91.73820004985969]",4.0,False,7.5,3.082207001484488,1.6249427795410156,0.7762909998865055
0,,sub_119,2024-07-26 16:18:12,3,distance,cathedral,numerosity_judgement,1,33,4,countries_reversed,"['_Yemen_reversed', '_Sudan_reversed', '_Oman_reversed', '_Togo_reversed']","['f', 'm', 'm', 'm']","['p284', 'p256', 'p307', 'p229']","[9, 10, 7, 2]","[92.00610777531934, 93.00003341222717, 91.73820004985969, 87.57049330475357]",3.0,False,9.0,3.559026084010437,2.687321424484253,0.7033594370673022
0,,sub_119,2024-07-26 16:18:16,3,distance,cathedral,numerosity_judgement,1,34,3,countries_reversed,"['_Yemen_reversed', '_Oman_reversed', '_Tonga_reversed']","['m', 'm', 'f']","['p256', 'p307', 'p245']","[2, 5, 10]","[87.57049330475357, 90.34149293193902, 93.00003341222717]",2.0,False,7.666666666666667,4.041451884327381,3.062295913696289,0.5832936102599023
0,,sub_119,2024-07-26 16:18:19,3,distance,cathedral,numerosity_judgement,1,35,4,countries_reversed,"['_Belgium_reversed', '_Cuba_reversed', '_Sudan_reversed', '_Japan_reversed']","['m', 'm', 'm', 'f']","['p318', 'p256', 'p307', 'p248']","[10, 9, 7, 2]","[93.00003341222717, 92.00610777531934, 91.73820004985969, 87.57049330475357]",3.0,False,9.0,3.559026084010437,1.7498869895935059,0.8823402564975599
0,,sub_119,2024-07-26 16:18:22,3,distance,cathedral,numerosity_judgement,1,36,2,countries_reversed,"['_Peru_reversed', '_Yemen_reversed']","['f', 'm']","['p284', 'p256']","[4, 10]","[89.31368318402099, 93.00003341222717]",4.0,False,9.0,4.242640687119285,1.374908685684204,0.6791397117239814
0,,sub_119,2024-07-26 16:18:25,3,distance,cathedral,numerosity_judgement,1,37,6,countries_reversed,"['_Japan_reversed', '_Sudan_reversed', '_Peru_reversed', '_Belgium_reversed', '_Britain_reversed', '_Syria_reversed']","['f', 'f', 'm', 'm', 'm', 'f']","['p284', 'p245', 'p229', 'p307', 'p318', 'p268']","[7, 8, 10, 0, 6, 3]","[91.73820004985969, 92.0152836843556, 93.00003341222717, 84.40078082039426, 91.58892582949886, 89.14911522239515]",4.0,False,7.666666666666667,3.6147844564602556,2.3748416900634766,0.9421064578367948
0,,sub_119,2024-07-26 16:18:30,3,distance,cathedral,numerosity_judgement,1,38,5,countries_reversed,"['_Cuba_reversed', '_Britain_reversed', '_Sudan_reversed', '_Togo_reversed', '_Peru_reversed']","['m', 'f', 'm', 'f', 'f']","['p307', 'p245', 'p229', 'p284', 'p268']","[9, 5, 10, 1, 4]","[92.00610777531934, 90.34149293193902, 93.00003341222717, 86.2038576498559, 89.31368318402099]",4.0,False,7.8,3.7013511046643495,2.9373042583465576,0.8937578027465668
0,,sub_119,2024-07-26 16:18:33,3,distance,cathedral,numerosity_judgement,1,39,3,countries_reversed,"['_Sudan_reversed', '_Cuba_reversed', '_Syria_reversed']","['f', 'f', 'f']","['p248', 'p284', 'p268']","[0, 4, 8]","[84.40078082039426, 89.31368318402099, 92.0152836843556]",3.0,True,6.0,4.0,2.3123459815979004,0.9107365792759052
0,,sub_119,2024-07-26 16:18:37,3,distance,cathedral,numerosity_judgement,1,40,5,countries_reversed,"['_Congo_reversed', '_Japan_reversed', '_Tonga_reversed', '_Mali_reversed', '_Yemen_reversed']","['f', 'f', 'f', 'm', 'm']","['p248', 'p245', 'p268', 'p229', 'p256']","[1, 3, 4, 7, 6]","[86.2038576498559, 89.14911522239515, 89.31368318402099, 91.73820004985969, 91.58892582949886]",3.0,False,6.2,2.3874672772626644,2.0623626708984375,0.7693564862104187
0,,sub_119,2024-07-26 16:18:40,3,distance,cathedral,numerosity_judgement,1,41,2,countries_reversed,"['_Mali_reversed', '_Congo_reversed']","['m', 'm']","['p229', 'p318']","[7, 6]","[91.73820004985969, 91.58892582949886]",2.0,True,8.5,0.7071067811865476,2.2497973442077637,0.9587901486777892
0,,sub_119,2024-07-26 16:18:43,3,distance,cathedral,numerosity_judgement,1,42,3,countries_reversed,"['_Togo_reversed', '_Belgium_reversed', '_Sudan_reversed']","['f', 'f', 'f']","['p248', 'p245', 'p268']","[8, 3, 6]","[92.0152836843556, 89.14911522239515, 91.58892582949886]",3.0,True,7.666666666666667,2.516611478423583,1.4374048709869385,0.951424355918738
0,,sub_119,2024-07-26 16:18:47,3,distance,cathedral,numerosity_judgement,1,43,4,countries_reversed,"['_Sudan_reversed', '_Togo_reversed', '_Japan_reversed', '_Tonga_reversed']","['m', 'm', 'f', 'f']","['p229', 'p318', 'p248', 'p284']","[0, 1, 5, 6]","[84.40078082039426, 86.2038576498559, 90.34149293193902, 91.58892582949886]",3.0,False,5.0,2.943920288775949,3.312279462814331,0.9189762796504368
0,,sub_119,2024-07-26 16:18:51,3,distance,cathedral,numerosity_judgement,1,44,6,countries_reversed,"['_Congo_reversed', '_Britain_reversed', '_Mali_reversed', '_Yemen_reversed', '_Belgium_reversed', '_Togo_reversed']","['m', 'm', 'f', 'f', 'f', 'm']","['p256', 'p307', 'p245', 'p268', 'p248', 'p229']","[5, 7, 0, 9, 4, 6]","[90.34149293193902, 91.73820004985969, 84.40078082039426, 92.00610777531934, 89.31368318402099, 91.58892582949886]",3.0,False,7.166666666666667,3.0605010483034745,2.7498159408569336,0.8253546702984905
0,,sub_119,2024-07-26 16:18:55,3,distance,cathedral,numerosity_judgement,1,45,2,countries_reversed,"['_Cuba_reversed', '_Congo_reversed']","['m', 'm']","['p318', 'p256']","[6, 10]","[91.58892582949886, 93.00003341222717]",2.0,True,10.0,2.8284271247461903,1.9373717308044434,0.7863125638406537
0,,sub_119,2024-07-26 16:18:57,3,distance,cathedral,numerosity_judgement,1,46,5,countries_reversed,"['_Sudan_reversed', '_Yemen_reversed', '_Togo_reversed', '_Oman_reversed', '_Peru_reversed']","['m', 'f', 'f', 'f', 'f']","['p318', 'p245', 'p284', 'p248', 'p268']","[1, 8, 9, 3, 7]","[86.2038576498559, 92.0152836843556, 92.00610777531934, 89.14911522239515, 91.73820004985969]",3.0,False,7.6,3.4351128074635335,1.1874198913574219,0.8487118374758824
0,,sub_119,2024-07-26 16:19:00,3,distance,cathedral,numerosity_judgement,1,47,6,countries_reversed,"['_Syria_reversed', '_Yemen_reversed', '_Oman_reversed', '_Peru_reversed', '_Sudan_reversed', '_Cuba_reversed']","['m', 'f', 'm', 'f', 'f', 'm']","['p256', 'p248', 'p307', 'p268', 'p284', 'p318']","[2, 3, 5, 6, 0, 10]","[87.57049330475357, 89.14911522239515, 90.34149293193902, 91.58892582949886, 84.40078082039426, 93.00003341222717]",3.0,False,6.333333333333333,3.5023801430836525,1.249983549118042,0.6612870275791624
0,,sub_119,2024-07-26 16:19:02,3,distance,cathedral,numerosity_judgement,1,48,3,countries_reversed,"['_Syria_reversed', '_Japan_reversed', '_Tonga_reversed']","['f', 'f', 'm']","['p245', 'p248', 'p318']","[10, 4, 2]","[93.00003341222717, 89.31368318402099, 87.57049330475357]",3.0,True,7.333333333333333,4.163331998932266,1.0624291896820068,0.8837135398933151
0,,sub_119,2024-07-26 16:19:04,3,distance,cathedral,numerosity_judgement,1,49,4,countries_reversed,"['_Britain_reversed', '_Peru_reversed', '_Oman_reversed', '_Syria_reversed']","['m', 'f', 'm', 'm']","['p318', 'p245', 'p229', 'p256']","[6, 9, 7, 5]","[91.58892582949886, 92.00610777531934, 91.73820004985969, 90.34149293193902]",3.0,False,8.75,1.707825127659933,1.1873767375946045,0.6560549313358303
0,,sub_119,2024-07-26 16:19:07,3,distance,cathedral,numerosity_judgement,1,50,3,countries_reversed,"['_Togo_reversed', '_Cuba_reversed', '_Peru_reversed']","['f', 'f', 'f']","['p245', 'p268', 'p284']","[7, 8, 0]","[91.73820004985969, 92.0152836843556, 84.40078082039426]",3.0,True,7.0,4.358898943540674,1.1874628067016602,0.7187606401089547
0,,sub_119,2024-07-26 16:19:11,3,distance,cathedral,numerosity_judgement,1,51,5,countries_reversed,"['_Oman_reversed', '_Cuba_reversed', '_Japan_reversed', '_Belgium_reversed', '_Peru_reversed']","['m', 'm', 'f', 'm', 'f']","['p256', 'p307', 'p248', 'p318', 'p284']","[2, 3, 0, 5, 10]","[87.57049330475357, 89.14911522239515, 84.40078082039426, 90.34149293193902, 93.00003341222717]",3.0,False,6.0,3.8078865529319543,2.562314987182617,0.8688003631823856
0,,sub_119,2024-07-26 16:19:14,3,distance,cathedral,numerosity_judgement,1,52,4,countries_reversed,"['_Peru_reversed', '_Syria_reversed', '_Sudan_reversed', '_Cuba_reversed']","['m', 'f', 'f', 'm']","['p256', 'p284', 'p248', 'p318']","[9, 4, 6, 3]","[92.00610777531934, 89.31368318402099, 91.58892582949886, 89.14911522239515]",4.0,True,7.5,2.6457513110645907,1.8748753070831299,0.875973215299058
0,,sub_119,2024-07-26 16:19:16,3,distance,cathedral,numerosity_judgement,1,53,6,countries_reversed,"['_Togo_reversed', '_Japan_reversed', '_Tonga_reversed', '_Syria_reversed', '_Yemen_reversed', '_Cuba_reversed']","['f', 'm', 'm', 'f', 'f', 'f']","['p284', 'p307', 'p256', 'p245', 'p268', 'p248']","[4, 7, 5, 6, 3, 2]","[89.31368318402099, 91.73820004985969, 90.34149293193902, 91.58892582949886, 89.14911522239515, 87.57049330475357]",3.0,False,6.5,1.8708286933869707,1.2499167919158936,0.714708886618999
0,,sub_119,2024-07-26 16:19:19,3,distance,cathedral,numerosity_judgement,1,54,2,countries_reversed,"['_Britain_reversed', '_Belgium_reversed']","['m', 'm']","['p318', 'p256']","[3, 0]","[89.14911522239515, 84.40078082039426]",2.0,True,3.5,2.1213203435596424,1.5623908042907715,0.9196004993757804
0,,sub_119,2024-07-26 16:19:22,3,distance,cathedral,numerosity_judgement,1,55,3,countries_reversed,"['_Oman_reversed', '_Peru_reversed', '_Congo_reversed']","['m', 'f', 'f']","['p307', 'p268', 'p284']","[5, 6, 3]","[90.34149293193902, 91.58892582949886, 89.14911522239515]",3.0,True,6.666666666666667,1.5275252316519465,1.0624301433563232,0.6465781409601634
0,,sub_119,2024-07-26 16:19:25,3,distance,cathedral,numerosity_judgement,1,56,6,countries_reversed,"['_Britain_reversed', '_Peru_reversed', '_Japan_reversed', '_Cuba_reversed', '_Tonga_reversed', '_Oman_reversed']","['m', 'm', 'f', 'f', 'm', 'm']","['p229', 'p307', 'p248', 'p245', 'p256', 'p318']","[9, 2, 1, 5, 6, 10]","[92.00610777531934, 87.57049330475357, 86.2038576498559, 90.34149293193902, 91.58892582949886, 93.00003341222717]",3.0,False,7.5,3.6193922141707713,1.9998672008514404,0.6957212575190104
0,,sub_119,2024-07-26 16:19:28,3,distance,cathedral,numerosity_judgement,1,57,4,countries_reversed,"['_Togo_reversed', '_Sudan_reversed', '_Tonga_reversed', '_Britain_reversed']","['f', 'f', 'f', 'm']","['p248', 'p268', 'p245', 'p229']","[2, 9, 0, 4]","[87.57049330475357, 92.00610777531934, 84.40078082039426, 89.31368318402099]",3.0,False,5.75,3.8622100754188224,1.8748753070831299,0.9678016116218364
0,,sub_119,2024-07-26 16:19:32,3,distance,cathedral,numerosity_judgement,1,58,2,countries_reversed,"['_Oman_reversed', '_Yemen_reversed']","['m', 'f']","['p256', 'p245']","[3, 5]","[89.14911522239515, 90.34149293193902]",2.0,True,6.0,1.4142135623730951,3.1247923374176025,0.5576552037226195
0,,sub_119,2024-07-26 16:19:35,3,distance,cathedral,numerosity_judgement,1,59,5,countries_reversed,"['_Congo_reversed', '_Cuba_reversed', '_Mali_reversed', '_Sudan_reversed', '_Tonga_reversed']","['f', 'm', 'f', 'f', 'm']","['p245', 'p229', 'p268', 'p248', 'p256']","[4, 0, 6, 9, 3]","[89.31368318402099, 84.40078082039426, 91.58892582949886, 92.00610777531934, 89.14911522239515]",3.0,False,6.4,3.361547262794322,0.9999334812164307,0.9406650777437294
0,,sub_119,2024-07-26 16:19:38,3,distance,cathedral,numerosity_judgement,1,60,4,countries_reversed,"['_Oman_reversed', '_Syria_reversed', '_Cuba_reversed', '_Togo_reversed']","['m', 'm', 'm', 'f']","['p256', 'p307', 'p229', 'p248']","[10, 0, 5, 2]","[93.00003341222717, 84.40078082039426, 90.34149293193902, 87.57049330475357]",4.0,True,6.25,4.349329450233296,2.062363862991333,0.7807399841107706
0,,sub_119,2024-07-26 16:19:41,3,distance,cathedral,numerosity_judgement,1,61,5,countries_reversed,"['_Sudan_reversed', '_Tonga_reversed', '_Japan_reversed', '_Cuba_reversed', '_Oman_reversed']","['f', 'f', 'm', 'f', 'm']","['p248', 'p268', 'p256', 'p284', 'p307']","[0, 4, 3, 9, 7]","[84.40078082039426, 89.31368318402099, 89.14911522239515, 92.00610777531934, 91.73820004985969]",4.0,False,6.6,3.5071355833500366,1.7498836517333984,0.7753943933719215
0,,sub_119,2024-07-26 16:19:44,3,distance,cathedral,numerosity_judgement,1,62,2,countries_reversed,"['_Britain_reversed', '_Yemen_reversed']","['m', 'm']","['p318', 'p256']","[0, 10]","[84.40078082039426, 93.00003341222717]",2.0,True,7.0,7.0710678118654755,2.0623631477355957,0.6675973215299058
0,,sub_119,2024-07-26 16:19:48,3,distance,cathedral,numerosity_judgement,1,63,6,countries_reversed,"['_Sudan_reversed', '_Congo_reversed', '_Yemen_reversed', '_Japan_reversed', '_Syria_reversed', '_Cuba_reversed']","['f', 'f', 'm', 'm', 'm', 'm']","['p268', 'p245', 'p256', 'p229', 'p318', 'p307']","[8, 3, 10, 1, 6, 2]","[92.0152836843556, 89.14911522239515, 93.00003341222717, 86.2038576498559, 91.58892582949886, 87.57049330475357]",4.0,False,7.0,3.5777087639996634,2.1248586177825928,0.8175462490069232
0,,sub_119,2024-07-26 16:19:52,3,distance,cathedral,numerosity_judgement,1,64,3,countries_reversed,"['_Cuba_reversed', '_Oman_reversed', '_Togo_reversed']","['m', 'f', 'm']","['p256', 'p268', 'p318']","[8, 5, 0]","[92.0152836843556, 90.34149293193902, 84.40078082039426]",3.0,True,6.333333333333333,4.041451884327381,2.6873221397399902,0.7544660083985927
0,,sub_119,2024-07-26 16:19:56,3,distance,cathedral,numerosity_judgement,1,65,6,countries_reversed,"['_Mali_reversed', '_Cuba_reversed', '_Yemen_reversed', '_Togo_reversed', '_Peru_reversed', '_Japan_reversed']","['f', 'f', 'm', 'f', 'm', 'm']","['p268', 'p245', 'p256', 'p248', 'p229', 'p307']","[1, 6, 10, 7, 0, 8]","[86.2038576498559, 91.58892582949886, 93.00003341222717, 91.73820004985969, 84.40078082039426, 92.0152836843556]",3.0,False,7.333333333333333,3.9832984656772417,2.8748090267181396,0.7992395868800363
0,,sub_119,2024-07-26 16:20:00,3,distance,cathedral,numerosity_judgement,1,66,2,countries_reversed,"['_Tonga_reversed', '_Sudan_reversed']","['m', 'f']","['p307', 'p245']","[4, 9]","[89.31368318402099, 92.00610777531934]",3.0,False,8.5,3.5355339059327378,2.687321424484253,0.8702644421745546
0,,sub_119,2024-07-26 16:20:03,3,distance,cathedral,numerosity_judgement,1,67,5,countries_reversed,"['_Syria_reversed', '_Belgium_reversed', '_Congo_reversed', '_Japan_reversed', '_Tonga_reversed']","['f', 'm', 'm', 'm', 'f']","['p284', 'p307', 'p318', 'p256', 'p268']","[2, 10, 6, 5, 4]","[87.57049330475357, 93.00003341222717, 91.58892582949886, 90.34149293193902, 89.31368318402099]",3.0,False,7.4,2.9664793948382653,2.249850273132324,0.9210986267166044
0,,sub_119,2024-07-26 16:20:07,3,distance,cathedral,numerosity_judgement,1,68,4,countries_reversed,"['_Peru_reversed', '_Yemen_reversed', '_Togo_reversed', '_Cuba_reversed']","['m', 'f', 'm', 'f']","['p229', 'p248', 'p318', 'p245']","[2, 10, 0, 5]","[87.57049330475357, 93.00003341222717, 84.40078082039426, 90.34149293193902]",3.0,False,6.25,4.349329450233296,2.4998340606689453,0.6749290659403019
0,,sub_119,2024-07-26 16:20:11,3,distance,cathedral,numerosity_judgement,1,69,3,countries_reversed,"['_Togo_reversed', '_Cuba_reversed', '_Congo_reversed']","['f', 'f', 'm']","['p268', 'p245', 'p318']","[3, 8, 1]","[89.14911522239515, 92.0152836843556, 86.2038576498559]",3.0,True,6.0,3.605551275463989,3.0622968673706055,0.8261264328680059
0,,sub_119,2024-07-26 16:20:15,3,distance,cathedral,numerosity_judgement,1,70,4,countries_reversed,"['_Oman_reversed', '_Yemen_reversed', '_Britain_reversed', '_Mali_reversed']","['m', 'm', 'm', 'm']","['p229', 'p318', 'p307', 'p256']","[5, 7, 9, 6]","[90.34149293193902, 91.73820004985969, 92.00610777531934, 91.58892582949886]",2.0,False,8.75,1.707825127659933,2.0623621940612793,0.6135966405629327
0,,sub_119,2024-07-26 16:20:17,3,distance,cathedral,numerosity_judgement,1,71,3,countries_reversed,"['_Oman_reversed', '_Sudan_reversed', '_Mali_reversed']","['m', 'm', 'f']","['p307', 'p256', 'p248']","[4, 10, 8]","[89.31368318402099, 93.00003341222717, 92.0152836843556]",3.0,True,9.333333333333334,3.055050463303893,1.0624072551727295,0.6254454658949041
0,,sub_119,2024-07-26 16:20:21,3,distance,cathedral,numerosity_judgement,1,72,6,countries_reversed,"['_Togo_reversed', '_Japan_reversed', '_Oman_reversed', '_Britain_reversed', '_Congo_reversed', '_Cuba_reversed']","['f', 'm', 'm', 'm', 'f', 'f']","['p248', 'p256', 'p229', 'p307', 'p268', 'p245']","[2, 1, 5, 0, 6, 7]","[87.57049330475357, 86.2038576498559, 90.34149293193902, 84.40078082039426, 91.58892582949886, 91.73820004985969]",4.0,False,5.5,2.8809720581775866,2.6248936653137207,0.7422993984791738
0,,sub_119,2024-07-26 16:20:24,3,distance,cathedral,numerosity_judgement,1,73,2,countries_reversed,"['_Yemen_reversed', '_Peru_reversed']","['m', 'm']","['p307', 'p256']","[4, 0]","[89.31368318402099, 84.40078082039426]",4.0,False,4.0,2.8284271247461903,1.7498836517333984,0.8613324253773692
0,,sub_119,2024-07-26 16:20:29,3,distance,cathedral,numerosity_judgement,1,74,5,countries_reversed,"['_Togo_reversed', '_Britain_reversed', '_Japan_reversed', '_Oman_reversed', '_Belgium_reversed']","['f', 'm', 'f', 'm', 'f']","['p245', 'p229', 'p268', 'p307', 'p248']","[7, 0, 10, 3, 9]","[91.73820004985969, 84.40078082039426, 93.00003341222717, 89.14911522239515, 92.00610777531934]",3.0,False,7.8,4.207136793592526,3.4997670650482178,0.8184428555215072
0,,sub_119,2024-07-26 16:21:38,3,distance,cathedral,numerosity_judgement,2,0,4,countries_reversed,"['_Mali_reversed', '_Togo_reversed', '_Belgium_reversed', '_Sudan_reversed']","['f', 'm', 'm', 'f']","['p284', 'p256', 'p307', 'p248']","[6, 8, 0, 10]","[91.58892582949886, 92.0152836843556, 84.40078082039426, 93.00003341222717]",2.0,False,8.0,4.320493798938574,2.7498130798339844,0.9111792078084212
0,,sub_119,2024-07-26 16:21:40,3,distance,cathedral,numerosity_judgement,2,1,5,countries_reversed,"['_Sudan_reversed', '_Cuba_reversed', '_Japan_reversed', '_Yemen_reversed', '_Tonga_reversed']","['m', 'f', 'f', 'm', 'm']","['p256', 'p268', 'p284', 'p318', 'p229']","[9, 2, 1, 7, 10]","[92.00610777531934, 87.57049330475357, 86.2038576498559, 91.73820004985969, 93.00003341222717]",3.0,False,7.8,4.08656334834051,1.1874208450317383,0.8471683123368516
0,,sub_119,2024-07-26 16:21:42,3,distance,cathedral,numerosity_judgement,2,2,3,countries_reversed,"['_Cuba_reversed', '_Tonga_reversed', '_Oman_reversed']","['m', 'f', 'f']","['p307', 'p284', 'p245']","[7, 9, 5]","[91.73820004985969, 92.00610777531934, 90.34149293193902]",3.0,True,9.0,2.0,1.1248979568481445,0.5873453637498581
0,,sub_119,2024-07-26 16:21:45,3,distance,cathedral,numerosity_judgement,2,3,6,countries_reversed,"['_Oman_reversed', '_Sudan_reversed', '_Yemen_reversed', '_Japan_reversed', '_Cuba_reversed', '_Togo_reversed']","['m', 'f', 'm', 'm', 'f', 'f']","['p229', 'p248', 'p307', 'p318', 'p245', 'p284']","[2, 5, 10, 4, 7, 3]","[87.57049330475357, 90.34149293193902, 93.00003341222717, 89.31368318402099, 91.73820004985969, 89.14911522239515]",3.0,False,7.166666666666667,2.9268868558020253,1.4999001026153564,0.7232550221314267
0,,sub_119,2024-07-26 16:21:48,3,distance,cathedral,numerosity_judgement,2,4,2,countries_reversed,"['_Peru_reversed', '_Oman_reversed']","['m', 'm']","['p307', 'p256']","[5, 7]","[90.34149293193902, 91.73820004985969]",3.0,False,8.0,1.4142135623730951,1.8748743534088135,0.6408012711383498
0,,sub_119,2024-07-26 16:21:51,3,distance,cathedral,numerosity_judgement,2,5,5,countries_reversed,"['_Cuba_reversed', '_Syria_reversed', '_Japan_reversed', '_Tonga_reversed', '_Belgium_reversed']","['f', 'f', 'm', 'm', 'm']","['p284', 'p245', 'p229', 'p307', 'p256']","[1, 10, 6, 3, 2]","[86.2038576498559, 93.00003341222717, 91.58892582949886, 89.14911522239515, 87.57049330475357]",3.0,False,6.4,3.646916505762094,1.3124120235443115,0.9191919191919192
0,,sub_119,2024-07-26 16:21:53,3,distance,cathedral,numerosity_judgement,2,6,3,countries_reversed,"['_Cuba_reversed', '_Mali_reversed', '_Belgium_reversed']","['m', 'm', 'm']","['p307', 'p229', 'p318']","[9, 7, 1]","[92.00610777531934, 91.73820004985969, 86.2038576498559]",3.0,True,7.666666666666667,4.163331998932266,0.9999983310699463,0.8756554307116104
0,,sub_119,2024-07-26 16:21:56,3,distance,cathedral,numerosity_judgement,2,7,2,countries_reversed,"['_Oman_reversed', '_Tonga_reversed']","['m', 'f']","['p229', 'p245']","[6, 5]","[91.58892582949886, 90.34149293193902]",3.0,False,7.5,0.7071067811865476,1.4999020099639893,0.6289183974577233
0,,sub_119,2024-07-26 16:22:01,3,distance,cathedral,numerosity_judgement,2,8,6,countries_reversed,"['_Togo_reversed', '_Sudan_reversed', '_Syria_reversed', '_Yemen_reversed', '_Tonga_reversed', '_Oman_reversed']","['m', 'm', 'm', 'm', 'f', 'f']","['p229', 'p318', 'p307', 'p256', 'p268', 'p248']","[10, 1, 3, 6, 4, 9]","[93.00003341222717, 86.2038576498559, 89.14911522239515, 91.58892582949886, 89.31368318402099, 92.00610777531934]",3.0,False,7.5,3.5071355833500366,3.1872615814208984,0.8536488480308705
0,,sub_119,2024-07-26 16:22:04,3,distance,cathedral,numerosity_judgement,2,9,4,countries_reversed,"['_Britain_reversed', '_Yemen_reversed', '_Belgium_reversed', '_Togo_reversed']","['m', 'f', 'm', 'f']","['p229', 'p268', 'p318', 'p245']","[9, 4, 7, 0]","[92.00610777531934, 89.31368318402099, 91.73820004985969, 84.40078082039426]",3.0,False,7.0,3.9157800414902435,2.374842643737793,0.8470888661899898
0,,sub_119,2024-07-26 16:22:07,3,distance,cathedral,numerosity_judgement,2,10,3,countries_reversed,"['_Tonga_reversed', '_Congo_reversed', '_Japan_reversed']","['m', 'f', 'f']","['p318', 'p284', 'p268']","[9, 5, 7]","[92.00610777531934, 90.34149293193902, 91.73820004985969]",3.0,True,9.0,2.0,1.874875783920288,0.8933038247644989
0,,sub_119,2024-07-26 16:22:10,3,distance,cathedral,numerosity_judgement,2,11,2,countries_reversed,"['_Sudan_reversed', '_Tonga_reversed']","['f', 'm']","['p248', 'p307']","[8, 7]","[92.0152836843556, 91.73820004985969]",3.0,False,9.5,0.7071067811865476,1.0624291896820068,0.8303938258994439
0,,sub_119,2024-07-26 16:22:12,3,distance,cathedral,numerosity_judgement,2,12,5,countries_reversed,"['_Cuba_reversed', '_Sudan_reversed', '_Oman_reversed', '_Syria_reversed', '_Tonga_reversed']","['m', 'f', 'm', 'm', 'f']","['p229', 'p284', 'p318', 'p307', 'p268']","[7, 3, 0, 6, 5]","[91.73820004985969, 89.14911522239515, 84.40078082039426, 91.58892582949886, 90.34149293193902]",3.0,False,6.2,2.7748873851023212,1.624847173690796,0.883531948700488
0,,sub_119,2024-07-26 16:22:15,3,distance,cathedral,numerosity_judgement,2,13,4,countries_reversed,"['_Japan_reversed', '_Yemen_reversed', '_Togo_reversed', '_Syria_reversed']","['f', 'f', 'm', 'm']","['p248', 'p268', 'p229', 'p307']","[7, 3, 5, 2]","[91.73820004985969, 89.14911522239515, 90.34149293193902, 87.57049330475357]",3.0,False,6.25,2.217355782608345,1.3749356269836426,0.8984110770627625
0,,sub_119,2024-07-26 16:22:17,3,distance,cathedral,numerosity_judgement,2,14,6,countries_reversed,"['_Belgium_reversed', '_Yemen_reversed', '_Syria_reversed', '_Cuba_reversed', '_Britain_reversed', '_Tonga_reversed']","['m', 'f', 'f', 'm', 'm', 'm']","['p229', 'p248', 'p284', 'p318', 'p256', 'p307']","[8, 7, 3, 9, 10, 6]","[92.0152836843556, 91.73820004985969, 89.14911522239515, 92.00610777531934, 93.00003341222717, 91.58892582949886]",3.0,False,9.166666666666666,2.48327740429189,1.062429428100586,0.7593235728067189
0,,sub_119,2024-07-26 16:22:21,3,distance,cathedral,numerosity_judgement,2,15,3,countries_reversed,"['_Mali_reversed', '_Yemen_reversed', '_Oman_reversed']","['f', 'f', 'm']","['p268', 'p245', 'p318']","[10, 1, 4]","[93.00003341222717, 86.2038576498559, 89.31368318402099]",3.0,True,7.0,4.58257569495584,2.6873221397399902,0.8283622744296901
0,,sub_119,2024-07-26 16:22:27,3,distance,cathedral,numerosity_judgement,2,16,2,countries_reversed,"['_Mali_reversed', '_Sudan_reversed']","['m', 'm']","['p318', 'p229']","[6, 9]","[91.58892582949886, 92.00610777531934]",2.0,True,9.5,2.1213203435596424,4.374709367752075,0.9336965157189876
0,,sub_119,2024-07-26 16:22:30,3,distance,cathedral,numerosity_judgement,2,17,6,countries_reversed,"['_Togo_reversed', '_Belgium_reversed', '_Congo_reversed', '_Oman_reversed', '_Cuba_reversed', '_Tonga_reversed']","['f', 'm', 'f', 'm', 'f', 'm']","['p284', 'p256', 'p248', 'p318', 'p268', 'p229']","[7, 6, 9, 4, 1, 3]","[91.73820004985969, 91.58892582949886, 92.00610777531934, 89.31368318402099, 86.2038576498559, 89.14911522239515]",4.0,False,7.0,2.898275349237888,1.7498791217803955,0.7751560549313359
0,,sub_119,2024-07-26 16:22:33,3,distance,cathedral,numerosity_judgement,2,18,5,countries_reversed,"['_Togo_reversed', '_Cuba_reversed', '_Tonga_reversed', '_Japan_reversed', '_Congo_reversed']","['m', 'm', 'f', 'm', 'f']","['p307', 'p256', 'p245', 'p229', 'p284']","[1, 8, 4, 10, 5]","[86.2038576498559, 92.0152836843556, 89.31368318402099, 93.00003341222717, 90.34149293193902]",3.0,False,7.6,3.5071355833500366,1.687384843826294,0.8195778004766768
0,,sub_119,2024-07-26 16:22:36,3,distance,cathedral,numerosity_judgement,2,19,4,countries_reversed,"['_Sudan_reversed', '_Congo_reversed', '_Syria_reversed', '_Cuba_reversed']","['f', 'm', 'f', 'm']","['p245', 'p318', 'p268', 'p256']","[0, 6, 9, 4]","[84.40078082039426, 91.58892582949886, 92.00610777531934, 89.31368318402099]",3.0,False,6.75,3.774917217635375,1.5623948574066162,0.9480308705027806
0,,sub_119,2024-07-26 16:22:39,3,distance,cathedral,numerosity_judgement,2,20,5,countries_reversed,"['_Belgium_reversed', '_Cuba_reversed', '_Congo_reversed', '_Oman_reversed', '_Britain_reversed']","['f', 'm', 'f', 'f', 'm']","['p268', 'p307', 'p248', 'p245', 'p229']","[9, 7, 4, 6, 10]","[92.00610777531934, 91.73820004985969, 89.31368318402099, 91.58892582949886, 93.00003341222717]",3.0,False,9.2,2.3874672772626644,1.437403917312622,0.6419362160935195
0,,sub_119,2024-07-26 16:22:42,3,distance,cathedral,numerosity_judgement,2,21,2,countries_reversed,"['_Yemen_reversed', '_Congo_reversed']","['f', 'f']","['p245', 'p284']","[9, 3]","[92.00610777531934, 89.14911522239515]",3.0,False,8.0,4.242640687119285,1.7498836517333984,0.847565543071161
0,,sub_119,2024-07-26 16:22:46,3,distance,cathedral,numerosity_judgement,2,22,6,countries_reversed,"['_Togo_reversed', '_Peru_reversed', '_Mali_reversed', '_Oman_reversed', '_Sudan_reversed', '_Syria_reversed']","['m', 'f', 'm', 'm', 'f', 'f']","['p307', 'p245', 'p256', 'p318', 'p284', 'p268']","[9, 10, 3, 2, 1, 5]","[92.00610777531934, 93.00003341222717, 89.14911522239515, 87.57049330475357, 86.2038576498559, 90.34149293193902]",4.0,False,7.0,3.7416573867739413,2.687321662902832,0.8269662921348314
0,,sub_119,2024-07-26 16:22:50,3,distance,cathedral,numerosity_judgement,2,23,4,countries_reversed,"['_Yemen_reversed', '_Japan_reversed', '_Sudan_reversed', '_Oman_reversed']","['f', 'm', 'm', 'm']","['p248', 'p256', 'p307', 'p318']","[3, 4, 0, 10]","[89.14911522239515, 89.31368318402099, 84.40078082039426, 93.00003341222717]",3.0,False,6.25,4.193248541803041,2.812312602996826,0.7468391782998525
0,,sub_119,2024-07-26 16:22:53,3,distance,cathedral,numerosity_judgement,2,24,3,countries_reversed,"['_Yemen_reversed', '_Sudan_reversed', '_Belgium_reversed']","['m', 'f', 'f']","['p307', 'p284', 'p245']","[3, 10, 2]","[89.14911522239515, 93.00003341222717, 87.57049330475357]",3.0,True,7.0,4.358898943540674,2.1249094009399414,0.952014527295426
0,,sub_119,2024-07-26 16:22:57,3,distance,cathedral,numerosity_judgement,2,25,5,countries_reversed,"['_Tonga_reversed', '_Belgium_reversed', '_Syria_reversed', '_Peru_reversed', '_Britain_reversed']","['m', 'f', 'f', 'f', 'f']","['p318', 'p248', 'p284', 'p268', 'p245']","[1, 8, 9, 0, 4]","[86.2038576498559, 92.0152836843556, 92.00610777531934, 84.40078082039426, 89.31368318402099]",3.0,False,6.4,4.03732584763727,2.2498505115509033,0.9542617183066622
0,,sub_119,2024-07-26 16:23:00,3,distance,cathedral,numerosity_judgement,2,26,4,countries_reversed,"['_Togo_reversed', '_Cuba_reversed', '_Congo_reversed', '_Peru_reversed']","['f', 'm', 'm', 'f']","['p248', 'p229', 'p256', 'p268']","[6, 3, 7, 0]","[91.58892582949886, 89.14911522239515, 91.73820004985969, 84.40078082039426]",4.0,True,6.0,3.1622776601683795,1.6248924732208252,0.6679832028146635
0,,sub_119,2024-07-26 16:23:04,3,distance,cathedral,numerosity_judgement,2,27,2,countries_reversed,"['_Oman_reversed', '_Syria_reversed']","['m', 'm']","['p318', 'p229']","[1, 0]","[86.2038576498559, 84.40078082039426]",2.0,True,2.5,0.7071067811865476,3.062295436859131,0.9571785268414482
0,,sub_119,2024-07-26 16:23:07,3,distance,cathedral,numerosity_judgement,2,28,6,countries_reversed,"['_Yemen_reversed', '_Congo_reversed', '_Oman_reversed', '_Tonga_reversed', '_Peru_reversed', '_Togo_reversed']","['f', 'f', 'm', 'm', 'f', 'm']","['p268', 'p248', 'p256', 'p318', 'p245', 'p307']","[10, 2, 4, 3, 5, 7]","[93.00003341222717, 87.57049330475357, 89.31368318402099, 89.14911522239515, 90.34149293193902, 91.73820004985969]",3.0,False,7.166666666666667,2.9268868558020253,1.4998996257781982,0.6845647486096924
0,,sub_119,2024-07-26 16:23:10,3,distance,cathedral,numerosity_judgement,2,29,3,countries_reversed,"['_Cuba_reversed', '_Oman_reversed', '_Togo_reversed']","['f', 'f', 'm']","['p268', 'p245', 'p318']","[4, 10, 3]","[89.31368318402099, 93.00003341222717, 89.14911522239515]",3.0,True,7.666666666666667,3.7859388972001824,2.499833345413208,0.7454772443536488
0,,sub_119,2024-07-26 16:23:13,3,distance,cathedral,numerosity_judgement,2,30,4,countries_reversed,"['_Britain_reversed', '_Peru_reversed', '_Mali_reversed', '_Sudan_reversed']","['f', 'f', 'm', 'm']","['p248', 'p245', 'p318', 'p307']","[8, 7, 6, 2]","[92.0152836843556, 91.73820004985969, 91.58892582949886, 87.57049330475357]",4.0,True,7.75,2.6299556396765835,1.687387466430664,0.821257519010328
0,,sub_119,2024-07-26 16:23:18,3,distance,cathedral,numerosity_judgement,2,31,6,countries_reversed,"['_Japan_reversed', '_Congo_reversed', '_Peru_reversed', '_Syria_reversed', '_Cuba_reversed', '_Tonga_reversed']","['f', 'm', 'm', 'm', 'f', 'f']","['p268', 'p318', 'p307', 'p256', 'p245', 'p284']","[4, 3, 7, 10, 6, 2]","[89.31368318402099, 89.14911522239515, 91.73820004985969, 93.00003341222717, 91.58892582949886, 87.57049330475357]",3.0,False,7.333333333333333,2.943920288775949,3.0622968673706055,0.8017137668823062
0,,sub_119,2024-07-26 16:23:22,3,distance,cathedral,numerosity_judgement,2,32,3,countries_reversed,"['_Tonga_reversed', '_Yemen_reversed', '_Japan_reversed']","['f', 'm', 'm']","['p245', 'p307', 'p256']","[7, 8, 5]","[91.73820004985969, 92.0152836843556, 90.34149293193902]",3.0,True,8.666666666666666,1.5275252316519468,2.624849557876587,0.6445919872886166
0,,sub_119,2024-07-26 16:23:25,3,distance,cathedral,numerosity_judgement,2,33,5,countries_reversed,"['_Peru_reversed', '_Syria_reversed', '_Cuba_reversed', '_Yemen_reversed', '_Togo_reversed']","['f', 'm', 'f', 'f', 'm']","['p284', 'p256', 'p245', 'p248', 'p229']","[3, 5, 6, 7, 8]","[89.14911522239515, 90.34149293193902, 91.58892582949886, 91.73820004985969, 92.0152836843556]",3.0,False,7.8,1.9235384061671346,1.8123798370361328,0.7078651685393258
0,,sub_119,2024-07-26 16:23:28,3,distance,cathedral,numerosity_judgement,2,34,2,countries_reversed,"['_Peru_reversed', '_Oman_reversed']","['m', 'm']","['p307', 'p256']","[3, 5]","[89.14911522239515, 90.34149293193902]",2.0,True,6.0,1.4142135623730951,1.687387228012085,0.5539098853705595
0,,sub_119,2024-07-26 16:23:30,3,distance,cathedral,numerosity_judgement,2,35,6,countries_reversed,"['_Syria_reversed', '_Togo_reversed', '_Mali_reversed', '_Yemen_reversed', '_Congo_reversed', '_Peru_reversed']","['f', 'm', 'm', 'f', 'f', 'm']","['p284', 'p307', 'p318', 'p245', 'p248', 'p229']","[7, 5, 9, 8, 3, 0]","[91.73820004985969, 90.34149293193902, 92.00610777531934, 92.0152836843556, 89.14911522239515, 84.40078082039426]",3.0,False,7.333333333333333,3.3862466931200785,1.2499773502349854,0.8812847576892521
0,,sub_119,2024-07-26 16:23:34,3,distance,cathedral,numerosity_judgement,2,36,2,countries_reversed,"['_Yemen_reversed', '_Cuba_reversed']","['m', 'm']","['p318', 'p307']","[4, 8]","[89.31368318402099, 92.0152836843556]",3.0,False,8.0,2.8284271247461903,2.6248226165771484,0.7582680739984111
0,,sub_119,2024-07-26 16:23:37,3,distance,cathedral,numerosity_judgement,2,37,4,countries_reversed,"['_Peru_reversed', '_Yemen_reversed', '_Britain_reversed', '_Congo_reversed']","['m', 'm', 'f', 'm']","['p307', 'p229', 'p245', 'p256']","[3, 6, 8, 2]","[89.14911522239515, 91.58892582949886, 92.0152836843556, 87.57049330475357]",3.0,False,6.75,2.753785273643051,1.9373795986175537,0.6608330495970945
0,,sub_119,2024-07-26 16:23:40,3,distance,cathedral,numerosity_judgement,2,38,3,countries_reversed,"['_Mali_reversed', '_Congo_reversed', '_Syria_reversed']","['f', 'm', 'm']","['p248', 'p307', 'p256']","[9, 3, 5]","[92.00610777531934, 89.14911522239515, 90.34149293193902]",3.0,True,7.666666666666667,3.0550504633038935,1.7498829364776611,0.8412098513222108
0,,sub_119,2024-07-26 16:23:45,3,distance,cathedral,numerosity_judgement,2,39,5,countries_reversed,"['_Belgium_reversed', '_Cuba_reversed', '_Mali_reversed', '_Yemen_reversed', '_Oman_reversed']","['f', 'm', 'f', 'm', 'm']","['p268', 'p318', 'p248', 'p229', 'p307']","[2, 3, 0, 6, 5]","[87.57049330475357, 89.14911522239515, 84.40078082039426, 91.58892582949886, 90.34149293193902]",4.0,False,5.2,2.3874672772626644,3.1247940063476562,0.7307229599364431
0,,sub_119,2024-07-26 16:23:48,3,distance,cathedral,numerosity_judgement,2,40,2,countries_reversed,"['_Yemen_reversed', '_Peru_reversed']","['m', 'm']","['p256', 'p229']","[10, 9]","[93.00003341222717, 92.00610777531934]",2.0,True,11.5,0.7071067811865476,2.499833345413208,0.6766541822721598
0,,sub_119,2024-07-26 16:23:51,3,distance,cathedral,numerosity_judgement,2,41,4,countries_reversed,"['_Britain_reversed', '_Tonga_reversed', '_Togo_reversed', '_Congo_reversed']","['f', 'm', 'f', 'm']","['p284', 'p307', 'p245', 'p256']","[2, 6, 9, 8]","[87.57049330475357, 91.58892582949886, 92.00610777531934, 92.0152836843556]",3.0,False,8.25,3.095695936834452,1.3124127388000488,0.767063897400976
0,,sub_119,2024-07-26 16:23:53,3,distance,cathedral,numerosity_judgement,2,42,3,countries_reversed,"['_Japan_reversed', '_Belgium_reversed', '_Congo_reversed']","['m', 'f', 'f']","['p318', 'p268', 'p284']","[7, 2, 0]","[91.73820004985969, 87.57049330475357, 84.40078082039426]",3.0,True,5.0,3.605551275463989,1.0623738765716553,0.9376234252638748
0,,sub_119,2024-07-26 16:23:57,3,distance,cathedral,numerosity_judgement,2,43,6,countries_reversed,"['_Togo_reversed', '_Syria_reversed', '_Oman_reversed', '_Japan_reversed', '_Congo_reversed', '_Cuba_reversed']","['m', 'f', 'f', 'f', 'm', 'm']","['p318', 'p268', 'p248', 'p245', 'p229', 'p256']","[8, 4, 1, 9, 2, 6]","[92.0152836843556, 89.31368318402099, 86.2038576498559, 92.00610777531934, 87.57049330475357, 91.58892582949886]",3.0,False,7.0,3.22490309931942,1.9998674392700195,0.9487685847236408
0,,sub_119,2024-07-26 16:24:00,3,distance,cathedral,numerosity_judgement,2,44,5,countries_reversed,"['_Oman_reversed', '_Syria_reversed', '_Congo_reversed', '_Sudan_reversed', '_Yemen_reversed']","['f', 'm', 'f', 'f', 'f']","['p245', 'p318', 'p268', 'p248', 'p284']","[0, 10, 6, 5, 3]","[84.40078082039426, 93.00003341222717, 91.58892582949886, 90.34149293193902, 89.14911522239515]",3.0,False,6.8,3.7013511046643495,2.562326669692993,0.8130632164340029
0,,sub_119,2024-07-26 16:24:05,3,distance,cathedral,numerosity_judgement,2,45,4,countries_reversed,"['_Oman_reversed', '_Britain_reversed', '_Yemen_reversed', '_Mali_reversed']","['m', 'm', 'f', 'm']","['p229', 'p318', 'p248', 'p307']","[5, 1, 7, 8]","[90.34149293193902, 86.2038576498559, 91.73820004985969, 92.0152836843556]",3.0,False,7.25,3.095695936834452,2.8748090267181396,0.6953921234820111
0,,sub_119,2024-07-26 16:24:08,3,distance,cathedral,numerosity_judgement,2,46,6,countries_reversed,"['_Syria_reversed', '_Tonga_reversed', '_Congo_reversed', '_Peru_reversed', '_Togo_reversed', '_Yemen_reversed']","['m', 'm', 'f', 'm', 'f', 'f']","['p318', 'p229', 'p268', 'p256', 'p248', 'p284']","[3, 2, 10, 7, 6, 1]","[89.14911522239515, 87.57049330475357, 93.00003341222717, 91.73820004985969, 91.58892582949886, 86.2038576498559]",3.0,False,6.833333333333333,3.430257521916783,2.3748421669006348,0.904153898535921
0,,sub_119,2024-07-26 16:24:12,3,distance,cathedral,numerosity_judgement,2,47,3,countries_reversed,"['_Togo_reversed', '_Oman_reversed', '_Yemen_reversed']","['m', 'f', 'm']","['p318', 'p245', 'p229']","[3, 9, 6]","[89.14911522239515, 92.00610777531934, 91.58892582949886]",3.0,True,8.0,3.0,2.249847173690796,0.7861196231982749
0,,sub_119,2024-07-26 16:24:15,3,distance,cathedral,numerosity_judgement,2,48,2,countries_reversed,"['_Congo_reversed', '_Sudan_reversed']","['f', 'm']","['p245', 'p256']","[4, 8]","[89.31368318402099, 92.0152836843556]",2.0,True,8.0,2.8284271247461903,1.6248924732208252,0.7253887186471456
0,,sub_119,2024-07-26 16:24:19,3,distance,cathedral,numerosity_judgement,2,49,5,countries_reversed,"['_Mali_reversed', '_Togo_reversed', '_Tonga_reversed', '_Syria_reversed', '_Oman_reversed']","['m', 'f', 'm', 'f', 'm']","['p229', 'p268', 'p318', 'p284', 'p307']","[10, 1, 4, 7, 6]","[93.00003341222717, 86.2038576498559, 89.31368318402099, 91.73820004985969, 91.58892582949886]",3.0,False,7.6,3.361547262794322,2.687321901321411,0.794836000453978
0,,sub_119,2024-07-26 16:24:22,3,distance,cathedral,numerosity_judgement,2,50,2,countries_reversed,"['_Cuba_reversed', '_Togo_reversed']","['m', 'm']","['p307', 'p256']","[5, 9]","[90.34149293193902, 92.00610777531934]",3.0,False,9.0,2.8284271247461903,2.0623624324798584,0.7279990920440359
0,,sub_119,2024-07-26 16:24:25,3,distance,cathedral,numerosity_judgement,2,51,3,countries_reversed,"['_Oman_reversed', '_Britain_reversed', '_Peru_reversed']","['f', 'm', 'f']","['p248', 'p307', 'p268']","[3, 7, 10]","[89.14911522239515, 91.73820004985969, 93.00003341222717]",3.0,True,8.666666666666666,3.511884584284246,2.187354326248169,0.6069912609238451
0,,sub_119,2024-07-26 16:24:28,3,distance,cathedral,numerosity_judgement,2,52,5,countries_reversed,"['_Togo_reversed', '_Peru_reversed', '_Yemen_reversed', '_Oman_reversed', '_Congo_reversed']","['f', 'f', 'm', 'm', 'f']","['p248', 'p245', 'p318', 'p229', 'p268']","[4, 7, 5, 8, 6]","[89.31368318402099, 91.73820004985969, 90.34149293193902, 92.0152836843556, 91.58892582949886]",3.0,False,8.0,1.5811388300841898,1.1874215602874756,0.6672341391442516
0,,sub_119,2024-07-26 16:24:31,3,distance,cathedral,numerosity_judgement,2,53,6,countries_reversed,"['_Yemen_reversed', '_Congo_reversed', '_Tonga_reversed', '_Togo_reversed', '_Britain_reversed', '_Syria_reversed']","['m', 'm', 'f', 'f', 'f', 'm']","['p307', 'p256', 'p245', 'p268', 'p284', 'p318']","[5, 8, 6, 4, 10, 1]","[90.34149293193902, 92.0152836843556, 91.58892582949886, 89.31368318402099, 93.00003341222717, 86.2038576498559]",3.0,False,7.666666666666667,3.141125063837266,1.8124372959136963,0.7191578708432641
0,,sub_119,2024-07-26 16:24:34,3,distance,cathedral,numerosity_judgement,2,54,4,countries_reversed,"['_Syria_reversed', '_Cuba_reversed', '_Tonga_reversed', '_Britain_reversed']","['f', 'm', 'f', 'm']","['p248', 'p256', 'p268', 'p318']","[7, 0, 1, 10]","[91.73820004985969, 84.40078082039426, 86.2038576498559, 93.00003341222717]",3.0,False,6.5,4.795831523312719,1.374908208847046,0.9249914879128364
0,,sub_119,2024-07-26 16:24:38,3,distance,cathedral,numerosity_judgement,2,55,3,countries_reversed,"['_Tonga_reversed', '_Togo_reversed', '_Syria_reversed']","['m', 'm', 'f']","['p256', 'p307', 'p268']","[5, 3, 4]","[90.34149293193902, 89.14911522239515, 89.31368318402099]",3.0,True,6.0,1.0,2.7498362064361572,0.8030189535807514
0,,sub_119,2024-07-26 16:24:41,3,distance,cathedral,numerosity_judgement,2,56,4,countries_reversed,"['_Oman_reversed', '_Sudan_reversed', '_Congo_reversed', '_Tonga_reversed']","['f', 'f', 'f', 'm']","['p268', 'p248', 'p245', 'p307']","[5, 10, 1, 6]","[90.34149293193902, 93.00003341222717, 86.2038576498559, 91.58892582949886]",3.0,False,7.5,3.696845502136472,1.8123793601989746,0.8664283282260811
0,,sub_119,2024-07-26 16:24:44,3,distance,cathedral,numerosity_judgement,2,57,2,countries_reversed,"['_Yemen_reversed', '_Cuba_reversed']","['f', 'm']","['p248', 'p307']","[9, 5]","[92.00610777531934, 90.34149293193902]",2.0,True,9.0,2.8284271247461903,2.499803066253662,0.5836227442969016
0,,sub_119,2024-07-26 16:24:49,3,distance,cathedral,numerosity_judgement,2,58,6,countries_reversed,"['_Yemen_reversed', '_Congo_reversed', '_Sudan_reversed', '_Syria_reversed', '_Britain_reversed', '_Belgium_reversed']","['f', 'm', 'f', 'm', 'm', 'f']","['p284', 'p256', 'p245', 'p307', 'p318', 'p268']","[6, 1, 3, 0, 7, 8]","[91.58892582949886, 86.2038576498559, 89.14911522239515, 84.40078082039426, 91.73820004985969, 92.0152836843556]",4.0,False,6.166666666666667,3.3115957885386114,3.1247923374176025,0.9315514697537168
0,,sub_119,2024-07-26 16:24:52,3,distance,cathedral,numerosity_judgement,2,59,5,countries_reversed,"['_Sudan_reversed', '_Syria_reversed', '_Yemen_reversed', '_Belgium_reversed', '_Togo_reversed']","['f', 'm', 'f', 'm', 'f']","['p245', 'p307', 'p268', 'p318', 'p284']","[7, 5, 2, 8, 1]","[91.73820004985969, 90.34149293193902, 87.57049330475357, 92.0152836843556, 86.2038576498559]",3.0,False,6.6,3.0495901363953815,1.8748748302459717,0.9338554080127114
0,,sub_119,2024-07-26 16:24:55,3,distance,cathedral,numerosity_judgement,2,60,3,countries_reversed,"['_Britain_reversed', '_Peru_reversed', '_Yemen_reversed']","['m', 'm', 'f']","['p256', 'p318', 'p268']","[8, 7, 2]","[92.0152836843556, 91.73820004985969, 87.57049330475357]",3.0,True,7.666666666666667,3.2145502536643185,1.6873879432678223,0.6670979457496311
0,,sub_119,2024-07-26 16:24:58,3,distance,cathedral,numerosity_judgement,2,61,2,countries_reversed,"['_Peru_reversed', '_Tonga_reversed']","['f', 'm']","['p268', 'p318']","[8, 2]","[92.0152836843556, 87.57049330475357]",3.0,False,7.0,4.242640687119285,2.1248586177825928,0.8009079559641358
0,,sub_119,2024-07-26 16:25:01,3,distance,cathedral,numerosity_judgement,2,62,4,countries_reversed,"['_Oman_reversed', '_Yemen_reversed', '_Britain_reversed', '_Mali_reversed']","['m', 'm', 'm', 'm']","['p229', 'p318', 'p307', 'p256']","[5, 7, 9, 6]","[90.34149293193902, 91.73820004985969, 92.00610777531934, 91.58892582949886]",3.0,False,8.75,1.707825127659933,1.3124196529388428,0.6135966405629327
0,,sub_119,2024-07-26 16:25:04,3,distance,cathedral,numerosity_judgement,2,63,6,countries_reversed,"['_Yemen_reversed', '_Sudan_reversed', '_Cuba_reversed', '_Britain_reversed', '_Oman_reversed', '_Congo_reversed']","['m', 'f', 'f', 'm', 'f', 'f']","['p229', 'p248', 'p245', 'p307', 'p284', 'p268']","[6, 10, 5, 7, 0, 3]","[91.58892582949886, 93.00003341222717, 90.34149293193902, 91.73820004985969, 84.40078082039426, 89.14911522239515]",4.0,False,7.166666666666667,3.4302575219167823,1.7498841285705566,0.6710135058449666
0,,sub_119,2024-07-26 16:25:06,3,distance,cathedral,numerosity_judgement,2,64,5,countries_reversed,"['_Sudan_reversed', '_Mali_reversed', '_Yemen_reversed', '_Cuba_reversed', '_Britain_reversed']","['m', 'm', 'f', 'f', 'f']","['p307', 'p256', 'p268', 'p248', 'p245']","[9, 4, 10, 5, 3]","[92.00610777531934, 89.31368318402099, 93.00003341222717, 90.34149293193902, 89.14911522239515]",3.0,False,8.2,3.1144823004794873,0.9374644756317139,0.7696175235501078
0,,sub_119,2024-07-26 16:25:09,3,distance,cathedral,numerosity_judgement,2,65,3,countries_reversed,"['_Yemen_reversed', '_Belgium_reversed', '_Cuba_reversed']","['m', 'm', 'm']","['p256', 'p307', 'p318']","[5, 7, 10]","[90.34149293193902, 91.73820004985969, 93.00003341222717]",3.0,True,9.333333333333334,2.516611478423583,1.8123798370361328,0.7075019861536715
0,,sub_119,2024-07-26 16:25:12,3,distance,cathedral,numerosity_judgement,2,66,5,countries_reversed,"['_Peru_reversed', '_Oman_reversed', '_Cuba_reversed', '_Britain_reversed', '_Belgium_reversed']","['f', 'm', 'f', 'f', 'm']","['p245', 'p229', 'p268', 'p248', 'p318']","[2, 7, 6, 5, 4]","[87.57049330475357, 91.73820004985969, 91.58892582949886, 90.34149293193902, 89.31368318402099]",3.0,False,6.8,1.9235384061671346,1.062429428100586,0.7139484734990353
0,,sub_119,2024-07-26 16:25:16,3,distance,cathedral,numerosity_judgement,2,67,6,countries_reversed,"['_Syria_reversed', '_Japan_reversed', '_Peru_reversed', '_Belgium_reversed', '_Cuba_reversed', '_Togo_reversed']","['f', 'm', 'f', 'm', 'f', 'm']","['p284', 'p229', 'p268', 'p307', 'p248', 'p256']","[3, 5, 8, 10, 9, 2]","[89.14911522239515, 90.34149293193902, 92.0152836843556, 93.00003341222717, 92.00610777531934, 87.57049330475357]",4.0,False,8.166666666666666,3.3115957885386114,2.8748083114624023,0.926830098740211
0,,sub_119,2024-07-26 16:25:20,3,distance,cathedral,numerosity_judgement,2,68,4,countries_reversed,"['_Peru_reversed', '_Cuba_reversed', '_Britain_reversed', '_Japan_reversed']","['m', 'f', 'm', 'f']","['p307', 'p248', 'p229', 'p245']","[8, 6, 4, 10]","[92.0152836843556, 91.58892582949886, 89.31368318402099, 93.00003341222717]",3.0,False,9.0,2.581988897471611,3.3747751712799072,0.7899557371467484
0,,sub_119,2024-07-26 16:25:25,3,distance,cathedral,numerosity_judgement,2,69,2,countries_reversed,"['_Oman_reversed', '_Peru_reversed']","['f', 'f']","['p248', 'p284']","[4, 0]","[89.31368318402099, 84.40078082039426]",2.0,True,4.0,2.8284271247461903,3.249784231185913,0.8703438883214164
0,,sub_119,2024-07-26 16:25:27,3,distance,cathedral,numerosity_judgement,2,70,4,countries_reversed,"['_Japan_reversed', '_Cuba_reversed', '_Belgium_reversed', '_Sudan_reversed']","['f', 'f', 'm', 'm']","['p284', 'p268', 'p307', 'p256']","[1, 6, 9, 2]","[86.2038576498559, 91.58892582949886, 92.00610777531934, 87.57049330475357]",3.0,False,6.5,3.696845502136472,1.3123853206634521,0.7229258880944274
0,,sub_119,2024-07-26 16:25:31,3,distance,cathedral,numerosity_judgement,2,71,6,countries_reversed,"['_Britain_reversed', '_Cuba_reversed', '_Yemen_reversed', '_Congo_reversed', '_Mali_reversed', '_Oman_reversed']","['m', 'f', 'f', 'm', 'f', 'f']","['p256', 'p245', 'p284', 'p318', 'p248', 'p268']","[7, 10, 4, 2, 8, 0]","[91.73820004985969, 93.00003341222717, 89.31368318402099, 87.57049330475357, 92.0152836843556, 84.40078082039426]",3.0,False,7.166666666666667,3.8166302763912916,2.187354326248169,0.8242083758937692
0,,sub_119,2024-07-26 16:25:35,3,distance,cathedral,numerosity_judgement,2,72,2,countries_reversed,"['_Mali_reversed', '_Sudan_reversed']","['m', 'f']","['p256', 'p245']","[3, 4]","[89.14911522239515, 89.31368318402099]",3.0,False,5.5,0.7071067811865476,3.1872880458831787,0.9039042106457836
0,,sub_119,2024-07-26 16:25:38,3,distance,cathedral,numerosity_judgement,2,73,5,countries_reversed,"['_Oman_reversed', '_Syria_reversed', '_Cuba_reversed', '_Peru_reversed', '_Britain_reversed']","['m', 'm', 'f', 'f', 'f']","['p229', 'p307', 'p268', 'p245', 'p284']","[4, 3, 2, 5, 9]","[89.31368318402099, 89.14911522239515, 87.57049330475357, 90.34149293193902, 92.00610777531934]",3.0,False,6.6,2.701851217221259,1.624892234802246,0.9031210986267166
0,,sub_119,2024-07-26 16:25:43,3,distance,cathedral,numerosity_judgement,2,74,3,countries_reversed,"['_Congo_reversed', '_Mali_reversed', '_Cuba_reversed']","['m', 'f', 'f']","['p256', 'p268', 'p248']","[5, 7, 8]","[90.34149293193902, 91.73820004985969, 92.0152836843556]",3.0,True,8.666666666666666,1.5275252316519468,3.4997661113739014,0.7249120417659743
0,,sub_119,2024-07-26 16:26:39,3,distance,cathedral,numerosity_judgement,3,0,4,countries_forward,"['_Syria_', '_Congo_', '_Yemen_', '_Togo_']","['m', 'f', 'm', 'f']","['p318', 'p245', 'p256', 'p268']","[6, 9, 0, 7]","[91.58892582949886, 92.00610777531934, 84.40078082039426, 91.73820004985969]",2.0,False,7.5,3.872983346207417,2.187288761138916,0.8865168539325843
0,,sub_119,2024-07-26 16:26:42,3,distance,cathedral,numerosity_judgement,3,1,3,countries_forward,"['_Mali_', '_Yemen_', '_Sudan_']","['f', 'f', 'm']","['p284', 'p248', 'p307']","[9, 1, 0]","[92.00610777531934, 86.2038576498559, 84.40078082039426]",3.0,True,5.333333333333333,4.932882862316247,0.9374380111694336,0.9559981840880716
0,,sub_119,2024-07-26 16:26:45,3,distance,cathedral,numerosity_judgement,3,2,5,countries_forward,"['_Mali_', '_Britain_', '_Yemen_', '_Congo_', '_Oman_']","['f', 'm', 'f', 'f', 'm']","['p284', 'p307', 'p268', 'p245', 'p229']","[4, 0, 8, 2, 10]","[89.31368318402099, 84.40078082039426, 92.0152836843556, 87.57049330475357, 93.00003341222717]",4.0,False,6.8,4.147288270665544,1.9373679161071777,0.7485642946317104
0,,sub_119,2024-07-26 16:26:49,3,distance,cathedral,numerosity_judgement,3,3,2,countries_forward,"['_Mali_', '_Syria_']","['m', 'f']","['p318', 'p268']","[8, 5]","[92.0152836843556, 90.34149293193902]",2.0,True,8.5,2.1213203435596424,2.3123459815979004,0.9270684371807968
0,,sub_119,2024-07-26 16:26:53,3,distance,cathedral,numerosity_judgement,3,4,6,countries_forward,"['_Peru_', '_Yemen_', '_Togo_', '_Belgium_', '_Oman_', '_Cuba_']","['f', 'm', 'm', 'f', 'f', 'm']","['p268', 'p256', 'p229', 'p248', 'p284', 'p318']","[10, 5, 7, 3, 1, 0]","[93.00003341222717, 90.34149293193902, 91.73820004985969, 89.14911522239515, 86.2038576498559, 84.40078082039426]",3.0,False,6.333333333333333,3.777124126457412,2.312325954437256,0.8687549653841788
0,,sub_119,2024-07-26 16:26:58,3,distance,cathedral,numerosity_judgement,3,5,2,countries_forward,"['_Mali_', '_Oman_']","['f', 'm']","['p245', 'p307']","[10, 5]","[93.00003341222717, 90.34149293193902]",2.0,True,9.5,3.5355339059327378,2.6873459815979004,0.6794574963114289
0,,sub_119,2024-07-26 16:27:02,3,distance,cathedral,numerosity_judgement,3,6,6,countries_forward,"['_Oman_', '_Peru_', '_Britain_', '_Tonga_', '_Yemen_', '_Congo_']","['f', 'f', 'm', 'f', 'm', 'f']","['p284', 'p268', 'p229', 'p248', 'p318', 'p245']","[7, 8, 5, 10, 6, 1]","[91.73820004985969, 92.0152836843556, 90.34149293193902, 93.00003341222717, 91.58892582949886, 86.2038576498559]",3.0,False,8.166666666666666,3.0605010483034745,2.812293767929077,0.7195778004766769
0,,sub_119,2024-07-26 16:27:07,3,distance,cathedral,numerosity_judgement,3,7,5,countries_forward,"['_Peru_', '_Mali_', '_Yemen_', '_Japan_', '_Britain_']","['f', 'f', 'm', 'm', 'f']","['p284', 'p245', 'p229', 'p307', 'p268']","[9, 8, 1, 10, 6]","[92.00610777531934, 92.0152836843556, 86.2038576498559, 93.00003341222717, 91.58892582949886]",4.0,False,8.8,3.5637059362410923,2.1873550415039062,0.8758143230053342
0,,sub_119,2024-07-26 16:27:10,3,distance,cathedral,numerosity_judgement,3,8,3,countries_forward,"['_Togo_', '_Tonga_', '_Britain_']","['m', 'm', 'f']","['p307', 'p256', 'p245']","[1, 9, 6]","[86.2038576498559, 92.00610777531934, 91.58892582949886]",3.0,True,7.333333333333333,4.041451884327381,2.062427520751953,0.8436045851776189
0,,sub_119,2024-07-26 16:27:16,3,distance,cathedral,numerosity_judgement,3,9,4,countries_forward,"['_Congo_', '_Oman_', '_Syria_', '_Cuba_']","['f', 'f', 'm', 'f']","['p268', 'p284', 'p307', 'p245']","[3, 1, 10, 2]","[89.14911522239515, 86.2038576498559, 93.00003341222717, 87.57049330475357]",3.0,False,6.0,4.08248290463863,3.749750852584839,0.8489728748155715
0,,sub_119,2024-07-26 16:27:19,3,distance,cathedral,numerosity_judgement,3,10,3,countries_forward,"['_Peru_', '_Cuba_', '_Sudan_']","['m', 'f', 'm']","['p229', 'p248', 'p307']","[1, 10, 4]","[86.2038576498559, 93.00003341222717, 89.31368318402099]",3.0,True,7.0,4.58257569495584,1.874875545501709,0.8287141073657928
0,,sub_119,2024-07-26 16:27:24,3,distance,cathedral,numerosity_judgement,3,11,4,countries_forward,"['_Oman_', '_Peru_', '_Britain_', '_Cuba_']","['f', 'm', 'm', 'f']","['p248', 'p307', 'p318', 'p268']","[7, 5, 10, 3]","[91.73820004985969, 90.34149293193902, 93.00003341222717, 89.14911522239515]",4.0,True,8.25,2.9860788111948193,2.687321901321411,0.6691067983202814
0,,sub_119,2024-07-26 16:27:28,3,distance,cathedral,numerosity_judgement,3,12,6,countries_forward,"['_Oman_', '_Cuba_', '_Mali_', '_Britain_', '_Togo_', '_Tonga_']","['m', 'm', 'm', 'f', 'm', 'f']","['p229', 'p318', 'p256', 'p248', 'p307', 'p245']","[10, 3, 4, 9, 8, 5]","[93.00003341222717, 89.14911522239515, 89.31368318402099, 92.00610777531934, 92.0152836843556, 90.34149293193902]",3.0,False,8.5,2.8809720581775866,2.6873209476470947,0.7045851776188855
0,,sub_119,2024-07-26 16:27:33,3,distance,cathedral,numerosity_judgement,3,13,2,countries_forward,"['_Japan_', '_Sudan_']","['f', 'm']","['p245', 'p256']","[3, 9]","[89.14911522239515, 92.00610777531934]",2.0,True,8.0,4.242640687119285,2.999799966812134,0.7871751220065827
0,,sub_119,2024-07-26 16:27:37,3,distance,cathedral,numerosity_judgement,3,14,5,countries_forward,"['_Britain_', '_Tonga_', '_Oman_', '_Mali_', '_Peru_']","['f', 'f', 'm', 'm', 'f']","['p284', 'p245', 'p318', 'p307', 'p268']","[4, 9, 3, 7, 6]","[89.31368318402099, 92.00610777531934, 89.14911522239515, 91.73820004985969, 91.58892582949886]",3.0,False,7.8,2.3874672772626644,2.6248831748962402,0.767438429236182
0,,sub_119,2024-07-26 16:27:41,3,distance,cathedral,numerosity_judgement,3,15,4,countries_forward,"['_Mali_', '_Tonga_', '_Congo_', '_Yemen_']","['f', 'm', 'f', 'm']","['p268', 'p307', 'p248', 'p256']","[4, 6, 0, 10]","[89.31368318402099, 91.58892582949886, 84.40078082039426, 93.00003341222717]",3.0,False,7.0,4.163331998932265,2.0623717308044434,0.7335376234252639
0,,sub_119,2024-07-26 16:27:46,3,distance,cathedral,numerosity_judgement,3,16,5,countries_forward,"['_Oman_', '_Peru_', '_Tonga_', '_Yemen_', '_Togo_']","['f', 'm', 'f', 'f', 'f']","['p248', 'p307', 'p268', 'p245', 'p284']","[1, 4, 7, 9, 6]","[86.2038576498559, 89.31368318402099, 91.73820004985969, 92.00610777531934, 91.58892582949886]",3.0,False,7.4,3.0495901363953815,2.687321424484253,0.8461582113267506
0,,sub_119,2024-07-26 16:27:52,3,distance,cathedral,numerosity_judgement,3,17,6,countries_forward,"['_Oman_', '_Togo_', '_Sudan_', '_Tonga_', '_Yemen_', '_Mali_']","['m', 'f', 'f', 'm', 'm', 'f']","['p256', 'p284', 'p245', 'p318', 'p307', 'p268']","[1, 3, 0, 6, 4, 10]","[86.2038576498559, 89.14911522239515, 84.40078082039426, 91.58892582949886, 89.31368318402099, 93.00003341222717]",3.0,False,6.0,3.63318042491699,3.9997339248657227,0.8944841675178754
0,,sub_119,2024-07-26 16:27:56,3,distance,cathedral,numerosity_judgement,3,18,3,countries_forward,"['_Togo_', '_Sudan_', '_Japan_']","['f', 'f', 'f']","['p245', 'p268', 'p248']","[3, 2, 6]","[89.14911522239515, 87.57049330475357, 91.58892582949886]",3.0,True,5.666666666666667,2.0816659994661326,2.6248252391815186,0.9025990239473386
0,,sub_119,2024-07-26 16:27:59,3,distance,cathedral,numerosity_judgement,3,19,2,countries_forward,"['_Cuba_', '_Yemen_']","['m', 'm']","['p229', 'p256']","[6, 5]","[91.58892582949886, 90.34149293193902]",2.0,True,7.5,0.7071067811865476,2.0623624324798584,0.651946430598116
0,,sub_119,2024-07-26 16:28:03,3,distance,cathedral,numerosity_judgement,3,20,3,countries_forward,"['_Syria_', '_Sudan_', '_Congo_']","['m', 'f', 'f']","['p307', 'p284', 'p268']","[0, 9, 10]","[84.40078082039426, 92.00610777531934, 93.00003341222717]",3.0,True,8.333333333333334,5.507570547286102,1.9998669624328613,0.9338894563613664
0,,sub_119,2024-07-26 16:28:07,3,distance,cathedral,numerosity_judgement,3,21,6,countries_forward,"['_Mali_', '_Syria_', '_Yemen_', '_Togo_', '_Japan_', '_Cuba_']","['f', 'f', 'm', 'f', 'm', 'f']","['p245', 'p268', 'p229', 'p248', 'p318', 'p284']","[8, 10, 2, 4, 3, 5]","[92.0152836843556, 93.00003341222717, 87.57049330475357, 89.31368318402099, 89.14911522239515, 90.34149293193902]",2.0,False,7.333333333333333,3.0767948691238205,2.3123459815979004,0.9340369992055384
0,,sub_119,2024-07-26 16:28:13,3,distance,cathedral,numerosity_judgement,3,22,2,countries_forward,"['_Cuba_', '_Belgium_']","['m', 'm']","['p307', 'p229']","[7, 9]","[91.73820004985969, 92.00610777531934]",3.0,False,10.0,1.4142135623730951,4.562196493148804,0.695959595959596
0,,sub_119,2024-07-26 16:28:17,3,distance,cathedral,numerosity_judgement,3,23,5,countries_forward,"['_Yemen_', '_Oman_', '_Peru_', '_Mali_', '_Congo_']","['m', 'm', 'f', 'f', 'm']","['p256', 'p307', 'p268', 'p248', 'p229']","[7, 5, 4, 0, 9]","[91.73820004985969, 90.34149293193902, 89.31368318402099, 84.40078082039426, 92.00610777531934]",2.0,False,7.0,3.391164991562634,1.6874151229858398,0.6961865849506299
0,,sub_119,2024-07-26 16:28:21,3,distance,cathedral,numerosity_judgement,3,24,4,countries_forward,"['_Britain_', '_Yemen_', '_Japan_', '_Togo_']","['m', 'm', 'm', 'f']","['p307', 'p229', 'p256', 'p284']","[0, 3, 2, 6]","[84.40078082039426, 89.14911522239515, 87.57049330475357, 91.58892582949886]",3.0,False,4.75,2.5,1.8748762607574463,0.869197593916695
0,,sub_119,2024-07-26 16:28:24,3,distance,cathedral,numerosity_judgement,3,25,5,countries_forward,"['_Sudan_', '_Cuba_', '_Yemen_', '_Britain_', '_Togo_']","['m', 'f', 'm', 'f', 'f']","['p256', 'p268', 'p318', 'p245', 'p248']","[10, 3, 8, 5, 0]","[93.00003341222717, 89.14911522239515, 92.0152836843556, 90.34149293193902, 84.40078082039426]",3.0,False,7.2,3.96232255123179,2.0623629093170166,0.7197253433208489
0,,sub_119,2024-07-26 16:28:28,3,distance,cathedral,numerosity_judgement,3,26,4,countries_forward,"['_Yemen_', '_Britain_', '_Cuba_', '_Congo_']","['m', 'f', 'f', 'f']","['p229', 'p248', 'p245', 'p268']","[10, 0, 6, 1]","[93.00003341222717, 84.40078082039426, 91.58892582949886, 86.2038576498559]",3.0,False,6.25,4.645786621588784,1.6873881816864014,0.8231301781863579
0,,sub_119,2024-07-26 16:28:31,3,distance,cathedral,numerosity_judgement,3,27,2,countries_forward,"['_Mali_', '_Oman_']","['m', 'm']","['p307', 'p256']","[5, 7]","[90.34149293193902, 91.73820004985969]",2.0,True,8.0,1.4142135623730951,1.8748481273651123,0.5621949835432981
0,,sub_119,2024-07-26 16:28:35,3,distance,cathedral,numerosity_judgement,3,28,3,countries_forward,"['_Britain_', '_Yemen_', '_Tonga_']","['m', 'f', 'f']","['p318', 'p268', 'p245']","[2, 6, 4]","[87.57049330475357, 91.58892582949886, 89.31368318402099]",3.0,True,6.0,2.0,2.128391981124878,0.6490069231642266
0,,sub_119,2024-07-26 16:28:38,3,distance,cathedral,numerosity_judgement,3,29,6,countries_forward,"['_Cuba_', '_Yemen_', '_Tonga_', '_Oman_', '_Togo_', '_Sudan_']","['f', 'm', 'f', 'm', 'f', 'm']","['p268', 'p307', 'p284', 'p229', 'p248', 'p256']","[3, 9, 0, 8, 5, 7]","[89.14911522239515, 92.00610777531934, 84.40078082039426, 92.0152836843556, 90.34149293193902, 91.73820004985969]",3.0,False,7.333333333333333,3.3862466931200785,1.3124151229858398,0.7728975144705482
0,,sub_119,2024-07-26 16:28:43,3,distance,cathedral,numerosity_judgement,3,30,3,countries_forward,"['_Oman_', '_Britain_', '_Yemen_']","['m', 'm', 'f']","['p229', 'p256', 'p248']","[7, 8, 3]","[91.73820004985969, 92.0152836843556, 89.14911522239515]",2.0,False,8.0,2.6457513110645907,2.6873207092285156,0.616956077630235
0,,sub_119,2024-07-26 16:28:46,3,distance,cathedral,numerosity_judgement,3,31,4,countries_forward,"['_Britain_', '_Mali_', '_Peru_', '_Oman_']","['f', 'f', 'm', 'm']","['p268', 'p248', 'p318', 'p229']","[0, 4, 1, 3]","[84.40078082039426, 89.31368318402099, 86.2038576498559, 89.14911522239515]",3.0,False,4.0,1.8257418583505538,1.4999001026153564,0.6887413460447168
0,,sub_119,2024-07-26 16:28:52,3,distance,cathedral,numerosity_judgement,3,32,6,countries_forward,"['_Congo_', '_Tonga_', '_Cuba_', '_Peru_', '_Mali_', '_Japan_']","['f', 'f', 'm', 'f', 'm', 'm']","['p245', 'p248', 'p307', 'p268', 'p229', 'p256']","[2, 10, 5, 3, 4, 0]","[87.57049330475357, 93.00003341222717, 90.34149293193902, 89.14911522239515, 89.31368318402099, 84.40078082039426]",3.0,False,6.0,3.40587727318528,4.62469220161438,0.7471115650890932
0,,sub_119,2024-07-26 16:28:56,3,distance,cathedral,numerosity_judgement,3,33,5,countries_forward,"['_Oman_', '_Belgium_', '_Cuba_', '_Yemen_', '_Mali_']","['f', 'f', 'f', 'm', 'm']","['p248', 'p245', 'p284', 'p229', 'p307']","[6, 1, 8, 7, 10]","[91.58892582949886, 86.2038576498559, 92.0152836843556, 91.73820004985969, 93.00003341222717]",3.0,False,8.4,3.361547262794322,1.9998669624328613,0.8046986721144025
0,,sub_119,2024-07-26 16:29:00,3,distance,cathedral,numerosity_judgement,3,34,2,countries_forward,"['_Oman_', '_Togo_']","['m', 'f']","['p318', 'p248']","[9, 2]","[92.00610777531934, 87.57049330475357]",2.0,True,7.5,4.949747468305833,2.0623626708984375,0.8056974236749518
0,,sub_119,2024-07-26 16:29:05,3,distance,cathedral,numerosity_judgement,3,35,6,countries_forward,"['_Oman_', '_Britain_', '_Cuba_', '_Togo_', '_Congo_', '_Sudan_']","['m', 'm', 'f', 'f', 'm', 'f']","['p256', 'p318', 'p248', 'p268', 'p229', 'p245']","[3, 8, 5, 1, 4, 7]","[89.14911522239515, 92.0152836843556, 90.34149293193902, 86.2038576498559, 89.31368318402099, 91.73820004985969]",2.0,False,6.666666666666667,2.581988897471611,3.1247925758361816,0.7881511746680286
0,,sub_119,2024-07-26 16:29:08,3,distance,cathedral,numerosity_judgement,3,36,3,countries_forward,"['_Cuba_', '_Congo_', '_Mali_']","['m', 'f', 'f']","['p256', 'p268', 'p248']","[10, 4, 1]","[93.00003341222717, 89.31368318402099, 86.2038576498559]",3.0,True,7.0,4.58257569495584,1.7498164176940918,0.7471910112359551
0,,sub_119,2024-07-26 16:29:12,3,distance,cathedral,numerosity_judgement,3,37,4,countries_forward,"['_Peru_', '_Cuba_', '_Oman_', '_Japan_']","['m', 'f', 'm', 'm']","['p229', 'p245', 'p318', 'p256']","[8, 5, 3, 1]","[92.0152836843556, 90.34149293193902, 89.14911522239515, 86.2038576498559]",3.0,False,6.25,2.9860788111948193,1.9373691082000732,0.7471569628872999
0,,sub_119,2024-07-26 16:29:17,3,distance,cathedral,numerosity_judgement,3,38,5,countries_forward,"['_Tonga_', '_Sudan_', '_Yemen_', '_Peru_', '_Japan_']","['f', 'f', 'm', 'f', 'f']","['p284', 'p268', 'p256', 'p248', 'p245']","[8, 9, 0, 10, 1]","[92.0152836843556, 92.00610777531934, 84.40078082039426, 93.00003341222717, 86.2038576498559]",3.0,False,7.6,4.722287581247038,2.687321186065674,0.9513222108727728
0,,sub_119,2024-07-26 16:29:20,3,distance,cathedral,numerosity_judgement,3,39,2,countries_forward,"['_Cuba_', '_Belgium_']","['f', 'f']","['p284', 'p248']","[0, 5]","[84.40078082039426, 90.34149293193902]",3.0,False,4.5,3.5355339059327378,1.6873860359191895,0.8735330836454432
0,,sub_119,2024-07-26 16:29:26,3,distance,cathedral,numerosity_judgement,3,40,3,countries_forward,"['_Oman_', '_Congo_', '_Yemen_']","['m', 'm', 'f']","['p256', 'p307', 'p268']","[2, 6, 8]","[87.57049330475357, 91.58892582949886, 92.0152836843556]",3.0,True,7.333333333333333,3.0550504633038935,4.187222003936768,0.6719782090568608
0,,sub_119,2024-07-26 16:29:29,3,distance,cathedral,numerosity_judgement,3,41,6,countries_forward,"['_Sudan_', '_Japan_', '_Togo_', '_Tonga_', '_Oman_', '_Belgium_']","['m', 'f', 'f', 'm', 'f', 'm']","['p229', 'p284', 'p268', 'p307', 'p245', 'p318']","[6, 3, 10, 2, 7, 8]","[91.58892582949886, 89.14911522239515, 93.00003341222717, 87.57049330475357, 91.73820004985969, 92.0152836843556]",3.0,False,8.0,3.03315017762062,1.8123795986175537,0.9202020202020202
0,,sub_119,2024-07-26 16:29:33,3,distance,cathedral,numerosity_judgement,3,42,5,countries_forward,"['_Britain_', '_Japan_', '_Peru_', '_Sudan_', '_Syria_']","['f', 'm', 'f', 'm', 'f']","['p268', 'p307', 'p284', 'p229', 'p248']","[0, 5, 6, 1, 7]","[84.40078082039426, 90.34149293193902, 91.58892582949886, 86.2038576498559, 91.73820004985969]",3.0,False,5.8,3.1144823004794877,1.874875545501709,0.8978436045851776
0,,sub_119,2024-07-26 16:29:37,3,distance,cathedral,numerosity_judgement,3,43,2,countries_forward,"['_Britain_', '_Mali_']","['f', 'm']","['p245', 'p229']","[0, 8]","[84.40078082039426, 92.0152836843556]",2.0,True,6.0,5.656854249492381,2.062426805496216,0.8379979570990806
0,,sub_119,2024-07-26 16:29:40,3,distance,cathedral,numerosity_judgement,3,44,4,countries_forward,"['_Belgium_', '_Sudan_', '_Peru_', '_Yemen_']","['m', 'f', 'f', 'f']","['p256', 'p245', 'p284', 'p268']","[1, 6, 5, 0]","[86.2038576498559, 91.58892582949886, 90.34149293193902, 84.40078082039426]",3.0,False,5.0,2.943920288775949,1.8748750686645508,0.9419248666439678
0,,sub_119,2024-07-26 16:29:45,3,distance,cathedral,numerosity_judgement,3,45,3,countries_forward,"['_Britain_', '_Yemen_', '_Tonga_']","['f', 'm', 'f']","['p248', 'p256', 'p268']","[4, 6, 0]","[89.31368318402099, 91.58892582949886, 84.40078082039426]",2.0,False,5.333333333333333,3.0550504633038935,2.5623302459716797,0.858495062989445
0,,sub_119,2024-07-26 16:29:48,3,distance,cathedral,numerosity_judgement,3,46,5,countries_forward,"['_Belgium_', '_Yemen_', '_Togo_', '_Oman_', '_Cuba_']","['f', 'm', 'f', 'm', 'f']","['p268', 'p256', 'p248', 'p318', 'p245']","[4, 6, 2, 0, 5]","[89.31368318402099, 91.58892582949886, 87.57049330475357, 84.40078082039426, 90.34149293193902]",3.0,False,5.4,2.4083189157584592,1.6873879432678223,0.8221654749744637
0,,sub_119,2024-07-26 16:29:54,3,distance,cathedral,numerosity_judgement,3,47,6,countries_forward,"['_Congo_', '_Tonga_', '_Cuba_', '_Peru_', '_Mali_', '_Belgium_']","['f', 'm', 'f', 'm', 'm', 'f']","['p284', 'p307', 'p248', 'p229', 'p318', 'p268']","[7, 9, 1, 3, 5, 10]","[91.73820004985969, 92.00610777531934, 86.2038576498559, 89.14911522239515, 90.34149293193902, 93.00003341222717]",3.0,False,7.833333333333333,3.488074922742725,4.187224388122559,0.9613210759278176
0,,sub_119,2024-07-26 16:29:58,3,distance,cathedral,numerosity_judgement,3,48,4,countries_forward,"['_Cuba_', '_Tonga_', '_Yemen_', '_Peru_']","['m', 'f', 'm', 'f']","['p307', 'p248', 'p318', 'p245']","[8, 1, 3, 9]","[92.0152836843556, 86.2038576498559, 89.14911522239515, 92.00610777531934]",3.0,False,7.25,3.8622100754188224,1.4999010562896729,0.7704914311655885
0,,sub_119,2024-07-26 16:30:01,3,distance,cathedral,numerosity_judgement,3,49,2,countries_forward,"['_Sudan_', '_Peru_']","['f', 'f']","['p284', 'p268']","[10, 1]","[93.00003341222717, 86.2038576498559]",2.0,True,7.5,6.363961030678928,1.8123795986175537,0.9585972080354104
0,,sub_119,2024-07-26 16:30:06,3,distance,cathedral,numerosity_judgement,3,50,6,countries_forward,"['_Japan_', '_Belgium_', '_Congo_', '_Syria_', '_Britain_', '_Peru_']","['m', 'f', 'm', 'm', 'f', 'm']","['p307', 'p284', 'p318', 'p256', 'p248', 'p229']","[0, 1, 10, 6, 5, 7]","[84.40078082039426, 86.2038576498559, 93.00003341222717, 91.58892582949886, 90.34149293193902, 91.73820004985969]",3.0,False,6.833333333333333,3.763863263545405,3.3122825622558594,0.9011576438542732
0,,sub_119,2024-07-26 16:30:13,3,distance,cathedral,numerosity_judgement,3,51,4,countries_forward,"['_Togo_', '_Japan_', '_Oman_', '_Britain_']","['m', 'f', 'm', 'f']","['p307', 'p248', 'p256', 'p268']","[9, 3, 8, 4]","[92.00610777531934, 89.14911522239515, 92.0152836843556, 89.31368318402099]",2.0,False,8.0,2.943920288775949,4.937170028686523,0.7994892747701736
0,,sub_119,2024-07-26 16:30:16,3,distance,cathedral,numerosity_judgement,3,52,3,countries_forward,"['_Britain_', '_Mali_', '_Cuba_']","['f', 'm', 'f']","['p268', 'p256', 'p248']","[9, 10, 4]","[92.00610777531934, 93.00003341222717, 89.31368318402099]",3.0,True,9.666666666666666,3.214550253664318,1.3749079704284668,0.7901146294404722
0,,sub_119,2024-07-26 16:30:19,3,distance,cathedral,numerosity_judgement,3,53,2,countries_forward,"['_Oman_', '_Britain_']","['f', 'm']","['p245', 'p256']","[0, 10]","[84.40078082039426, 93.00003341222717]",3.0,False,7.0,7.0710678118654755,1.5624592304229736,0.7448416751787539
0,,sub_119,2024-07-26 16:30:23,3,distance,cathedral,numerosity_judgement,3,54,5,countries_forward,"['_Yemen_', '_Togo_', '_Cuba_', '_Congo_', '_Britain_']","['f', 'm', 'f', 'f', 'm']","['p248', 'p229', 'p268', 'p284', 'p318']","[4, 7, 10, 0, 9]","[89.31368318402099, 91.73820004985969, 93.00003341222717, 84.40078082039426, 92.00610777531934]",4.0,False,8.0,4.06201920231798,1.8123281002044678,0.79371240494836
0,,sub_119,2024-07-26 16:30:26,3,distance,cathedral,numerosity_judgement,3,55,3,countries_forward,"['_Belgium_', '_Japan_', '_Britain_']","['m', 'm', 'f']","['p318', 'p229', 'p268']","[5, 1, 6]","[90.34149293193902, 86.2038576498559, 91.58892582949886]",3.0,True,6.0,2.6457513110645907,1.6873879432678223,0.9257745999319033
0,,sub_119,2024-07-26 16:30:29,3,distance,cathedral,numerosity_judgement,3,56,2,countries_forward,"['_Yemen_', '_Britain_']","['m', 'f']","['p229', 'p268']","[7, 2]","[91.73820004985969, 87.57049330475357]",3.0,False,6.5,3.5355339059327378,1.4999001026153564,0.7494495516967427
0,,sub_119,2024-07-26 16:30:33,3,distance,cathedral,numerosity_judgement,3,57,4,countries_forward,"['_Cuba_', '_Sudan_', '_Congo_', '_Belgium_']","['m', 'f', 'm', 'm']","['p307', 'p245', 'p318', 'p256']","[3, 2, 1, 8]","[89.14911522239515, 87.57049330475357, 86.2038576498559, 92.0152836843556]",3.0,False,5.5,3.1091263510296048,2.187354803085327,0.914708886618999
0,,sub_119,2024-07-26 16:30:37,3,distance,cathedral,numerosity_judgement,3,58,5,countries_forward,"['_Togo_', '_Japan_', '_Yemen_', '_Tonga_', '_Sudan_']","['m', 'f', 'f', 'f', 'm']","['p307', 'p284', 'p248', 'p245', 'p318']","[2, 3, 9, 10, 5]","[87.57049330475357, 89.14911522239515, 92.00610777531934, 93.00003341222717, 90.34149293193902]",2.0,False,7.8,3.5637059362410923,2.62475848197937,0.8583702190443764
0,,sub_119,2024-07-26 16:30:43,3,distance,cathedral,numerosity_judgement,3,59,6,countries_forward,"['_Syria_', '_Mali_', '_Peru_', '_Togo_', '_Oman_', '_Tonga_']","['m', 'm', 'f', 'f', 'f', 'm']","['p307', 'p256', 'p284', 'p245', 'p268', 'p318']","[7, 4, 2, 8, 5, 10]","[91.73820004985969, 89.31368318402099, 87.57049330475357, 92.0152836843556, 90.34149293193902, 93.00003341222717]",4.0,False,8.0,2.898275349237888,3.4998269081115723,0.8257632504823516
0,,sub_119,2024-07-26 16:30:46,3,distance,cathedral,numerosity_judgement,3,60,3,countries_forward,"['_Tonga_', '_Togo_', '_Yemen_']","['m', 'f', 'm']","['p307', 'p268', 'p229']","[5, 3, 4]","[90.34149293193902, 89.14911522239515, 89.31368318402099]",3.0,True,6.0,1.0,1.7498829364776611,0.7210078311201906
0,,sub_119,2024-07-26 16:30:50,3,distance,cathedral,numerosity_judgement,3,61,6,countries_forward,"['_Yemen_', '_Tonga_', '_Britain_', '_Oman_', '_Japan_', '_Cuba_']","['f', 'm', 'f', 'm', 'f', 'f']","['p248', 'p256', 'p284', 'p307', 'p245', 'p268']","[6, 4, 5, 8, 7, 3]","[91.58892582949886, 89.31368318402099, 90.34149293193902, 92.0152836843556, 91.73820004985969, 89.14911522239515]",4.0,False,7.5,1.8708286933869707,1.6873893737792969,0.758120531154239
0,,sub_119,2024-07-26 16:30:54,3,distance,cathedral,numerosity_judgement,3,62,4,countries_forward,"['_Cuba_', '_Yemen_', '_Congo_', '_Oman_']","['m', 'f', 'f', 'f']","['p307', 'p268', 'p245', 'p248']","[7, 8, 4, 3]","[91.73820004985969, 92.0152836843556, 89.31368318402099, 89.14911522239515]",3.0,False,7.5,2.3804761428476167,2.2498505115509033,0.629043241402792
0,,sub_119,2024-07-26 16:30:58,3,distance,cathedral,numerosity_judgement,3,63,5,countries_forward,"['_Oman_', '_Tonga_', '_Togo_', '_Yemen_', '_Japan_']","['m', 'm', 'm', 'f', 'f']","['p229', 'p307', 'p256', 'p245', 'p248']","[10, 5, 4, 9, 0]","[93.00003341222717, 90.34149293193902, 89.31368318402099, 92.00610777531934, 84.40078082039426]",3.0,False,7.6,4.03732584763727,1.937370777130127,0.7124730450573147
0,,sub_119,2024-07-26 16:31:02,3,distance,cathedral,numerosity_judgement,3,64,2,countries_forward,"['_Yemen_', '_Sudan_']","['f', 'f']","['p245', 'p268']","[5, 6]","[90.34149293193902, 91.58892582949886]",3.0,False,7.5,0.7071067811865476,2.8748347759246826,0.908307797071842
0,,sub_119,2024-07-26 16:31:06,3,distance,cathedral,numerosity_judgement,3,65,5,countries_forward,"['_Yemen_', '_Congo_', '_Sudan_', '_Togo_', '_Mali_']","['f', 'm', 'f', 'f', 'm']","['p284', 'p307', 'p268', 'p248', 'p229']","[1, 10, 9, 3, 7]","[86.2038576498559, 93.00003341222717, 92.00610777531934, 89.14911522239515, 91.73820004985969]",3.0,False,8.0,3.872983346207417,2.18735408782959,0.9325842696629212
0,,sub_119,2024-07-26 16:31:09,3,distance,cathedral,numerosity_judgement,3,66,4,countries_forward,"['_Britain_', '_Cuba_', '_Belgium_', '_Yemen_']","['m', 'f', 'm', 'm']","['p318', 'p245', 'p229', 'p256']","[8, 7, 0, 10]","[92.0152836843556, 91.73820004985969, 84.40078082039426, 93.00003341222717]",4.0,True,8.25,4.349329450233296,1.3124110698699951,0.707524685052775
0,,sub_119,2024-07-26 16:31:14,3,distance,cathedral,numerosity_judgement,3,67,3,countries_forward,"['_Togo_', '_Cuba_', '_Yemen_']","['f', 'm', 'm']","['p245', 'p307', 'p318']","[8, 7, 9]","[92.0152836843556, 91.73820004985969, 92.00610777531934]",4.0,False,10.0,1.0,3.6247591972351074,0.7026103733968903
0,,sub_119,2024-07-26 16:31:18,3,distance,cathedral,numerosity_judgement,3,68,6,countries_forward,"['_Sudan_', '_Tonga_', '_Oman_', '_Peru_', '_Mali_', '_Cuba_']","['f', 'm', 'm', 'f', 'm', 'm']","['p245', 'p229', 'p256', 'p284', 'p307', 'p318']","[7, 2, 8, 6, 4, 5]","[91.73820004985969, 87.57049330475357, 92.0152836843556, 91.58892582949886, 89.31368318402099, 90.34149293193902]",3.0,False,7.333333333333333,2.160246899469287,1.4374041557312012,0.8063670411985019
0,,sub_119,2024-07-26 16:31:21,3,distance,cathedral,numerosity_judgement,3,69,2,countries_forward,"['_Oman_', '_Yemen_']","['m', 'f']","['p307', 'p245']","[6, 10]","[91.58892582949886, 93.00003341222717]",2.0,True,10.0,2.8284271247461903,1.5623960494995117,0.5938372488934287
0,,sub_119,2024-07-26 16:31:24,3,distance,cathedral,numerosity_judgement,3,70,4,countries_forward,"['_Belgium_', '_Congo_', '_Syria_', '_Britain_']","['m', 'm', 'f', 'm']","['p229', 'p307', 'p248', 'p256']","[2, 0, 4, 1]","[87.57049330475357, 84.40078082039426, 89.31368318402099, 86.2038576498559]",3.0,False,3.75,1.707825127659933,1.6248915195465088,0.9548064918851435
0,,sub_119,2024-07-26 16:31:28,3,distance,cathedral,numerosity_judgement,3,71,6,countries_forward,"['_Cuba_', '_Britain_', '_Congo_', '_Togo_', '_Tonga_', '_Mali_']","['f', 'm', 'm', 'f', 'f', 'm']","['p248', 'p318', 'p256', 'p245', 'p284', 'p229']","[1, 3, 6, 8, 0, 5]","[86.2038576498559, 89.14911522239515, 91.58892582949886, 92.0152836843556, 84.40078082039426, 90.34149293193902]",3.0,False,5.833333333333333,3.0605010483034745,1.562394380569458,0.8546249006923164
0,,sub_119,2024-07-26 16:31:31,3,distance,cathedral,numerosity_judgement,3,72,3,countries_forward,"['_Japan_', '_Cuba_', '_Congo_']","['f', 'm', 'f']","['p245', 'p307', 'p248']","[1, 7, 4]","[86.2038576498559, 91.73820004985969, 89.31368318402099]",2.0,False,6.0,3.0,2.1248579025268555,0.7699239586880037
0,,sub_119,2024-07-26 16:31:36,3,distance,cathedral,numerosity_judgement,3,73,5,countries_forward,"['_Britain_', '_Tonga_', '_Cuba_', '_Syria_', '_Oman_']","['f', 'f', 'm', 'f', 'f']","['p284', 'p248', 'p256', 'p268', 'p245']","[10, 4, 2, 1, 0]","[93.00003341222717, 89.31368318402099, 87.57049330475357, 86.2038576498559, 84.40078082039426]",2.0,False,5.4,3.9749213828703582,2.562265396118164,0.930280331403927
0,,sub_119,2024-07-26 16:31:40,3,distance,cathedral,numerosity_judgement,3,74,2,countries_forward,"['_Congo_', '_Oman_']","['m', 'f']","['p256', 'p245']","[5, 10]","[90.34149293193902, 93.00003341222717]",2.0,True,9.5,3.5355339059327378,3.1872875690460205,0.6212234706616729
0,,sub_119,2024-07-26 16:32:28,3,distance,cathedral,numerosity_judgement,4,0,4,countries_forward,"['_Oman_', '_Togo_', '_Tonga_', '_Yemen_']","['m', 'f', 'm', 'm']","['p307', 'p248', 'p318', 'p229']","[4, 1, 2, 10]","[89.31368318402099, 86.2038576498559, 87.57049330475357, 93.00003341222717]",3.0,False,6.25,4.031128874149275,1.24991774559021,0.7110089660651459
0,,sub_119,2024-07-26 16:32:32,3,distance,cathedral,numerosity_judgement,4,1,6,countries_forward,"['_Yemen_', '_Cuba_', '_Mali_', '_Congo_', '_Oman_', '_Sudan_']","['f', 'm', 'f', 'f', 'm', 'm']","['p248', 'p318', 'p284', 'p245', 'p307', 'p256']","[6, 10, 1, 9, 4, 5]","[91.58892582949886, 93.00003341222717, 86.2038576498559, 92.00610777531934, 89.31368318402099, 90.34149293193902]",4.0,False,7.833333333333333,3.3115957885386114,1.7498829364776611,0.7979911474293496
0,,sub_119,2024-07-26 16:32:35,3,distance,cathedral,numerosity_judgement,4,2,5,countries_forward,"['_Congo_', '_Belgium_', '_Togo_', '_Peru_', '_Japan_']","['f', 'm', 'm', 'm', 'm']","['p284', 'p307', 'p256', 'p318', 'p229']","[6, 0, 10, 1, 9]","[91.58892582949886, 84.40078082039426, 93.00003341222717, 86.2038576498559, 92.00610777531934]",3.0,False,7.2,4.54972526643093,1.249915599822998,0.9234025649755988
0,,sub_119,2024-07-26 16:32:38,3,distance,cathedral,numerosity_judgement,4,3,3,countries_forward,"['_Tonga_', '_Yemen_', '_Oman_']","['m', 'f', 'm']","['p256', 'p284', 'p318']","[5, 10, 8]","[90.34149293193902, 93.00003341222717, 92.0152836843556]",3.0,True,9.666666666666666,2.516611478423583,1.8748729228973389,0.7796504369538078
0,,sub_119,2024-07-26 16:32:42,3,distance,cathedral,numerosity_judgement,4,4,2,countries_forward,"['_Togo_', '_Oman_']","['f', 'f']","['p284', 'p245']","[1, 0]","[86.2038576498559, 84.40078082039426]",2.0,True,2.5,0.7071067811865476,2.0623602867126465,0.8961752355010782
0,,sub_119,2024-07-26 16:32:45,3,distance,cathedral,numerosity_judgement,4,5,6,countries_forward,"['_Tonga_', '_Congo_', '_Japan_', '_Mali_', '_Oman_', '_Peru_']","['m', 'm', 'm', 'f', 'f', 'f']","['p307', 'p318', 'p229', 'p248', 'p245', 'p268']","[9, 1, 6, 8, 4, 7]","[92.00610777531934, 86.2038576498559, 91.58892582949886, 92.0152836843556, 89.31368318402099, 91.73820004985969]",3.0,False,7.833333333333333,2.9268868558020253,1.2499151229858398,0.7821019180569743
0,,sub_119,2024-07-26 16:32:49,3,distance,cathedral,numerosity_judgement,4,6,3,countries_forward,"['_Britain_', '_Oman_', '_Mali_']","['m', 'f', 'f']","['p307', 'p248', 'p268']","[3, 5, 4]","[89.14911522239515, 90.34149293193902, 89.31368318402099]",3.0,True,6.0,1.0,2.249847173690796,0.6821359664056293
0,,sub_119,2024-07-26 16:32:52,3,distance,cathedral,numerosity_judgement,4,7,4,countries_forward,"['_Britain_', '_Syria_', '_Mali_', '_Togo_']","['m', 'f', 'm', 'm']","['p229', 'p284', 'p256', 'p318']","[0, 3, 1, 6]","[84.40078082039426, 89.14911522239515, 86.2038576498559, 91.58892582949886]",3.0,False,4.5,2.6457513110645907,1.1874196529388428,0.9544433094994892
0,,sub_119,2024-07-26 16:32:55,3,distance,cathedral,numerosity_judgement,4,8,5,countries_forward,"['_Cuba_', '_Mali_', '_Britain_', '_Tonga_', '_Oman_']","['m', 'f', 'm', 'm', 'f']","['p229', 'p245', 'p256', 'p307', 'p284']","[9, 5, 7, 10, 6]","[92.00610777531934, 90.34149293193902, 91.73820004985969, 93.00003341222717, 91.58892582949886]",3.0,False,9.4,2.073644135332772,1.2499089241027832,0.729531267733515
0,,sub_119,2024-07-26 16:32:59,3,distance,cathedral,numerosity_judgement,4,9,2,countries_forward,"['_Japan_', '_Cuba_']","['m', 'f']","['p229', 'p268']","[6, 8]","[91.58892582949886, 92.0152836843556]",3.0,False,9.0,1.4142135623730951,2.2498486042022705,0.7978776529338327
0,,sub_119,2024-07-26 16:33:02,3,distance,cathedral,numerosity_judgement,4,10,6,countries_forward,"['_Cuba_', '_Congo_', '_Tonga_', '_Sudan_', '_Peru_', '_Mali_']","['m', 'm', 'f', 'f', 'm', 'm']","['p256', 'p307', 'p248', 'p245', 'p229', 'p318']","[3, 7, 5, 8, 0, 6]","[89.14911522239515, 91.73820004985969, 90.34149293193902, 92.0152836843556, 84.40078082039426, 91.58892582949886]",3.0,False,6.833333333333333,2.9268868558020253,1.4998996257781982,0.917966178640336
0,,sub_119,2024-07-26 16:33:05,3,distance,cathedral,numerosity_judgement,4,11,5,countries_forward,"['_Oman_', '_Cuba_', '_Togo_', '_Yemen_', '_Congo_']","['f', 'f', 'm', 'm', 'm']","['p284', 'p268', 'p307', 'p256', 'p318']","[1, 10, 4, 3, 7]","[86.2038576498559, 93.00003341222717, 89.31368318402099, 89.14911522239515, 91.73820004985969]",3.0,False,7.0,3.5355339059327378,1.3749077320098877,0.6794347974123255
0,,sub_119,2024-07-26 16:33:10,3,distance,cathedral,numerosity_judgement,4,12,2,countries_forward,"['_Britain_', '_Japan_']","['f', 'f']","['p284', 'p245']","[8, 9]","[92.0152836843556, 92.00610777531934]",2.0,True,10.5,0.7071067811865476,3.2497806549072266,0.8482692089433662
0,,sub_119,2024-07-26 16:33:14,3,distance,cathedral,numerosity_judgement,4,13,3,countries_forward,"['_Tonga_', '_Togo_', '_Yemen_']","['m', 'm', 'f']","['p229', 'p318', 'p248']","[4, 0, 6]","[89.31368318402099, 84.40078082039426, 91.58892582949886]",2.0,False,5.333333333333333,3.0550504633038935,2.3123443126678467,0.8264442174554534
0,,sub_119,2024-07-26 16:33:17,3,distance,cathedral,numerosity_judgement,4,14,4,countries_forward,"['_Cuba_', '_Syria_', '_Yemen_', '_Sudan_']","['m', 'f', 'm', 'm']","['p229', 'p245', 'p318', 'p307']","[8, 10, 2, 9]","[92.0152836843556, 93.00003341222717, 87.57049330475357, 92.00610777531934]",3.0,False,9.25,3.593976442141304,1.5623948574066162,0.8312904324140279
0,,sub_119,2024-07-26 16:33:20,3,distance,cathedral,numerosity_judgement,4,15,5,countries_forward,"['_Yemen_', '_Belgium_', '_Britain_', '_Oman_', '_Tonga_']","['m', 'm', 'm', 'f', 'f']","['p229', 'p256', 'p307', 'p245', 'p248']","[5, 9, 3, 10, 2]","[90.34149293193902, 92.00610777531934, 89.14911522239515, 93.00003341222717, 87.57049330475357]",3.0,False,7.8,3.5637059362410923,1.1248836517333984,0.7539893315174214
0,,sub_119,2024-07-26 16:33:24,3,distance,cathedral,numerosity_judgement,4,16,2,countries_forward,"['_Cuba_', '_Yemen_']","['f', 'm']","['p284', 'p318']","[10, 9]","[93.00003341222717, 92.00610777531934]",3.0,False,11.5,0.7071067811865476,2.0623607635498047,0.8306208148904778
0,,sub_119,2024-07-26 16:33:28,3,distance,cathedral,numerosity_judgement,4,17,4,countries_forward,"['_Mali_', '_Yemen_', '_Peru_', '_Britain_']","['m', 'f', 'm', 'm']","['p256', 'p268', 'p229', 'p318']","[3, 8, 7, 0]","[89.14911522239515, 92.0152836843556, 91.73820004985969, 84.40078082039426]",3.0,False,6.5,3.696845502136472,2.749768018722534,0.7392123482011123
0,,sub_119,2024-07-26 16:33:32,3,distance,cathedral,numerosity_judgement,4,18,6,countries_forward,"['_Yemen_', '_Tonga_', '_Congo_', '_Japan_', '_Oman_', '_Sudan_']","['m', 'f', 'm', 'f', 'm', 'm']","['p229', 'p248', 'p318', 'p284', 'p256', 'p307']","[2, 7, 5, 1, 4, 10]","[87.57049330475357, 91.73820004985969, 90.34149293193902, 86.2038576498559, 89.31368318402099, 93.00003341222717]",3.0,False,6.833333333333333,3.3115957885386114,2.0623605251312256,0.8587787992282374
0,,sub_119,2024-07-26 16:33:36,3,distance,cathedral,numerosity_judgement,4,19,3,countries_forward,"['_Oman_', '_Peru_', '_Britain_']","['m', 'f', 'm']","['p256', 'p268', 'p318']","[10, 4, 3]","[93.00003341222717, 89.31368318402099, 89.14911522239515]",3.0,True,7.666666666666667,3.7859388972001824,1.624892234802246,0.6588241970264442
0,,sub_119,2024-07-26 16:33:41,3,distance,cathedral,numerosity_judgement,4,20,4,countries_forward,"['_Congo_', '_Cuba_', '_Japan_', '_Belgium_']","['m', 'f', 'f', 'f']","['p318', 'p248', 'p245', 'p284']","[2, 0, 10, 9]","[87.57049330475357, 84.40078082039426, 93.00003341222717, 92.00610777531934]",3.0,False,7.25,4.9916597106239795,3.6872522830963135,0.9176143457042334
0,,sub_119,2024-07-26 16:33:45,3,distance,cathedral,numerosity_judgement,4,21,6,countries_forward,"['_Togo_', '_Sudan_', '_Belgium_', '_Peru_', '_Cuba_', '_Yemen_']","['m', 'f', 'm', 'f', 'f', 'f']","['p318', 'p284', 'p307', 'p268', 'p248', 'p245']","[6, 5, 3, 7, 9, 1]","[91.58892582949886, 90.34149293193902, 89.14911522239515, 91.73820004985969, 92.00610777531934, 86.2038576498559]",3.0,False,7.166666666666667,2.857738033247041,2.1873526573181152,0.9055498808307796
0,,sub_119,2024-07-26 16:33:50,3,distance,cathedral,numerosity_judgement,4,22,2,countries_forward,"['_Yemen_', '_Oman_']","['m', 'm']","['p307', 'p256']","[1, 8]","[86.2038576498559, 92.0152836843556]",2.0,True,6.5,4.949747468305833,3.124788999557495,0.7372148450800137
0,,sub_119,2024-07-26 16:33:58,3,distance,cathedral,numerosity_judgement,4,23,5,countries_forward,"['_Peru_', '_Syria_', '_Belgium_', '_Togo_', '_Tonga_']","['m', 'f', 'f', 'm', 'm']","['p256', 'p268', 'p284', 'p307', 'p229']","[2, 10, 3, 6, 8]","[87.57049330475357, 93.00003341222717, 89.14911522239515, 91.58892582949886, 92.0152836843556]",3.0,False,7.8,3.3466401061363023,5.937099933624268,0.9351151969129498
0,,sub_119,2024-07-26 16:34:02,3,distance,cathedral,numerosity_judgement,4,24,3,countries_forward,"['_Peru_', '_Yemen_', '_Oman_']","['m', 'm', 'm']","['p307', 'p256', 'p229']","[3, 1, 10]","[89.14911522239515, 86.2038576498559, 93.00003341222717]",2.0,False,6.666666666666667,4.725815626252608,2.562326192855835,0.6106230847803882
0,,sub_119,2024-07-26 16:34:05,3,distance,cathedral,numerosity_judgement,4,25,5,countries_forward,"['_Peru_', '_Oman_', '_Togo_', '_Cuba_', '_Yemen_']","['f', 'm', 'f', 'm', 'f']","['p268', 'p229', 'p245', 'p318', 'p284']","[6, 5, 2, 9, 3]","[91.58892582949886, 90.34149293193902, 87.57049330475357, 92.00610777531934, 89.14911522239515]",3.0,False,7.0,2.7386127875258306,1.562394618988037,0.7732493474066507
0,,sub_119,2024-07-26 16:34:08,3,distance,cathedral,numerosity_judgement,4,26,4,countries_forward,"['_Japan_', '_Togo_', '_Mali_', '_Congo_']","['m', 'f', 'm', 'f']","['p229', 'p245', 'p307', 'p248']","[7, 6, 10, 0]","[91.73820004985969, 91.58892582949886, 93.00003341222717, 84.40078082039426]",3.0,False,7.75,4.193248541803041,1.18747878074646,0.8929519918283964
0,,sub_119,2024-07-26 16:34:12,3,distance,cathedral,numerosity_judgement,4,27,6,countries_forward,"['_Japan_', '_Togo_', '_Cuba_', '_Yemen_', '_Oman_', '_Sudan_']","['m', 'm', 'm', 'f', 'f', 'm']","['p318', 'p307', 'p229', 'p284', 'p268', 'p256']","[4, 1, 10, 9, 3, 5]","[89.31368318402099, 86.2038576498559, 93.00003341222717, 92.00610777531934, 89.14911522239515, 90.34149293193902]",3.0,False,7.333333333333333,3.5023801430836525,1.7498815059661865,0.7420951083872432
0,,sub_119,2024-07-26 16:34:16,3,distance,cathedral,numerosity_judgement,4,28,2,countries_forward,"['_Congo_', '_Yemen_']","['m', 'm']","['p307', 'p318']","[6, 0]","[91.58892582949886, 84.40078082039426]",2.0,True,5.0,4.242640687119285,2.4373362064361572,0.7728521166723414
0,,sub_119,2024-07-26 16:34:19,3,distance,cathedral,numerosity_judgement,4,29,3,countries_forward,"['_Cuba_', '_Sudan_', '_Belgium_']","['m', 'm', 'f']","['p229', 'p318', 'p268']","[0, 6, 3]","[84.40078082039426, 91.58892582949886, 89.14911522239515]",3.0,True,5.0,3.0,1.0624282360076904,0.8892861196231983
0,,sub_119,2024-07-26 16:34:21,3,distance,cathedral,numerosity_judgement,4,30,2,countries_forward,"['_Oman_', '_Cuba_']","['m', 'f']","['p307', 'p245']","[5, 4]","[90.34149293193902, 89.31368318402099]",3.0,False,6.5,0.7071067811865476,1.3749346733093262,0.6801611621836341
0,,sub_119,2024-07-26 16:34:26,3,distance,cathedral,numerosity_judgement,4,31,3,countries_forward,"['_Togo_', '_Syria_', '_Peru_']","['m', 'm', 'f']","['p318', 'p256', 'p268']","[4, 5, 6]","[89.31368318402099, 90.34149293193902, 91.58892582949886]",2.0,False,7.0,1.0,2.5623292922973633,0.791692202928158
