event_id,timestamp,subject_id,session_index,plane,setup,task,block,trial_index,headpose_offset_azi,headpose_offset_ele,target_number,target_filename,target_talker,target_sex,target_speaker_id,step_number:,distance_masker,distance_target,target_speaker_proc,target_speaker_chan,target_speaker_azi,target_speaker_ele,target_speaker_dist,target_stim_level,masker_filename,masker_speaker_id,masker_speaker_proc,masker_speaker_chan,masker_speaker_azi,masker_speaker_ele,masker_speaker_dist,masker_stim_level,normalisation_method,normalisation_level_masker,normalisation_level_target,played_number,resp_number,is_correct,reaction_time
,2024-07-30 15:43:49,sub_115,3,distance,cathedral,spatial_unmasking,1,0,0,0,_four_,talker-p248_sex-f_text-_four_.wav,p248,f,5,1,7.0,7.0,RX81,6,0.0,0.0,7.0,92.34149293193902,babble-reversed_n13_p318-three-p229-one-p256-eight-p245-five-p248-four-p284-nine.wav,5,RX81,6,0.0,0.0,7.0,90.34149293193904,mgb_normalisation,90.34149293193902,90.34149293193902,4,4.0,True,1.3067221641540527
,2024-07-30 15:43:53,sub_115,3,distance,cathedral,spatial_unmasking,1,1,0,0,_three_,talker-p248_sex-f_text-_three_.wav,p248,f,5,2,7.0,7.0,RX81,6,0.0,0.0,7.0,88.34149293193902,babble-reversed_n13_p229-eight-p256-nine-p318-four-p245-three-p268-five-p284-two.wav,5,RX81,6,0.0,0.0,7.0,90.341492931939,mgb_normalisation,90.34149293193902,90.34149293193902,3,3.0,True,0.999011754989624
,2024-07-30 15:43:57,sub_115,3,distance,cathedral,spatial_unmasking,1,2,0,0,_four_,talker-p248_sex-f_text-_four_.wav,p248,f,5,3,7.0,7.0,RX81,6,0.0,0.0,7.0,84.341492931939,babble-reversed_n13_p229-one-p318-eight-p256-three-p268-two-p245-five-p248-nine.wav,5,RX81,6,0.0,0.0,7.0,90.341492931939,mgb_normalisation,90.34149293193902,90.34149293193902,4,1.0,False,1.749878168106079
,2024-07-30 15:44:00,sub_115,3,distance,cathedral,spatial_unmasking,1,3,0,0,_five_,talker-p248_sex-f_text-_five_.wav,p248,f,5,4,7.0,7.0,RX81,6,0.0,0.0,7.0,86.341492931939,babble-reversed_n13_p318-nine-p307-eight-p229-two-p284-one-p248-three-p245-five.wav,5,RX81,6,0.0,0.0,7.0,90.34149293193904,mgb_normalisation,90.34149293193902,90.34149293193902,5,5.0,True,1.18741774559021
,2024-07-30 15:44:04,sub_115,3,distance,cathedral,spatial_unmasking,1,4,0,0,_five_,talker-p248_sex-f_text-_five_.wav,p248,f,5,5,7.0,7.0,RX81,6,0.0,0.0,7.0,86.341492931939,babble-reversed_n13_p229-one-p318-eight-p256-three-p268-nine-p248-five-p284-four.wav,5,RX81,6,0.0,0.0,7.0,90.341492931939,mgb_normalisation,90.34149293193902,90.34149293193902,5,5.0,True,0.999208927154541
,2024-07-30 15:44:07,sub_115,3,distance,cathedral,spatial_unmasking,1,5,0,0,_nine_,talker-p248_sex-f_text-_nine_.wav,p248,f,5,6,7.0,7.0,RX81,6,0.0,0.0,7.0,84.341492931939,babble-reversed_n13_p229-nine-p318-one-p307-two-p248-eight-p245-five-p284-four.wav,5,RX81,6,0.0,0.0,7.0,90.34149293193904,mgb_normalisation,90.34149293193902,90.34149293193902,9,9.0,True,1.0624258518218994
,2024-07-30 15:44:12,sub_115,3,distance,cathedral,spatial_unmasking,1,6,0,0,_one_,talker-p248_sex-f_text-_one_.wav,p248,f,5,7,7.0,7.0,RX81,6,0.0,0.0,7.0,84.34149293193903,babble-reversed_n13_p229-nine-p307-five-p256-two-p248-three-p245-one-p268-eight.wav,5,RX81,6,0.0,0.0,7.0,90.34149293193904,mgb_normalisation,90.34149293193902,90.34149293193902,1,8.0,False,3.062044858932495
,2024-07-30 15:44:16,sub_115,3,distance,cathedral,spatial_unmasking,1,7,0,0,_one_,talker-p248_sex-f_text-_one_.wav,p248,f,5,8,7.0,7.0,RX81,6,0.0,0.0,7.0,85.34149293193903,babble-reversed_n13_p256-eight-p318-five-p307-four-p245-three-p268-one-p284-nine.wav,5,RX81,6,0.0,0.0,7.0,90.341492931939,mgb_normalisation,90.34149293193902,90.34149293193902,1,1.0,True,0.9999303817749025
,2024-07-30 15:44:20,sub_115,3,distance,cathedral,spatial_unmasking,1,8,0,0,_two_,talker-p248_sex-f_text-_two_.wav,p248,f,5,9,7.0,7.0,RX81,6,0.0,0.0,7.0,85.34149293193903,babble-reversed_n13_p256-eight-p229-three-p307-nine-p245-five-p248-four-p268-two.wav,5,RX81,6,0.0,0.0,7.0,90.341492931939,mgb_normalisation,90.34149293193902,90.34149293193902,2,2.0,True,1.8014888763427728
,2024-07-30 15:44:24,sub_115,3,distance,cathedral,spatial_unmasking,1,9,0,0,_eight_,talker-p248_sex-f_text-_eight_.wav,p248,f,5,10,7.0,7.0,RX81,6,0.0,0.0,7.0,84.34149293193903,babble-reversed_n13_p229-two-p318-eight-p256-three-p268-one-p248-nine-p284-five.wav,5,RX81,6,0.0,0.0,7.0,90.341492931939,mgb_normalisation,90.34149293193902,90.34149293193902,8,8.0,True,1.6871559619903564
,2024-07-30 15:44:27,sub_115,3,distance,cathedral,spatial_unmasking,1,10,0,0,_three_,talker-p248_sex-f_text-_three_.wav,p248,f,5,11,7.0,7.0,RX81,6,0.0,0.0,7.0,84.341492931939,babble-reversed_n13_p229-five-p318-three-p307-two-p245-four-p284-nine-p248-eight.wav,5,RX81,6,0.0,0.0,7.0,90.34149293193904,mgb_normalisation,90.34149293193902,90.34149293193902,3,3.0,True,1.062427282333374
,2024-07-30 15:44:31,sub_115,3,distance,cathedral,spatial_unmasking,1,11,0,0,_nine_,talker-p248_sex-f_text-_nine_.wav,p248,f,5,12,7.0,7.0,RX81,6,0.0,0.0,7.0,83.34149293193902,babble-reversed_n13_p256-five-p229-one-p318-three-p248-nine-p284-eight-p268-two.wav,5,RX81,6,0.0,0.0,7.0,90.34149293193904,mgb_normalisation,90.34149293193902,90.34149293193902,9,9.0,True,0.9999258518218994
,2024-07-30 15:44:34,sub_115,3,distance,cathedral,spatial_unmasking,1,12,0,0,_six_,talker-p248_sex-f_text-_six_.wav,p248,f,5,13,7.0,7.0,RX81,6,0.0,0.0,7.0,83.34149293193902,babble-reversed_n13_p229-five-p318-two-p307-eight-p268-three-p248-four-p245-one.wav,5,RX81,6,0.0,0.0,7.0,90.34149293193904,mgb_normalisation,90.34149293193902,90.34149293193902,6,6.0,True,1.0632953643798828
,2024-07-30 15:44:37,sub_115,3,distance,cathedral,spatial_unmasking,1,13,0,0,_two_,talker-p248_sex-f_text-_two_.wav,p248,f,5,14,7.0,7.0,RX81,6,0.0,0.0,7.0,82.34149293193902,babble-reversed_n13_p307-nine-p229-one-p256-eight-p248-four-p284-two-p268-three.wav,5,RX81,6,0.0,0.0,7.0,90.34149293193904,mgb_normalisation,90.34149293193902,90.34149293193902,2,2.0,True,1.124131441116333
,2024-07-30 15:44:41,sub_115,3,distance,cathedral,spatial_unmasking,1,14,0,0,_four_,talker-p248_sex-f_text-_four_.wav,p248,f,5,15,7.0,7.0,RX81,6,0.0,0.0,7.0,82.34149293193902,babble-reversed_n13_p256-two-p307-five-p318-nine-p248-eight-p245-four-p284-one.wav,5,RX81,6,0.0,0.0,7.0,90.34149293193904,mgb_normalisation,90.34149293193902,90.34149293193902,4,1.0,False,1.624886989593506
,2024-07-30 15:44:45,sub_115,3,distance,cathedral,spatial_unmasking,1,15,0,0,_six_,talker-p248_sex-f_text-_six_.wav,p248,f,5,16,7.0,7.0,RX81,6,0.0,0.0,7.0,83.34149293193902,babble-reversed_n13_p318-nine-p256-five-p307-eight-p268-three-p248-one-p245-four.wav,5,RX81,6,0.0,0.0,7.0,90.34149293193904,mgb_normalisation,90.34149293193902,90.34149293193902,6,6.0,True,1.062425136566162
,2024-07-30 15:44:48,sub_115,3,distance,cathedral,spatial_unmasking,1,16,0,0,_four_,talker-p248_sex-f_text-_four_.wav,p248,f,5,17,7.0,7.0,RX81,6,0.0,0.0,7.0,83.34149293193902,babble-reversed_n13_p229-two-p256-three-p318-eight-p284-five-p268-four-p245-one.wav,5,RX81,6,0.0,0.0,7.0,90.34149293193904,mgb_normalisation,90.34149293193902,90.34149293193902,4,4.0,True,1.4371943473815918
,2024-07-30 15:44:52,sub_115,3,distance,cathedral,spatial_unmasking,1,17,0,0,_two_,talker-p248_sex-f_text-_two_.wav,p248,f,5,18,7.0,7.0,RX81,6,0.0,0.0,7.0,82.34149293193902,babble-reversed_n13_p229-nine-p256-four-p318-three-p268-eight-p248-two-p284-five.wav,5,RX81,6,0.0,0.0,7.0,90.34149293193904,mgb_normalisation,90.34149293193902,90.34149293193902,2,2.0,True,1.6855885982513428
,2024-07-30 15:44:56,sub_115,3,distance,cathedral,spatial_unmasking,1,18,0,0,_eight_,talker-p248_sex-f_text-_eight_.wav,p248,f,5,19,7.0,7.0,RX81,6,0.0,0.0,7.0,82.34149293193902,babble-reversed_n13_p307-five-p229-two-p318-four-p248-three-p245-nine-p268-eight.wav,5,RX81,6,0.0,0.0,7.0,90.341492931939,mgb_normalisation,90.34149293193902,90.34149293193902,8,3.0,False,1.1874184608459473
,2024-07-30 15:45:01,sub_115,3,distance,cathedral,spatial_unmasking,1,19,0,0,_eight_,talker-p248_sex-f_text-_eight_.wav,p248,f,5,20,7.0,7.0,RX81,6,0.0,0.0,7.0,83.34149293193902,babble-reversed_n13_p318-five-p229-three-p256-four-p268-eight-p248-one-p245-nine.wav,5,RX81,6,0.0,0.0,7.0,90.34149293193904,mgb_normalisation,90.34149293193902,90.34149293193902,8,4.0,False,2.4876744747161865
,2024-07-30 15:45:04,sub_115,3,distance,cathedral,spatial_unmasking,1,20,0,0,_six_,talker-p248_sex-f_text-_six_.wav,p248,f,5,21,7.0,7.0,RX81,6,0.0,0.0,7.0,84.341492931939,babble-reversed_n13_p229-nine-p307-five-p256-two-p248-three-p245-one-p268-eight.wav,5,RX81,6,0.0,0.0,7.0,90.34149293193904,mgb_normalisation,90.34149293193902,90.34149293193902,6,6.0,True,1.186235427856445
,2024-07-30 15:45:08,sub_115,3,distance,cathedral,spatial_unmasking,1,21,0,0,_two_,talker-p248_sex-f_text-_two_.wav,p248,f,5,22,7.0,7.0,RX81,6,0.0,0.0,7.0,84.34149293193903,babble-reversed_n13_p256-five-p307-nine-p318-three-p284-eight-p268-one-p248-two.wav,5,RX81,6,0.0,0.0,7.0,90.34149293193904,mgb_normalisation,90.34149293193902,90.34149293193902,2,2.0,True,1.4337546825408936
,2024-07-30 15:45:12,sub_115,3,distance,cathedral,spatial_unmasking,1,22,0,0,_four_,talker-p248_sex-f_text-_four_.wav,p248,f,5,23,7.0,7.0,RX81,6,0.0,0.0,7.0,83.34149293193902,babble-reversed_n13_p307-two-p229-one-p256-five-p248-nine-p284-three-p268-eight.wav,5,RX81,6,0.0,0.0,7.0,90.34149293193904,mgb_normalisation,90.34149293193902,90.34149293193902,4,4.0,True,1.374903440475464
,2024-07-30 15:45:15,sub_115,3,distance,cathedral,spatial_unmasking,1,23,0,0,_two_,talker-p248_sex-f_text-_two_.wav,p248,f,5,24,7.0,7.0,RX81,6,0.0,0.0,7.0,83.34149293193903,babble-reversed_n13_p229-one-p318-eight-p256-three-p268-two-p245-five-p248-nine.wav,5,RX81,6,0.0,0.0,7.0,90.341492931939,mgb_normalisation,90.34149293193902,90.34149293193902,2,2.0,True,1.249913454055786
,2024-07-30 15:45:18,sub_115,3,distance,cathedral,spatial_unmasking,1,24,0,0,_three_,talker-p248_sex-f_text-_three_.wav,p248,f,5,25,7.0,7.0,RX81,6,0.0,0.0,7.0,82.34149293193902,babble-reversed_n13_p256-two-p307-five-p318-nine-p248-eight-p245-four-p284-one.wav,5,RX81,6,0.0,0.0,7.0,90.34149293193904,mgb_normalisation,90.34149293193902,90.34149293193902,3,3.0,True,1.0008690357208252
,2024-07-30 15:45:22,sub_115,3,distance,cathedral,spatial_unmasking,1,25,0,0,_four_,talker-p248_sex-f_text-_four_.wav,p248,f,5,26,7.0,7.0,RX81,6,0.0,0.0,7.0,82.34149293193902,babble-reversed_n13_p256-nine-p307-four-p229-one-p284-three-p248-two-p245-five.wav,5,RX81,6,0.0,0.0,7.0,90.34149293193904,mgb_normalisation,90.34149293193902,90.34149293193902,4,1.0,False,1.6878392696380615
,2024-07-30 15:45:26,sub_115,3,distance,cathedral,spatial_unmasking,1,26,0,0,_eight_,talker-p248_sex-f_text-_eight_.wav,p248,f,5,27,7.0,7.0,RX81,6,0.0,0.0,7.0,83.34149293193902,babble-reversed_n13_p256-four-p307-eight-p318-two-p248-three-p284-nine-p268-one.wav,5,RX81,6,0.0,0.0,7.0,90.34149293193904,mgb_normalisation,90.34149293193902,90.34149293193902,8,3.0,False,1.4373998641967771
,2024-07-30 15:45:30,sub_115,3,distance,cathedral,spatial_unmasking,1,27,0,0,_six_,talker-p248_sex-f_text-_six_.wav,p248,f,5,28,7.0,7.0,RX81,6,0.0,0.0,7.0,84.341492931939,babble-reversed_n13_p256-eight-p318-five-p307-four-p245-three-p268-one-p284-nine.wav,5,RX81,6,0.0,0.0,7.0,90.341492931939,mgb_normalisation,90.34149293193902,90.34149293193902,6,6.0,True,1.0624260902404783
,2024-07-30 15:45:33,sub_115,3,distance,cathedral,spatial_unmasking,1,28,0,0,_five_,talker-p248_sex-f_text-_five_.wav,p248,f,5,29,7.0,7.0,RX81,6,0.0,0.0,7.0,84.341492931939,babble-reversed_n13_p229-three-p256-one-p307-two-p284-eight-p268-five-p248-nine.wav,5,RX81,6,0.0,0.0,7.0,90.34149293193904,mgb_normalisation,90.34149293193902,90.34149293193902,5,5.0,True,1.2499375343322754
,2024-07-30 15:45:37,sub_115,3,distance,cathedral,spatial_unmasking,1,29,0,0,_two_,talker-p248_sex-f_text-_two_.wav,p248,f,5,30,7.0,7.0,RX81,6,0.0,0.0,7.0,83.34149293193903,babble-reversed_n13_p318-nine-p307-eight-p229-two-p284-one-p248-three-p245-five.wav,5,RX81,6,0.0,0.0,7.0,90.34149293193904,mgb_normalisation,90.34149293193902,90.34149293193902,2,2.0,True,1.4374003410339355
,2024-07-30 15:45:40,sub_115,3,distance,cathedral,spatial_unmasking,1,30,0,0,_one_,talker-p248_sex-f_text-_one_.wav,p248,f,5,31,7.0,7.0,RX81,6,0.0,0.0,7.0,83.34149293193903,babble-reversed_n13_p229-one-p318-nine-p256-four-p284-eight-p268-five-p245-two.wav,5,RX81,6,0.0,0.0,7.0,90.34149293193904,mgb_normalisation,90.34149293193902,90.34149293193902,1,1.0,True,0.874941349029541
,2024-07-30 15:45:44,sub_115,3,distance,cathedral,spatial_unmasking,1,31,0,0,_eight_,talker-p248_sex-f_text-_eight_.wav,p248,f,5,32,7.0,7.0,RX81,6,0.0,0.0,7.0,82.34149293193902,babble-reversed_n13_p229-eight-p256-nine-p318-four-p245-three-p268-five-p284-two.wav,5,RX81,6,0.0,0.0,7.0,90.341492931939,mgb_normalisation,90.34149293193902,90.34149293193902,8,3.0,False,2.062818765640259
,2024-07-30 15:45:48,sub_115,3,distance,cathedral,spatial_unmasking,1,32,0,0,_six_,talker-p248_sex-f_text-_six_.wav,p248,f,5,33,7.0,7.0,RX81,6,0.0,0.0,7.0,83.34149293193902,babble-reversed_n13_p229-three-p256-nine-p318-five-p248-one-p245-eight-p284-two.wav,5,RX81,6,0.0,0.0,7.0,90.34149293193904,mgb_normalisation,90.34149293193902,90.34149293193902,6,6.0,True,1.1257939338684082
,2024-07-30 15:45:51,sub_115,3,distance,cathedral,spatial_unmasking,1,33,0,0,_one_,talker-p248_sex-f_text-_one_.wav,p248,f,5,34,7.0,7.0,RX81,6,0.0,0.0,7.0,83.34149293193903,babble-reversed_n13_p256-two-p307-five-p318-nine-p248-eight-p245-four-p284-one.wav,5,RX81,6,0.0,0.0,7.0,90.34149293193904,mgb_normalisation,90.34149293193902,90.34149293193902,1,1.0,True,1.1874186992645264
,2024-07-30 15:47:18,sub_115,3,distance,cathedral,spatial_unmasking,2,34,0,0,_eight_,talker-p248_sex-f_text-_eight_.wav,p248,f,5,1,8.0,7.0,RX81,6,0.0,0.0,7.0,92.34149293193902,babble-reversed_n13_p307-one-p318-five-p229-four-p268-eight-p284-two-p245-three.wav,6,RX81,7,0.0,0.0,8.0,91.58892582949886,mgb_normalisation,91.58892582949886,90.34149293193902,8,8.0,True,1.4370367527008057
,2024-07-30 15:47:22,sub_115,3,distance,cathedral,spatial_unmasking,2,35,0,0,_two_,talker-p248_sex-f_text-_two_.wav,p248,f,5,2,8.0,7.0,RX81,6,0.0,0.0,7.0,88.34149293193903,babble-reversed_n13_p229-one-p318-eight-p256-three-p268-two-p245-five-p248-nine.wav,6,RX81,7,0.0,0.0,8.0,91.58892582949886,mgb_normalisation,91.58892582949886,90.34149293193902,2,2.0,True,1.4998955726623535
,2024-07-30 15:47:26,sub_115,3,distance,cathedral,spatial_unmasking,2,36,0,0,_two_,talker-p248_sex-f_text-_two_.wav,p248,f,5,3,8.0,7.0,RX81,6,0.0,0.0,7.0,84.34149293193903,babble-reversed_n13_p256-nine-p307-four-p229-one-p284-three-p248-two-p245-five.wav,6,RX81,7,0.0,0.0,8.0,91.58892582949888,mgb_normalisation,91.58892582949886,90.34149293193902,2,2.0,True,1.312408685684204
,2024-07-30 15:47:30,sub_115,3,distance,cathedral,spatial_unmasking,2,37,0,0,_four_,talker-p248_sex-f_text-_four_.wav,p248,f,5,4,8.0,7.0,RX81,6,0.0,0.0,7.0,80.341492931939,babble-reversed_n13_p256-four-p307-eight-p318-two-p248-three-p284-nine-p268-one.wav,6,RX81,7,0.0,0.0,8.0,91.58892582949888,mgb_normalisation,91.58892582949886,90.34149293193902,4,3.0,False,1.6253416538238523
,2024-07-30 15:47:34,sub_115,3,distance,cathedral,spatial_unmasking,2,38,0,0,_eight_,talker-p248_sex-f_text-_eight_.wav,p248,f,5,5,8.0,7.0,RX81,6,0.0,0.0,7.0,82.34149293193902,babble-reversed_n13_p307-nine-p229-one-p256-eight-p248-four-p284-two-p268-three.wav,6,RX81,7,0.0,0.0,8.0,91.58892582949888,mgb_normalisation,91.58892582949886,90.34149293193902,8,8.0,True,1.5636966228485107
,2024-07-30 15:47:38,sub_115,3,distance,cathedral,spatial_unmasking,2,39,0,0,_nine_,talker-p248_sex-f_text-_nine_.wav,p248,f,5,6,8.0,7.0,RX81,6,0.0,0.0,7.0,82.34149293193902,babble-reversed_n13_p229-five-p318-three-p307-two-p245-four-p284-nine-p248-eight.wav,6,RX81,7,0.0,0.0,8.0,91.58892582949886,mgb_normalisation,91.58892582949886,90.34149293193902,9,9.0,True,1.1878721714019775
,2024-07-30 15:47:42,sub_115,3,distance,cathedral,spatial_unmasking,2,40,0,0,_six_,talker-p248_sex-f_text-_six_.wav,p248,f,5,7,8.0,7.0,RX81,6,0.0,0.0,7.0,80.34149293193903,babble-reversed_n13_p229-three-p256-nine-p318-five-p248-one-p245-eight-p284-two.wav,6,RX81,7,0.0,0.0,8.0,91.58892582949888,mgb_normalisation,91.58892582949886,90.34149293193902,6,9.0,False,1.7498791217803955
,2024-07-30 15:47:46,sub_115,3,distance,cathedral,spatial_unmasking,2,41,0,0,_four_,talker-p248_sex-f_text-_four_.wav,p248,f,5,8,8.0,7.0,RX81,6,0.0,0.0,7.0,81.341492931939,babble-reversed_n13_p307-one-p318-five-p229-four-p268-eight-p284-two-p245-three.wav,6,RX81,7,0.0,0.0,8.0,91.58892582949886,mgb_normalisation,91.58892582949886,90.34149293193902,4,4.0,True,1.2499117851257324
,2024-07-30 15:47:49,sub_115,3,distance,cathedral,spatial_unmasking,2,42,0,0,_eight_,talker-p248_sex-f_text-_eight_.wav,p248,f,5,9,8.0,7.0,RX81,6,0.0,0.0,7.0,81.34149293193902,babble-reversed_n13_p229-three-p307-one-p318-two-p245-eight-p268-five-p284-four.wav,6,RX81,7,0.0,0.0,8.0,91.58892582949888,mgb_normalisation,91.58892582949886,90.34149293193902,8,8.0,True,1.189774513244629
,2024-07-30 15:47:53,sub_115,3,distance,cathedral,spatial_unmasking,2,43,0,0,_two_,talker-p248_sex-f_text-_two_.wav,p248,f,5,10,8.0,7.0,RX81,6,0.0,0.0,7.0,80.34149293193903,babble-reversed_n13_p318-five-p256-nine-p307-eight-p248-two-p245-four-p284-three.wav,6,RX81,7,0.0,0.0,8.0,91.58892582949886,mgb_normalisation,91.58892582949886,90.34149293193902,2,2.0,True,1.4988985061645508
,2024-07-30 15:47:57,sub_115,3,distance,cathedral,spatial_unmasking,2,44,0,0,_two_,talker-p248_sex-f_text-_two_.wav,p248,f,5,11,8.0,7.0,RX81,6,0.0,0.0,7.0,80.34149293193903,babble-reversed_n13_p256-two-p307-five-p318-nine-p248-eight-p245-four-p284-one.wav,6,RX81,7,0.0,0.0,8.0,91.58892582949888,mgb_normalisation,91.58892582949886,90.34149293193902,2,2.0,True,1.4373998641967771
,2024-07-30 15:48:01,sub_115,3,distance,cathedral,spatial_unmasking,2,45,0,0,_two_,talker-p248_sex-f_text-_two_.wav,p248,f,5,12,8.0,7.0,RX81,6,0.0,0.0,7.0,79.34149293193902,babble-reversed_n13_p307-five-p229-three-p318-nine-p245-four-p268-eight-p284-two.wav,6,RX81,7,0.0,0.0,8.0,91.58892582949886,mgb_normalisation,91.58892582949886,90.34149293193902,2,2.0,True,2.062355756759644
,2024-07-30 15:48:05,sub_115,3,distance,cathedral,spatial_unmasking,2,46,0,0,_three_,talker-p248_sex-f_text-_three_.wav,p248,f,5,13,8.0,7.0,RX81,6,0.0,0.0,7.0,79.341492931939,babble-reversed_n13_p307-nine-p229-one-p256-eight-p248-four-p284-two-p268-three.wav,6,RX81,7,0.0,0.0,8.0,91.58892582949888,mgb_normalisation,91.58892582949886,90.34149293193902,3,3.0,True,1.3749041557312012
,2024-07-30 15:48:10,sub_115,3,distance,cathedral,spatial_unmasking,2,47,0,0,_three_,talker-p248_sex-f_text-_three_.wav,p248,f,5,14,8.0,7.0,RX81,6,0.0,0.0,7.0,78.34149293193902,babble-reversed_n13_p229-five-p256-one-p318-three-p248-nine-p268-four-p284-eight.wav,6,RX81,7,0.0,0.0,8.0,91.58892582949886,mgb_normalisation,91.58892582949886,90.34149293193902,3,9.0,False,2.172413825988769
,2024-07-30 15:48:13,sub_115,3,distance,cathedral,spatial_unmasking,2,48,0,0,_four_,talker-p248_sex-f_text-_four_.wav,p248,f,5,15,8.0,7.0,RX81,6,0.0,0.0,7.0,79.341492931939,babble-reversed_n13_p307-one-p318-five-p229-four-p268-eight-p284-two-p245-three.wav,6,RX81,7,0.0,0.0,8.0,91.58892582949886,mgb_normalisation,91.58892582949886,90.34149293193902,4,4.0,True,1.184657096862793
,2024-07-30 15:48:17,sub_115,3,distance,cathedral,spatial_unmasking,2,49,0,0,_three_,talker-p248_sex-f_text-_three_.wav,p248,f,5,16,8.0,7.0,RX81,6,0.0,0.0,7.0,79.341492931939,babble-reversed_n13_p318-five-p229-four-p256-eight-p284-one-p245-three-p248-two.wav,6,RX81,7,0.0,0.0,8.0,91.58892582949888,mgb_normalisation,91.58892582949886,90.34149293193902,3,3.0,True,1.1249220371246338
,2024-07-30 15:48:20,sub_115,3,distance,cathedral,spatial_unmasking,2,50,0,0,_four_,talker-p248_sex-f_text-_four_.wav,p248,f,5,17,8.0,7.0,RX81,6,0.0,0.0,7.0,78.34149293193902,babble-reversed_n13_p229-three-p256-one-p307-two-p284-eight-p268-five-p248-nine.wav,6,RX81,7,0.0,0.0,8.0,91.58892582949888,mgb_normalisation,91.58892582949886,90.34149293193902,4,4.0,True,1.2499127388000488
,2024-07-30 15:48:24,sub_115,3,distance,cathedral,spatial_unmasking,2,51,0,0,_five_,talker-p248_sex-f_text-_five_.wav,p248,f,5,18,8.0,7.0,RX81,6,0.0,0.0,7.0,78.341492931939,babble-reversed_n13_p318-nine-p256-five-p307-eight-p268-three-p248-one-p245-four.wav,6,RX81,7,0.0,0.0,8.0,91.58892582949888,mgb_normalisation,91.58892582949886,90.34149293193902,5,5.0,True,1.1242010593414309
,2024-07-30 15:48:28,sub_115,3,distance,cathedral,spatial_unmasking,2,52,0,0,_six_,talker-p248_sex-f_text-_six_.wav,p248,f,5,19,8.0,7.0,RX81,6,0.0,0.0,7.0,77.34149293193902,babble-reversed_n13_p318-five-p229-three-p256-four-p268-eight-p248-one-p245-nine.wav,6,RX81,7,0.0,0.0,8.0,91.58892582949888,mgb_normalisation,91.58892582949886,90.34149293193902,6,6.0,True,1.3124079704284668
,2024-07-30 15:48:32,sub_115,3,distance,cathedral,spatial_unmasking,2,53,0,0,_one_,talker-p248_sex-f_text-_one_.wav,p248,f,5,20,8.0,7.0,RX81,6,0.0,0.0,7.0,77.34149293193903,babble-reversed_n13_p318-five-p229-four-p256-eight-p284-one-p245-three-p248-two.wav,6,RX81,7,0.0,0.0,8.0,91.58892582949888,mgb_normalisation,91.58892582949886,90.34149293193902,1,1.0,True,1.9373655319213867
,2024-07-30 15:48:36,sub_115,3,distance,cathedral,spatial_unmasking,2,54,0,0,_three_,talker-p248_sex-f_text-_three_.wav,p248,f,5,21,8.0,7.0,RX81,6,0.0,0.0,7.0,76.34149293193902,babble-reversed_n13_p318-five-p256-nine-p307-two-p245-eight-p248-one-p284-four.wav,6,RX81,7,0.0,0.0,8.0,91.58892582949888,mgb_normalisation,91.58892582949886,90.34149293193902,3,3.0,True,1.249912977218628
,2024-07-30 15:48:40,sub_115,3,distance,cathedral,spatial_unmasking,2,55,0,0,_eight_,talker-p248_sex-f_text-_eight_.wav,p248,f,5,22,8.0,7.0,RX81,6,0.0,0.0,7.0,76.34149293193902,babble-reversed_n13_p229-three-p307-one-p318-two-p245-eight-p268-five-p284-four.wav,6,RX81,7,0.0,0.0,8.0,91.58892582949888,mgb_normalisation,91.58892582949886,90.34149293193902,8,8.0,True,2.2527787685394287
,2024-07-30 15:48:46,sub_115,3,distance,cathedral,spatial_unmasking,2,56,0,0,_four_,talker-p248_sex-f_text-_four_.wav,p248,f,5,23,8.0,7.0,RX81,6,0.0,0.0,7.0,75.34149293193902,babble-reversed_n13_p318-five-p256-nine-p307-two-p245-eight-p248-one-p284-four.wav,6,RX81,7,0.0,0.0,8.0,91.58892582949888,mgb_normalisation,91.58892582949886,90.34149293193902,4,4.0,True,3.3755433559417725
,2024-07-30 15:48:51,sub_115,3,distance,cathedral,spatial_unmasking,2,57,0,0,_three_,talker-p248_sex-f_text-_three_.wav,p248,f,5,24,8.0,7.0,RX81,6,0.0,0.0,7.0,75.34149293193902,babble-reversed_n13_p229-five-p318-two-p307-eight-p268-three-p248-four-p245-one.wav,6,RX81,7,0.0,0.0,8.0,91.58892582949888,mgb_normalisation,91.58892582949886,90.34149293193902,3,8.0,False,2.6244051456451416
,2024-07-30 15:48:56,sub_115,3,distance,cathedral,spatial_unmasking,2,58,0,0,_five_,talker-p248_sex-f_text-_five_.wav,p248,f,5,25,8.0,7.0,RX81,6,0.0,0.0,7.0,76.34149293193902,babble-reversed_n13_p256-four-p229-eight-p307-five-p248-three-p245-one-p284-two.wav,6,RX81,7,0.0,0.0,8.0,91.58892582949886,mgb_normalisation,91.58892582949886,90.34149293193902,5,5.0,True,3.002568244934082
,2024-07-30 15:49:01,sub_115,3,distance,cathedral,spatial_unmasking,2,59,0,0,_eight_,talker-p248_sex-f_text-_eight_.wav,p248,f,5,26,8.0,7.0,RX81,6,0.0,0.0,7.0,76.34149293193902,babble-reversed_n13_p229-two-p307-five-p318-four-p284-one-p248-nine-p268-eight.wav,6,RX81,7,0.0,0.0,8.0,91.58892582949888,mgb_normalisation,91.58892582949886,90.34149293193902,8,6.0,False,2.62483549118042
,2024-07-30 15:49:06,sub_115,3,distance,cathedral,spatial_unmasking,2,60,0,0,_eight_,talker-p248_sex-f_text-_eight_.wav,p248,f,5,27,8.0,7.0,RX81,6,0.0,0.0,7.0,77.34149293193903,babble-reversed_n13_p318-nine-p256-five-p307-eight-p268-three-p248-one-p245-four.wav,6,RX81,7,0.0,0.0,8.0,91.58892582949888,mgb_normalisation,91.58892582949886,90.34149293193902,8,4.0,False,1.6874456405639648
,2024-07-30 15:49:11,sub_115,3,distance,cathedral,spatial_unmasking,2,61,0,0,_five_,talker-p248_sex-f_text-_five_.wav,p248,f,5,28,8.0,7.0,RX81,6,0.0,0.0,7.0,78.341492931939,babble-reversed_n13_p307-four-p318-three-p256-eight-p284-two-p245-nine-p248-five.wav,6,RX81,7,0.0,0.0,8.0,91.58892582949886,mgb_normalisation,91.58892582949886,90.34149293193902,5,9.0,False,2.7490859031677246
,2024-07-30 15:49:14,sub_115,3,distance,cathedral,spatial_unmasking,2,62,0,0,_two_,talker-p248_sex-f_text-_two_.wav,p248,f,5,29,8.0,7.0,RX81,6,0.0,0.0,7.0,79.34149293193902,babble-reversed_n13_p229-two-p318-eight-p256-three-p268-one-p248-nine-p284-five.wav,6,RX81,7,0.0,0.0,8.0,91.58892582949886,mgb_normalisation,91.58892582949886,90.34149293193902,2,2.0,True,1.299612522125244
,2024-07-30 15:49:18,sub_115,3,distance,cathedral,spatial_unmasking,2,63,0,0,_five_,talker-p248_sex-f_text-_five_.wav,p248,f,5,30,8.0,7.0,RX81,6,0.0,0.0,7.0,79.341492931939,babble-reversed_n13_p318-five-p229-three-p256-four-p268-eight-p248-one-p245-nine.wav,6,RX81,7,0.0,0.0,8.0,91.58892582949888,mgb_normalisation,91.58892582949886,90.34149293193902,5,5.0,True,1.685377836227417
,2024-07-30 15:49:23,sub_115,3,distance,cathedral,spatial_unmasking,2,64,0,0,_one_,talker-p248_sex-f_text-_one_.wav,p248,f,5,31,8.0,7.0,RX81,6,0.0,0.0,7.0,78.34149293193902,babble-reversed_n13_p229-five-p256-one-p318-three-p248-nine-p268-four-p284-eight.wav,6,RX81,7,0.0,0.0,8.0,91.58892582949886,mgb_normalisation,91.58892582949886,90.34149293193902,1,4.0,False,2.3744378089904785
,2024-07-30 15:49:27,sub_115,3,distance,cathedral,spatial_unmasking,2,65,0,0,_three_,talker-p248_sex-f_text-_three_.wav,p248,f,5,32,8.0,7.0,RX81,6,0.0,0.0,7.0,79.341492931939,babble-reversed_n13_p229-one-p318-eight-p256-three-p268-nine-p248-five-p284-four.wav,6,RX81,7,0.0,0.0,8.0,91.58892582949886,mgb_normalisation,91.58892582949886,90.34149293193902,3,3.0,True,1.5623912811279297
,2024-07-30 15:49:31,sub_115,3,distance,cathedral,spatial_unmasking,2,66,0,0,_three_,talker-p248_sex-f_text-_three_.wav,p248,f,5,33,8.0,7.0,RX81,6,0.0,0.0,7.0,79.341492931939,babble-reversed_n13_p307-two-p256-four-p318-three-p284-eight-p248-five-p245-nine.wav,6,RX81,7,0.0,0.0,8.0,91.58892582949888,mgb_normalisation,91.58892582949886,90.34149293193902,3,3.0,True,1.249913454055786
,2024-07-30 15:49:34,sub_115,3,distance,cathedral,spatial_unmasking,2,67,0,0,_one_,talker-p248_sex-f_text-_one_.wav,p248,f,5,34,8.0,7.0,RX81,6,0.0,0.0,7.0,78.34149293193902,babble-reversed_n13_p318-five-p256-nine-p307-two-p245-eight-p248-one-p284-four.wav,6,RX81,7,0.0,0.0,8.0,91.58892582949888,mgb_normalisation,91.58892582949886,90.34149293193902,1,1.0,True,1.1881651878356934
,2024-07-30 15:49:38,sub_115,3,distance,cathedral,spatial_unmasking,2,68,0,0,_two_,talker-p248_sex-f_text-_two_.wav,p248,f,5,35,8.0,7.0,RX81,6,0.0,0.0,7.0,78.34149293193902,babble-reversed_n13_p318-five-p229-four-p256-eight-p284-one-p245-three-p248-two.wav,6,RX81,7,0.0,0.0,8.0,91.58892582949888,mgb_normalisation,91.58892582949886,90.34149293193902,2,2.0,True,1.374181032180786
,2024-07-30 15:49:44,sub_115,3,distance,cathedral,spatial_unmasking,2,69,0,0,_eight_,talker-p248_sex-f_text-_eight_.wav,p248,f,5,36,8.0,7.0,RX81,6,0.0,0.0,7.0,77.34149293193903,babble-reversed_n13_p256-eight-p318-five-p307-four-p245-three-p268-one-p284-nine.wav,6,RX81,7,0.0,0.0,8.0,91.58892582949886,mgb_normalisation,91.58892582949886,90.34149293193902,8,4.0,False,2.9337353706359863
,2024-07-30 15:49:47,sub_115,3,distance,cathedral,spatial_unmasking,2,70,0,0,_eight_,talker-p248_sex-f_text-_eight_.wav,p248,f,5,37,8.0,7.0,RX81,6,0.0,0.0,7.0,78.34149293193902,babble-reversed_n13_p256-nine-p307-four-p229-one-p284-three-p248-two-p245-five.wav,6,RX81,7,0.0,0.0,8.0,91.58892582949888,mgb_normalisation,91.58892582949886,90.34149293193902,8,8.0,True,1.3749046325683594
,2024-07-30 15:49:51,sub_115,3,distance,cathedral,spatial_unmasking,2,71,0,0,_one_,talker-p248_sex-f_text-_one_.wav,p248,f,5,38,8.0,7.0,RX81,6,0.0,0.0,7.0,78.34149293193902,babble-reversed_n13_p229-two-p318-eight-p256-three-p268-one-p248-nine-p284-five.wav,6,RX81,7,0.0,0.0,8.0,91.58892582949886,mgb_normalisation,91.58892582949886,90.34149293193902,1,9.0,False,1.4998960494995115
,2024-07-30 15:49:55,sub_115,3,distance,cathedral,spatial_unmasking,2,72,0,0,_two_,talker-p248_sex-f_text-_two_.wav,p248,f,5,39,8.0,7.0,RX81,6,0.0,0.0,7.0,79.34149293193902,babble-reversed_n13_p318-three-p229-one-p256-eight-p245-five-p248-four-p284-nine.wav,6,RX81,7,0.0,0.0,8.0,91.58892582949888,mgb_normalisation,91.58892582949886,90.34149293193902,2,2.0,True,1.1242527961730957
,2024-07-30 15:49:58,sub_115,3,distance,cathedral,spatial_unmasking,2,73,0,0,_one_,talker-p248_sex-f_text-_one_.wav,p248,f,5,40,8.0,7.0,RX81,6,0.0,0.0,7.0,79.34149293193902,babble-reversed_n13_p229-one-p318-nine-p256-four-p284-eight-p268-five-p245-two.wav,6,RX81,7,0.0,0.0,8.0,91.58892582949886,mgb_normalisation,91.58892582949886,90.34149293193902,1,8.0,False,1.2483174800872805
,2024-07-30 15:50:02,sub_115,3,distance,cathedral,spatial_unmasking,2,74,0,0,_two_,talker-p248_sex-f_text-_two_.wav,p248,f,5,41,8.0,7.0,RX81,6,0.0,0.0,7.0,80.34149293193903,babble-reversed_n13_p229-eight-p256-nine-p318-four-p245-three-p268-five-p284-two.wav,6,RX81,7,0.0,0.0,8.0,91.58892582949886,mgb_normalisation,91.58892582949886,90.34149293193902,2,2.0,True,1.1874175071716309
,2024-07-30 15:50:07,sub_115,3,distance,cathedral,spatial_unmasking,2,75,0,0,_two_,talker-p248_sex-f_text-_two_.wav,p248,f,5,42,8.0,7.0,RX81,6,0.0,0.0,7.0,80.34149293193903,babble-reversed_n13_p229-five-p256-one-p318-three-p248-nine-p268-four-p284-eight.wav,6,RX81,7,0.0,0.0,8.0,91.58892582949886,mgb_normalisation,91.58892582949886,90.34149293193902,2,3.0,False,2.0623562335968018
,2024-07-30 15:50:10,sub_115,3,distance,cathedral,spatial_unmasking,2,76,0,0,_three_,talker-p248_sex-f_text-_three_.wav,p248,f,5,43,8.0,7.0,RX81,6,0.0,0.0,7.0,81.34149293193902,babble-reversed_n13_p307-nine-p229-one-p256-eight-p248-four-p284-two-p268-three.wav,6,RX81,7,0.0,0.0,8.0,91.58892582949888,mgb_normalisation,91.58892582949886,90.34149293193902,3,3.0,True,1.3124098777770996
,2024-07-30 15:50:14,sub_115,3,distance,cathedral,spatial_unmasking,2,77,0,0,_four_,talker-p248_sex-f_text-_four_.wav,p248,f,5,44,8.0,7.0,RX81,6,0.0,0.0,7.0,81.341492931939,babble-reversed_n13_p256-eight-p318-two-p307-five-p245-four-p268-nine-p284-one.wav,6,RX81,7,0.0,0.0,8.0,91.58892582949888,mgb_normalisation,91.58892582949886,90.34149293193902,4,5.0,False,1.2978100776672363
,2024-07-30 15:50:18,sub_115,3,distance,cathedral,spatial_unmasking,2,78,0,0,_one_,talker-p248_sex-f_text-_one_.wav,p248,f,5,45,8.0,7.0,RX81,6,0.0,0.0,7.0,82.34149293193902,babble-reversed_n13_p318-three-p307-one-p256-five-p248-nine-p245-two-p284-eight.wav,6,RX81,7,0.0,0.0,8.0,91.58892582949888,mgb_normalisation,91.58892582949886,90.34149293193902,1,9.0,False,1.6245253086090088
,2024-07-30 15:50:22,sub_115,3,distance,cathedral,spatial_unmasking,2,79,0,0,_six_,talker-p248_sex-f_text-_six_.wav,p248,f,5,46,8.0,7.0,RX81,6,0.0,0.0,7.0,83.34149293193902,babble-reversed_n13_p318-five-p229-three-p256-four-p268-eight-p248-one-p245-nine.wav,6,RX81,7,0.0,0.0,8.0,91.58892582949888,mgb_normalisation,91.58892582949886,90.34149293193902,6,6.0,True,1.4998958110809326
,2024-07-30 15:50:26,sub_115,3,distance,cathedral,spatial_unmasking,2,80,0,0,_eight_,talker-p248_sex-f_text-_eight_.wav,p248,f,5,47,8.0,7.0,RX81,6,0.0,0.0,7.0,83.34149293193902,babble-reversed_n13_p229-three-p307-one-p318-two-p245-eight-p268-five-p284-four.wav,6,RX81,7,0.0,0.0,8.0,91.58892582949888,mgb_normalisation,91.58892582949886,90.34149293193902,8,8.0,True,1.312408208847046
,2024-07-30 15:52:03,sub_115,3,distance,cathedral,spatial_unmasking,3,81,0,0,_one_,talker-p248_sex-f_text-_one_.wav,p248,f,5,1,10.0,7.0,RX81,6,0.0,0.0,7.0,92.34149293193902,babble-reversed_n13_p256-four-p229-eight-p307-five-p248-three-p245-one-p284-two.wav,8,RX81,9,0.0,0.0,10.0,92.0152836843556,mgb_normalisation,92.0152836843556,90.34149293193902,1,9.0,False,2.124915361404419
,2024-07-30 15:52:07,sub_115,3,distance,cathedral,spatial_unmasking,3,82,0,0,_eight_,talker-p248_sex-f_text-_eight_.wav,p248,f,5,2,10.0,7.0,RX81,6,0.0,0.0,7.0,94.34149293193904,babble-reversed_n13_p229-one-p318-eight-p256-three-p268-two-p245-five-p248-nine.wav,8,RX81,9,0.0,0.0,10.0,92.0152836843556,mgb_normalisation,92.0152836843556,90.34149293193902,8,8.0,True,1.1249454021453855
,2024-07-30 15:52:10,sub_115,3,distance,cathedral,spatial_unmasking,3,83,0,0,_one_,talker-p248_sex-f_text-_one_.wav,p248,f,5,3,10.0,7.0,RX81,6,0.0,0.0,7.0,94.34149293193904,babble-reversed_n13_p307-one-p318-five-p229-four-p268-eight-p284-two-p245-three.wav,8,RX81,9,0.0,0.0,10.0,92.0152836843556,mgb_normalisation,92.0152836843556,90.34149293193902,1,1.0,True,1.3105220794677734
,2024-07-30 15:52:14,sub_115,3,distance,cathedral,spatial_unmasking,3,84,0,0,_six_,talker-p248_sex-f_text-_six_.wav,p248,f,5,4,10.0,7.0,RX81,6,0.0,0.0,7.0,92.34149293193902,babble-reversed_n13_p307-one-p318-five-p229-four-p268-eight-p284-two-p245-three.wav,8,RX81,9,0.0,0.0,10.0,92.0152836843556,mgb_normalisation,92.0152836843556,90.34149293193902,6,6.0,True,1.245964765548706
,2024-07-30 15:52:18,sub_115,3,distance,cathedral,spatial_unmasking,3,85,0,0,_six_,talker-p248_sex-f_text-_six_.wav,p248,f,5,5,10.0,7.0,RX81,6,0.0,0.0,7.0,92.34149293193902,babble-reversed_n13_p318-five-p256-nine-p307-eight-p248-two-p245-four-p284-three.wav,8,RX81,9,0.0,0.0,10.0,92.0152836843556,mgb_normalisation,92.0152836843556,90.34149293193902,6,6.0,True,1.124921798706055
,2024-07-30 15:52:21,sub_115,3,distance,cathedral,spatial_unmasking,3,86,0,0,_two_,talker-p248_sex-f_text-_two_.wav,p248,f,5,6,10.0,7.0,RX81,6,0.0,0.0,7.0,90.34149293193904,babble-reversed_n13_p256-four-p307-eight-p318-two-p248-three-p284-nine-p268-one.wav,8,RX81,9,0.0,0.0,10.0,92.0152836843556,mgb_normalisation,92.0152836843556,90.34149293193902,2,2.0,True,1.374903917312622
,2024-07-30 15:52:25,sub_115,3,distance,cathedral,spatial_unmasking,3,87,0,0,_six_,talker-p248_sex-f_text-_six_.wav,p248,f,5,7,10.0,7.0,RX81,6,0.0,0.0,7.0,90.341492931939,babble-reversed_n13_p307-five-p229-three-p318-nine-p245-four-p268-eight-p284-two.wav,8,RX81,9,0.0,0.0,10.0,92.0152836843556,mgb_normalisation,92.0152836843556,90.34149293193902,6,6.0,True,1.0631914138793943
,2024-07-30 15:52:28,sub_115,3,distance,cathedral,spatial_unmasking,3,88,0,0,_four_,talker-p248_sex-f_text-_four_.wav,p248,f,5,8,10.0,7.0,RX81,6,0.0,0.0,7.0,88.34149293193902,babble-reversed_n13_p318-three-p307-one-p256-five-p248-nine-p245-two-p284-eight.wav,8,RX81,9,0.0,0.0,10.0,92.0152836843556,mgb_normalisation,92.0152836843556,90.34149293193902,4,4.0,True,1.1903064250946045
,2024-07-30 15:52:32,sub_115,3,distance,cathedral,spatial_unmasking,3,89,0,0,_nine_,talker-p248_sex-f_text-_nine_.wav,p248,f,5,9,10.0,7.0,RX81,6,0.0,0.0,7.0,88.34149293193902,babble-reversed_n13_p229-five-p318-three-p307-two-p245-four-p284-nine-p248-eight.wav,8,RX81,9,0.0,0.0,10.0,92.0152836843556,mgb_normalisation,92.0152836843556,90.34149293193902,9,9.0,True,1.187389612197876
,2024-07-30 15:52:35,sub_115,3,distance,cathedral,spatial_unmasking,3,90,0,0,_six_,talker-p248_sex-f_text-_six_.wav,p248,f,5,10,10.0,7.0,RX81,6,0.0,0.0,7.0,86.34149293193902,babble-reversed_n13_p229-nine-p256-four-p318-three-p268-eight-p248-two-p284-five.wav,8,RX81,9,0.0,0.0,10.0,92.0152836843556,mgb_normalisation,92.0152836843556,90.34149293193902,6,6.0,True,0.8749396800994873
,2024-07-30 15:52:39,sub_115,3,distance,cathedral,spatial_unmasking,3,91,0,0,_nine_,talker-p248_sex-f_text-_nine_.wav,p248,f,5,11,10.0,7.0,RX81,6,0.0,0.0,7.0,86.34149293193902,babble-reversed_n13_p307-nine-p229-one-p256-eight-p248-four-p284-two-p268-three.wav,8,RX81,9,0.0,0.0,10.0,92.0152836843556,mgb_normalisation,92.0152836843556,90.34149293193902,9,9.0,True,1.1229627132415771
,2024-07-30 15:52:42,sub_115,3,distance,cathedral,spatial_unmasking,3,92,0,0,_eight_,talker-p248_sex-f_text-_eight_.wav,p248,f,5,12,10.0,7.0,RX81,6,0.0,0.0,7.0,84.34149293193903,babble-reversed_n13_p318-one-p307-two-p256-eight-p284-three-p248-five-p245-four.wav,8,RX81,9,0.0,0.0,10.0,92.0152836843556,mgb_normalisation,92.0152836843556,90.34149293193902,8,8.0,True,1.249912977218628
,2024-07-30 15:52:46,sub_115,3,distance,cathedral,spatial_unmasking,3,93,0,0,_three_,talker-p248_sex-f_text-_three_.wav,p248,f,5,13,10.0,7.0,RX81,6,0.0,0.0,7.0,84.341492931939,babble-reversed_n13_p229-nine-p318-one-p307-two-p248-eight-p245-five-p284-four.wav,8,RX81,9,0.0,0.0,10.0,92.0152836843556,mgb_normalisation,92.0152836843556,90.34149293193902,3,3.0,True,1.1249213218688965
,2024-07-30 15:52:50,sub_115,3,distance,cathedral,spatial_unmasking,3,94,0,0,_nine_,talker-p248_sex-f_text-_nine_.wav,p248,f,5,14,10.0,7.0,RX81,6,0.0,0.0,7.0,82.34149293193902,babble-reversed_n13_p256-eight-p318-two-p307-five-p245-four-p268-nine-p284-one.wav,8,RX81,9,0.0,0.0,10.0,92.0152836843556,mgb_normalisation,92.0152836843556,90.34149293193902,9,9.0,True,1.4387495517730713
,2024-07-30 15:52:54,sub_115,3,distance,cathedral,spatial_unmasking,3,95,0,0,_one_,talker-p248_sex-f_text-_one_.wav,p248,f,5,15,10.0,7.0,RX81,6,0.0,0.0,7.0,82.34149293193902,babble-reversed_n13_p256-four-p229-eight-p307-five-p248-three-p245-one-p284-two.wav,8,RX81,9,0.0,0.0,10.0,92.0152836843556,mgb_normalisation,92.0152836843556,90.34149293193902,1,8.0,False,1.750899314880371
,2024-07-30 15:52:57,sub_115,3,distance,cathedral,spatial_unmasking,3,96,0,0,_five_,talker-p248_sex-f_text-_five_.wav,p248,f,5,16,10.0,7.0,RX81,6,0.0,0.0,7.0,83.34149293193902,babble-reversed_n13_p307-one-p318-five-p229-four-p268-eight-p284-two-p245-three.wav,8,RX81,9,0.0,0.0,10.0,92.0152836843556,mgb_normalisation,92.0152836843556,90.34149293193902,5,5.0,True,1.0624258518218994
,2024-07-30 15:53:03,sub_115,3,distance,cathedral,spatial_unmasking,3,97,0,0,_four_,talker-p248_sex-f_text-_four_.wav,p248,f,5,17,10.0,7.0,RX81,6,0.0,0.0,7.0,83.34149293193902,babble-reversed_n13_p229-two-p307-five-p318-four-p284-one-p248-nine-p268-eight.wav,8,RX81,9,0.0,0.0,10.0,92.0152836843556,mgb_normalisation,92.0152836843556,90.34149293193902,4,8.0,False,2.812331438064575
,2024-07-30 15:53:06,sub_115,3,distance,cathedral,spatial_unmasking,3,98,0,0,_two_,talker-p248_sex-f_text-_two_.wav,p248,f,5,18,10.0,7.0,RX81,6,0.0,0.0,7.0,84.34149293193903,babble-reversed_n13_p318-one-p307-two-p256-eight-p284-three-p248-five-p245-four.wav,8,RX81,9,0.0,0.0,10.0,92.0152836843556,mgb_normalisation,92.0152836843556,90.34149293193902,2,2.0,True,1.1249220371246338
,2024-07-30 15:53:09,sub_115,3,distance,cathedral,spatial_unmasking,3,99,0,0,_two_,talker-p248_sex-f_text-_two_.wav,p248,f,5,19,10.0,7.0,RX81,6,0.0,0.0,7.0,84.34149293193903,babble-reversed_n13_p256-five-p307-nine-p318-three-p284-eight-p268-one-p248-two.wav,8,RX81,9,0.0,0.0,10.0,92.0152836843556,mgb_normalisation,92.0152836843556,90.34149293193902,2,2.0,True,0.9383916854858398
,2024-07-30 15:53:14,sub_115,3,distance,cathedral,spatial_unmasking,3,100,0,0,_two_,talker-p248_sex-f_text-_two_.wav,p248,f,5,20,10.0,7.0,RX81,6,0.0,0.0,7.0,83.34149293193903,babble-reversed_n13_p229-one-p318-eight-p256-three-p268-two-p245-five-p248-nine.wav,8,RX81,9,0.0,0.0,10.0,92.0152836843556,mgb_normalisation,92.0152836843556,90.34149293193902,2,2.0,True,1.6856486797332764
,2024-07-30 15:53:17,sub_115,3,distance,cathedral,spatial_unmasking,3,101,0,0,_one_,talker-p248_sex-f_text-_one_.wav,p248,f,5,21,10.0,7.0,RX81,6,0.0,0.0,7.0,83.34149293193903,babble-reversed_n13_p318-five-p256-nine-p307-eight-p248-two-p245-four-p284-three.wav,8,RX81,9,0.0,0.0,10.0,92.0152836843556,mgb_normalisation,92.0152836843556,90.34149293193902,1,1.0,True,1.374921798706055
,2024-07-30 15:53:21,sub_115,3,distance,cathedral,spatial_unmasking,3,102,0,0,_nine_,talker-p248_sex-f_text-_nine_.wav,p248,f,5,22,10.0,7.0,RX81,6,0.0,0.0,7.0,82.34149293193902,babble-reversed_n13_p229-nine-p256-four-p318-three-p268-eight-p248-two-p284-five.wav,8,RX81,9,0.0,0.0,10.0,92.0152836843556,mgb_normalisation,92.0152836843556,90.34149293193902,9,9.0,True,0.9999310970306396
,2024-07-30 15:53:28,sub_115,3,distance,cathedral,spatial_unmasking,3,103,0,0,_three_,talker-p248_sex-f_text-_three_.wav,p248,f,5,23,10.0,7.0,RX81,6,0.0,0.0,7.0,82.34149293193902,babble-reversed_n13_p318-nine-p307-eight-p229-two-p284-one-p248-three-p245-five.wav,8,RX81,9,0.0,0.0,10.0,92.0152836843556,mgb_normalisation,92.0152836843556,90.34149293193902,3,3.0,True,4.372910976409912
,2024-07-30 15:53:31,sub_115,3,distance,cathedral,spatial_unmasking,3,104,0,0,_six_,talker-p248_sex-f_text-_six_.wav,p248,f,5,24,10.0,7.0,RX81,6,0.0,0.0,7.0,81.34149293193902,babble-reversed_n13_p256-five-p307-nine-p318-three-p284-eight-p268-one-p248-two.wav,8,RX81,9,0.0,0.0,10.0,92.0152836843556,mgb_normalisation,92.0152836843556,90.34149293193902,6,6.0,True,1.1248586177825928
,2024-07-30 15:53:35,sub_115,3,distance,cathedral,spatial_unmasking,3,105,0,0,_nine_,talker-p248_sex-f_text-_nine_.wav,p248,f,5,25,10.0,7.0,RX81,6,0.0,0.0,7.0,81.34149293193902,babble-reversed_n13_p256-eight-p318-five-p307-four-p245-three-p268-one-p284-nine.wav,8,RX81,9,0.0,0.0,10.0,92.0152836843556,mgb_normalisation,92.0152836843556,90.34149293193902,9,9.0,True,1.0632004737854004
,2024-07-30 15:53:39,sub_115,3,distance,cathedral,spatial_unmasking,3,106,0,0,_five_,talker-p248_sex-f_text-_five_.wav,p248,f,5,26,10.0,7.0,RX81,6,0.0,0.0,7.0,80.341492931939,babble-reversed_n13_p318-five-p229-three-p256-four-p268-eight-p248-one-p245-nine.wav,8,RX81,9,0.0,0.0,10.0,92.0152836843556,mgb_normalisation,92.0152836843556,90.34149293193902,5,5.0,True,1.5623128414154053
,2024-07-30 15:53:43,sub_115,3,distance,cathedral,spatial_unmasking,3,107,0,0,_four_,talker-p248_sex-f_text-_four_.wav,p248,f,5,27,10.0,7.0,RX81,6,0.0,0.0,7.0,80.341492931939,babble-reversed_n13_p256-nine-p307-four-p229-one-p284-three-p248-two-p245-five.wav,8,RX81,9,0.0,0.0,10.0,92.0152836843556,mgb_normalisation,92.0152836843556,90.34149293193902,4,8.0,False,1.8748698234558103
,2024-07-30 15:53:47,sub_115,3,distance,cathedral,spatial_unmasking,3,108,0,0,_three_,talker-p248_sex-f_text-_three_.wav,p248,f,5,28,10.0,7.0,RX81,6,0.0,0.0,7.0,81.34149293193902,babble-reversed_n13_p229-five-p256-one-p318-three-p248-nine-p268-four-p284-eight.wav,8,RX81,9,0.0,0.0,10.0,92.0152836843556,mgb_normalisation,92.0152836843556,90.34149293193902,3,3.0,True,1.749878168106079
,2024-07-30 15:53:50,sub_115,3,distance,cathedral,spatial_unmasking,3,109,0,0,_six_,talker-p248_sex-f_text-_six_.wav,p248,f,5,29,10.0,7.0,RX81,6,0.0,0.0,7.0,81.34149293193902,babble-reversed_n13_p229-two-p318-eight-p256-three-p268-one-p248-nine-p284-five.wav,8,RX81,9,0.0,0.0,10.0,92.0152836843556,mgb_normalisation,92.0152836843556,90.34149293193902,6,6.0,True,0.8796441555023193
,2024-07-30 15:53:54,sub_115,3,distance,cathedral,spatial_unmasking,3,110,0,0,_two_,talker-p248_sex-f_text-_two_.wav,p248,f,5,30,10.0,7.0,RX81,6,0.0,0.0,7.0,80.34149293193903,babble-reversed_n13_p307-two-p256-four-p318-three-p284-eight-p248-five-p245-nine.wav,8,RX81,9,0.0,0.0,10.0,92.0152836843556,mgb_normalisation,92.0152836843556,90.34149293193902,2,2.0,True,0.9972813129425048
,2024-07-30 15:53:58,sub_115,3,distance,cathedral,spatial_unmasking,3,111,0,0,_nine_,talker-p248_sex-f_text-_nine_.wav,p248,f,5,31,10.0,7.0,RX81,6,0.0,0.0,7.0,80.341492931939,babble-reversed_n13_p318-three-p229-one-p256-eight-p245-five-p248-four-p284-nine.wav,8,RX81,9,0.0,0.0,10.0,92.0152836843556,mgb_normalisation,92.0152836843556,90.34149293193902,9,3.0,False,2.248805046081543
,2024-07-30 15:54:02,sub_115,3,distance,cathedral,spatial_unmasking,3,112,0,0,_nine_,talker-p248_sex-f_text-_nine_.wav,p248,f,5,32,10.0,7.0,RX81,6,0.0,0.0,7.0,81.34149293193902,babble-reversed_n13_p307-nine-p229-one-p256-eight-p248-four-p284-two-p268-three.wav,8,RX81,9,0.0,0.0,10.0,92.0152836843556,mgb_normalisation,92.0152836843556,90.34149293193902,9,9.0,True,1.1249213218688965
,2024-07-30 15:54:06,sub_115,3,distance,cathedral,spatial_unmasking,3,113,0,0,_one_,talker-p248_sex-f_text-_one_.wav,p248,f,5,33,10.0,7.0,RX81,6,0.0,0.0,7.0,81.34149293193902,babble-reversed_n13_p256-eight-p318-five-p307-four-p245-three-p268-one-p284-nine.wav,8,RX81,9,0.0,0.0,10.0,92.0152836843556,mgb_normalisation,92.0152836843556,90.34149293193902,1,1.0,True,1.624950885772705
,2024-07-30 15:54:13,sub_115,3,distance,cathedral,spatial_unmasking,3,114,0,0,_eight_,talker-p248_sex-f_text-_eight_.wav,p248,f,5,34,10.0,7.0,RX81,6,0.0,0.0,7.0,80.34149293193903,babble-reversed_n13_p229-five-p256-one-p318-three-p248-nine-p268-four-p284-eight.wav,8,RX81,9,0.0,0.0,10.0,92.0152836843556,mgb_normalisation,92.0152836843556,90.34149293193902,8,9.0,False,4.1257429122924805
,2024-07-30 15:54:16,sub_115,3,distance,cathedral,spatial_unmasking,3,115,0,0,_six_,talker-p248_sex-f_text-_six_.wav,p248,f,5,35,10.0,7.0,RX81,6,0.0,0.0,7.0,81.34149293193902,babble-reversed_n13_p318-five-p256-nine-p307-two-p245-eight-p248-one-p284-four.wav,8,RX81,9,0.0,0.0,10.0,92.0152836843556,mgb_normalisation,92.0152836843556,90.34149293193902,6,6.0,True,0.9374351501464844
,2024-07-30 15:54:19,sub_115,3,distance,cathedral,spatial_unmasking,3,116,0,0,_two_,talker-p248_sex-f_text-_two_.wav,p248,f,5,36,10.0,7.0,RX81,6,0.0,0.0,7.0,81.34149293193902,babble-reversed_n13_p229-one-p318-eight-p256-three-p268-two-p245-five-p248-nine.wav,8,RX81,9,0.0,0.0,10.0,92.0152836843556,mgb_normalisation,92.0152836843556,90.34149293193902,2,2.0,True,0.935415744781494
,2024-07-30 15:54:23,sub_115,3,distance,cathedral,spatial_unmasking,3,117,0,0,_one_,talker-p248_sex-f_text-_one_.wav,p248,f,5,37,10.0,7.0,RX81,6,0.0,0.0,7.0,80.34149293193903,babble-reversed_n13_p318-five-p256-nine-p307-two-p245-eight-p248-one-p284-four.wav,8,RX81,9,0.0,0.0,10.0,92.0152836843556,mgb_normalisation,92.0152836843556,90.34149293193902,1,1.0,True,1.1249220371246338
,2024-07-30 15:54:26,sub_115,3,distance,cathedral,spatial_unmasking,3,118,0,0,_six_,talker-p248_sex-f_text-_six_.wav,p248,f,5,38,10.0,7.0,RX81,6,0.0,0.0,7.0,80.34149293193903,babble-reversed_n13_p307-one-p318-five-p229-four-p268-eight-p284-two-p245-three.wav,8,RX81,9,0.0,0.0,10.0,92.0152836843556,mgb_normalisation,92.0152836843556,90.34149293193902,6,6.0,True,0.7499477863311768
,2024-07-30 15:54:29,sub_115,3,distance,cathedral,spatial_unmasking,3,119,0,0,_five_,talker-p248_sex-f_text-_five_.wav,p248,f,5,39,10.0,7.0,RX81,6,0.0,0.0,7.0,79.341492931939,babble-reversed_n13_p229-nine-p318-one-p307-two-p248-eight-p245-five-p284-four.wav,8,RX81,9,0.0,0.0,10.0,92.0152836843556,mgb_normalisation,92.0152836843556,90.34149293193902,5,5.0,True,0.9338555335998536
,2024-07-30 15:54:33,sub_115,3,distance,cathedral,spatial_unmasking,3,120,0,0,_five_,talker-p248_sex-f_text-_five_.wav,p248,f,5,40,10.0,7.0,RX81,6,0.0,0.0,7.0,79.341492931939,babble-reversed_n13_p229-one-p318-eight-p256-three-p268-nine-p248-five-p284-four.wav,8,RX81,9,0.0,0.0,10.0,92.0152836843556,mgb_normalisation,92.0152836843556,90.34149293193902,5,5.0,True,0.8750054836273193
,2024-07-30 15:54:36,sub_115,3,distance,cathedral,spatial_unmasking,3,121,0,0,_nine_,talker-p248_sex-f_text-_nine_.wav,p248,f,5,41,10.0,7.0,RX81,6,0.0,0.0,7.0,78.34149293193902,babble-reversed_n13_p318-five-p256-nine-p307-eight-p248-two-p245-four-p284-three.wav,8,RX81,9,0.0,0.0,10.0,92.0152836843556,mgb_normalisation,92.0152836843556,90.34149293193902,9,9.0,True,1.1874184608459473
,2024-07-30 15:54:40,sub_115,3,distance,cathedral,spatial_unmasking,3,122,0,0,_three_,talker-p248_sex-f_text-_three_.wav,p248,f,5,42,10.0,7.0,RX81,6,0.0,0.0,7.0,78.34149293193902,babble-reversed_n13_p256-five-p307-nine-p318-three-p284-eight-p268-one-p248-two.wav,8,RX81,9,0.0,0.0,10.0,92.0152836843556,mgb_normalisation,92.0152836843556,90.34149293193902,3,3.0,True,1.188371181488037
,2024-07-30 15:54:45,sub_115,3,distance,cathedral,spatial_unmasking,3,123,0,0,_four_,talker-p248_sex-f_text-_four_.wav,p248,f,5,43,10.0,7.0,RX81,6,0.0,0.0,7.0,77.341492931939,babble-reversed_n13_p307-five-p229-two-p318-four-p248-three-p245-nine-p268-eight.wav,8,RX81,9,0.0,0.0,10.0,92.0152836843556,mgb_normalisation,92.0152836843556,90.34149293193902,4,4.0,True,2.501279354095459
,2024-07-30 15:54:50,sub_115,3,distance,cathedral,spatial_unmasking,3,124,0,0,_eight_,talker-p248_sex-f_text-_eight_.wav,p248,f,5,44,10.0,7.0,RX81,6,0.0,0.0,7.0,77.34149293193903,babble-reversed_n13_p256-three-p318-two-p229-nine-p248-four-p284-one-p268-eight.wav,8,RX81,9,0.0,0.0,10.0,92.0152836843556,mgb_normalisation,92.0152836843556,90.34149293193902,8,4.0,False,2.9995574951171875
,2024-07-30 15:54:54,sub_115,3,distance,cathedral,spatial_unmasking,3,125,0,0,_two_,talker-p248_sex-f_text-_two_.wav,p248,f,5,45,10.0,7.0,RX81,6,0.0,0.0,7.0,78.34149293193902,babble-reversed_n13_p307-two-p256-four-p318-three-p284-eight-p248-five-p245-nine.wav,8,RX81,9,0.0,0.0,10.0,92.0152836843556,mgb_normalisation,92.0152836843556,90.34149293193902,2,2.0,True,1.6886279582977295
,2024-07-30 15:54:58,sub_115,3,distance,cathedral,spatial_unmasking,3,126,0,0,_one_,talker-p248_sex-f_text-_one_.wav,p248,f,5,46,10.0,7.0,RX81,6,0.0,0.0,7.0,78.34149293193902,babble-reversed_n13_p229-nine-p318-one-p307-two-p248-eight-p245-five-p284-four.wav,8,RX81,9,0.0,0.0,10.0,92.0152836843556,mgb_normalisation,92.0152836843556,90.34149293193902,1,9.0,False,1.4998960494995115
,2024-07-30 15:55:03,sub_115,3,distance,cathedral,spatial_unmasking,3,127,0,0,_two_,talker-p248_sex-f_text-_two_.wav,p248,f,5,47,10.0,7.0,RX81,6,0.0,0.0,7.0,79.34149293193902,babble-reversed_n13_p229-eight-p256-nine-p318-four-p245-three-p268-five-p284-two.wav,8,RX81,9,0.0,0.0,10.0,92.0152836843556,mgb_normalisation,92.0152836843556,90.34149293193902,2,2.0,True,2.687314033508301
,2024-07-30 15:55:07,sub_115,3,distance,cathedral,spatial_unmasking,3,128,0,0,_three_,talker-p248_sex-f_text-_three_.wav,p248,f,5,48,10.0,7.0,RX81,6,0.0,0.0,7.0,79.341492931939,babble-reversed_n13_p229-five-p318-two-p307-eight-p268-three-p248-four-p245-one.wav,8,RX81,9,0.0,0.0,10.0,92.0152836843556,mgb_normalisation,92.0152836843556,90.34149293193902,3,3.0,True,1.1249220371246338
,2024-07-30 15:56:42,sub_115,3,distance,cathedral,spatial_unmasking,4,129,0,0,_six_,talker-p248_sex-f_text-_six_.wav,p248,f,5,1,4.0,7.0,RX81,6,0.0,0.0,7.0,92.34149293193902,babble-reversed_n13_p307-nine-p318-two-p256-one-p245-three-p268-four-p248-eight.wav,2,RX81,3,0.0,0.0,4.0,87.57049330475355,mgb_normalisation,87.57049330475357,90.34149293193902,6,6.0,True,1.3124384880065918
,2024-07-30 15:56:46,sub_115,3,distance,cathedral,spatial_unmasking,4,130,0,0,_six_,talker-p248_sex-f_text-_six_.wav,p248,f,5,2,4.0,7.0,RX81,6,0.0,0.0,7.0,88.34149293193902,babble-reversed_n13_p307-five-p229-two-p318-four-p248-three-p245-nine-p268-eight.wav,2,RX81,3,0.0,0.0,4.0,87.57049330475355,mgb_normalisation,87.57049330475357,90.34149293193902,6,6.0,True,1.3768796920776367
,2024-07-30 15:56:50,sub_115,3,distance,cathedral,spatial_unmasking,4,131,0,0,_five_,talker-p248_sex-f_text-_five_.wav,p248,f,5,3,4.0,7.0,RX81,6,0.0,0.0,7.0,84.341492931939,babble-reversed_n13_p307-one-p318-five-p229-four-p268-eight-p284-two-p245-three.wav,2,RX81,3,0.0,0.0,4.0,87.57049330475355,mgb_normalisation,87.57049330475357,90.34149293193902,5,5.0,True,1.5001256465911863
,2024-07-30 15:56:53,sub_115,3,distance,cathedral,spatial_unmasking,4,132,0,0,_six_,talker-p248_sex-f_text-_six_.wav,p248,f,5,4,4.0,7.0,RX81,6,0.0,0.0,7.0,80.34149293193903,babble-reversed_n13_p229-nine-p256-four-p318-three-p268-eight-p248-two-p284-five.wav,2,RX81,3,0.0,0.0,4.0,87.57049330475357,mgb_normalisation,87.57049330475357,90.34149293193902,6,6.0,True,1.18741774559021
,2024-07-30 15:56:58,sub_115,3,distance,cathedral,spatial_unmasking,4,133,0,0,_eight_,talker-p248_sex-f_text-_eight_.wav,p248,f,5,5,4.0,7.0,RX81,6,0.0,0.0,7.0,76.34149293193902,babble-reversed_n13_p318-three-p229-one-p256-eight-p245-five-p248-four-p284-nine.wav,2,RX81,3,0.0,0.0,4.0,87.57049330475357,mgb_normalisation,87.57049330475357,90.34149293193902,8,8.0,True,2.437347888946533
,2024-07-30 15:57:02,sub_115,3,distance,cathedral,spatial_unmasking,4,134,0,0,_four_,talker-p248_sex-f_text-_four_.wav,p248,f,5,6,4.0,7.0,RX81,6,0.0,0.0,7.0,72.34149293193902,babble-reversed_n13_p256-eight-p318-five-p307-four-p245-three-p268-one-p284-nine.wav,2,RX81,3,0.0,0.0,4.0,87.57049330475355,mgb_normalisation,87.57049330475357,90.34149293193902,4,8.0,False,1.4374010562896729
,2024-07-30 15:57:06,sub_115,3,distance,cathedral,spatial_unmasking,4,135,0,0,_two_,talker-p248_sex-f_text-_two_.wav,p248,f,5,7,4.0,7.0,RX81,6,0.0,0.0,7.0,74.34149293193902,babble-reversed_n13_p307-one-p318-five-p229-four-p268-eight-p284-two-p245-three.wav,2,RX81,3,0.0,0.0,4.0,87.57049330475355,mgb_normalisation,87.57049330475357,90.34149293193902,2,2.0,True,1.2388811111450195
,2024-07-30 15:57:10,sub_115,3,distance,cathedral,spatial_unmasking,4,136,0,0,_six_,talker-p248_sex-f_text-_six_.wav,p248,f,5,8,4.0,7.0,RX81,6,0.0,0.0,7.0,74.34149293193902,babble-reversed_n13_p318-five-p256-nine-p307-two-p245-eight-p248-one-p284-four.wav,2,RX81,3,0.0,0.0,4.0,87.57049330475357,mgb_normalisation,87.57049330475357,90.34149293193902,6,4.0,False,1.7344474792480469
,2024-07-30 15:57:13,sub_115,3,distance,cathedral,spatial_unmasking,4,137,0,0,_six_,talker-p248_sex-f_text-_six_.wav,p248,f,5,9,4.0,7.0,RX81,6,0.0,0.0,7.0,76.34149293193902,babble-reversed_n13_p307-five-p229-three-p318-nine-p245-four-p268-eight-p284-two.wav,2,RX81,3,0.0,0.0,4.0,87.57049330475355,mgb_normalisation,87.57049330475357,90.34149293193902,6,6.0,True,1.1874175071716309
,2024-07-30 15:57:17,sub_115,3,distance,cathedral,spatial_unmasking,4,138,0,0,_six_,talker-p248_sex-f_text-_six_.wav,p248,f,5,10,4.0,7.0,RX81,6,0.0,0.0,7.0,76.34149293193902,babble-reversed_n13_p307-two-p256-four-p318-three-p284-eight-p248-five-p245-nine.wav,2,RX81,3,0.0,0.0,4.0,87.57049330475357,mgb_normalisation,87.57049330475357,90.34149293193902,6,6.0,True,0.9999308586120604
,2024-07-30 15:57:20,sub_115,3,distance,cathedral,spatial_unmasking,4,139,0,0,_nine_,talker-p248_sex-f_text-_nine_.wav,p248,f,5,11,4.0,7.0,RX81,6,0.0,0.0,7.0,74.34149293193902,babble-reversed_n13_p307-five-p229-three-p318-nine-p245-four-p268-eight-p284-two.wav,2,RX81,3,0.0,0.0,4.0,87.57049330475355,mgb_normalisation,87.57049330475357,90.34149293193902,9,3.0,False,1.17474102973938
,2024-07-30 15:57:24,sub_115,3,distance,cathedral,spatial_unmasking,4,140,0,0,_three_,talker-p248_sex-f_text-_three_.wav,p248,f,5,12,4.0,7.0,RX81,6,0.0,0.0,7.0,75.34149293193902,babble-reversed_n13_p229-two-p307-five-p318-four-p284-one-p248-nine-p268-eight.wav,2,RX81,3,0.0,0.0,4.0,87.57049330475357,mgb_normalisation,87.57049330475357,90.34149293193902,3,3.0,True,1.2473444938659668
,2024-07-30 15:57:29,sub_115,3,distance,cathedral,spatial_unmasking,4,141,0,0,_eight_,talker-p248_sex-f_text-_eight_.wav,p248,f,5,13,4.0,7.0,RX81,6,0.0,0.0,7.0,75.34149293193903,babble-reversed_n13_p318-four-p256-five-p229-three-p284-one-p245-eight-p248-nine.wav,2,RX81,3,0.0,0.0,4.0,87.57049330475357,mgb_normalisation,87.57049330475357,90.34149293193902,8,5.0,False,2.934267282485962
,2024-07-30 15:57:34,sub_115,3,distance,cathedral,spatial_unmasking,4,142,0,0,_nine_,talker-p248_sex-f_text-_nine_.wav,p248,f,5,14,4.0,7.0,RX81,6,0.0,0.0,7.0,76.34149293193902,babble-reversed_n13_p318-nine-p307-eight-p229-two-p284-one-p248-three-p245-five.wav,2,RX81,3,0.0,0.0,4.0,87.57049330475357,mgb_normalisation,87.57049330475357,90.34149293193902,9,3.0,False,2.435596704483032
,2024-07-30 15:57:38,sub_115,3,distance,cathedral,spatial_unmasking,4,143,0,0,_one_,talker-p248_sex-f_text-_one_.wav,p248,f,5,15,4.0,7.0,RX81,6,0.0,0.0,7.0,77.34149293193903,babble-reversed_n13_p229-five-p318-three-p307-two-p245-four-p284-nine-p248-eight.wav,2,RX81,3,0.0,0.0,4.0,87.57049330475357,mgb_normalisation,87.57049330475357,90.34149293193902,1,2.0,False,1.4374003410339355
,2024-07-30 15:57:41,sub_115,3,distance,cathedral,spatial_unmasking,4,144,0,0,_five_,talker-p248_sex-f_text-_five_.wav,p248,f,5,16,4.0,7.0,RX81,6,0.0,0.0,7.0,78.341492931939,babble-reversed_n13_p318-five-p229-four-p256-eight-p284-one-p245-three-p248-two.wav,2,RX81,3,0.0,0.0,4.0,87.57049330475357,mgb_normalisation,87.57049330475357,90.34149293193902,5,5.0,True,0.7499485015869141
,2024-07-30 15:57:46,sub_115,3,distance,cathedral,spatial_unmasking,4,145,0,0,_three_,talker-p248_sex-f_text-_three_.wav,p248,f,5,17,4.0,7.0,RX81,6,0.0,0.0,7.0,78.34149293193902,babble-reversed_n13_p229-nine-p307-five-p256-two-p248-three-p245-one-p268-eight.wav,2,RX81,3,0.0,0.0,4.0,87.57049330475357,mgb_normalisation,87.57049330475357,90.34149293193902,3,3.0,True,2.172693490982056
,2024-07-30 15:57:50,sub_115,3,distance,cathedral,spatial_unmasking,4,146,0,0,_four_,talker-p248_sex-f_text-_four_.wav,p248,f,5,18,4.0,7.0,RX81,6,0.0,0.0,7.0,77.341492931939,babble-reversed_n13_p229-five-p256-three-p318-nine-p248-two-p284-four-p268-one.wav,2,RX81,3,0.0,0.0,4.0,87.57049330475357,mgb_normalisation,87.57049330475357,90.34149293193902,4,2.0,False,2.0623483657836914
,2024-07-30 15:57:54,sub_115,3,distance,cathedral,spatial_unmasking,4,147,0,0,_three_,talker-p248_sex-f_text-_three_.wav,p248,f,5,19,4.0,7.0,RX81,6,0.0,0.0,7.0,78.34149293193902,babble-reversed_n13_p307-nine-p318-two-p256-one-p245-three-p268-four-p248-eight.wav,2,RX81,3,0.0,0.0,4.0,87.57049330475355,mgb_normalisation,87.57049330475357,90.34149293193902,3,3.0,True,1.0624258518218994
,2024-07-30 15:57:57,sub_115,3,distance,cathedral,spatial_unmasking,4,148,0,0,_two_,talker-p248_sex-f_text-_two_.wav,p248,f,5,20,4.0,7.0,RX81,6,0.0,0.0,7.0,78.34149293193902,babble-reversed_n13_p307-one-p318-five-p229-four-p268-eight-p284-two-p245-three.wav,2,RX81,3,0.0,0.0,4.0,87.57049330475355,mgb_normalisation,87.57049330475357,90.34149293193902,2,2.0,True,1.1249220371246338
,2024-07-30 15:58:02,sub_115,3,distance,cathedral,spatial_unmasking,4,149,0,0,_one_,talker-p248_sex-f_text-_one_.wav,p248,f,5,21,4.0,7.0,RX81,6,0.0,0.0,7.0,77.34149293193903,babble-reversed_n13_p256-five-p229-one-p318-three-p248-nine-p284-eight-p268-two.wav,2,RX81,3,0.0,0.0,4.0,87.57049330475357,mgb_normalisation,87.57049330475357,90.34149293193902,1,3.0,False,2.2457263469696045
,2024-07-30 15:58:05,sub_115,3,distance,cathedral,spatial_unmasking,4,150,0,0,_four_,talker-p248_sex-f_text-_four_.wav,p248,f,5,22,4.0,7.0,RX81,6,0.0,0.0,7.0,78.34149293193902,babble-reversed_n13_p307-one-p318-five-p229-four-p268-eight-p284-two-p245-three.wav,2,RX81,3,0.0,0.0,4.0,87.57049330475355,mgb_normalisation,87.57049330475357,90.34149293193902,4,3.0,False,1.2363693714141846
,2024-07-30 15:58:09,sub_115,3,distance,cathedral,spatial_unmasking,4,151,0,0,_five_,talker-p248_sex-f_text-_five_.wav,p248,f,5,23,4.0,7.0,RX81,6,0.0,0.0,7.0,79.341492931939,babble-reversed_n13_p307-five-p229-two-p318-four-p248-three-p245-nine-p268-eight.wav,2,RX81,3,0.0,0.0,4.0,87.57049330475355,mgb_normalisation,87.57049330475357,90.34149293193902,5,5.0,True,1.5594568252563477
,2024-07-30 15:58:13,sub_115,3,distance,cathedral,spatial_unmasking,4,152,0,0,_two_,talker-p248_sex-f_text-_two_.wav,p248,f,5,24,4.0,7.0,RX81,6,0.0,0.0,7.0,79.34149293193902,babble-reversed_n13_p307-five-p229-three-p318-nine-p245-four-p268-eight-p284-two.wav,2,RX81,3,0.0,0.0,4.0,87.57049330475355,mgb_normalisation,87.57049330475357,90.34149293193902,2,2.0,True,1.062396764755249
,2024-07-30 15:58:16,sub_115,3,distance,cathedral,spatial_unmasking,4,153,0,0,_eight_,talker-p248_sex-f_text-_eight_.wav,p248,f,5,25,4.0,7.0,RX81,6,0.0,0.0,7.0,78.34149293193902,babble-reversed_n13_p307-five-p229-two-p318-four-p248-three-p245-nine-p268-eight.wav,2,RX81,3,0.0,0.0,4.0,87.57049330475355,mgb_normalisation,87.57049330475357,90.34149293193902,8,3.0,False,1.312408208847046
,2024-07-30 15:58:20,sub_115,3,distance,cathedral,spatial_unmasking,4,154,0,0,_two_,talker-p248_sex-f_text-_two_.wav,p248,f,5,26,4.0,7.0,RX81,6,0.0,0.0,7.0,79.34149293193902,babble-reversed_n13_p256-four-p229-eight-p307-five-p248-three-p245-one-p284-two.wav,2,RX81,3,0.0,0.0,4.0,87.57049330475355,mgb_normalisation,87.57049330475357,90.34149293193902,2,2.0,True,1.124971628189087
,2024-07-30 15:58:24,sub_115,3,distance,cathedral,spatial_unmasking,4,155,0,0,_eight_,talker-p248_sex-f_text-_eight_.wav,p248,f,5,27,4.0,7.0,RX81,6,0.0,0.0,7.0,79.34149293193902,babble-reversed_n13_p229-eight-p256-nine-p318-four-p245-three-p268-five-p284-two.wav,2,RX81,3,0.0,0.0,4.0,87.57049330475355,mgb_normalisation,87.57049330475357,90.34149293193902,8,3.0,False,1.2499418258666992
,2024-07-30 15:58:27,sub_115,3,distance,cathedral,spatial_unmasking,4,156,0,0,_one_,talker-p248_sex-f_text-_one_.wav,p248,f,5,28,4.0,7.0,RX81,6,0.0,0.0,7.0,80.34149293193903,babble-reversed_n13_p256-eight-p318-five-p307-four-p245-three-p268-one-p284-nine.wav,2,RX81,3,0.0,0.0,4.0,87.57049330475355,mgb_normalisation,87.57049330475357,90.34149293193902,1,1.0,True,1.2499144077301023
,2024-07-30 15:58:31,sub_115,3,distance,cathedral,spatial_unmasking,4,157,0,0,_nine_,talker-p248_sex-f_text-_nine_.wav,p248,f,5,29,4.0,7.0,RX81,6,0.0,0.0,7.0,80.341492931939,babble-reversed_n13_p318-nine-p307-eight-p229-two-p284-one-p248-three-p245-five.wav,2,RX81,3,0.0,0.0,4.0,87.57049330475357,mgb_normalisation,87.57049330475357,90.34149293193902,9,3.0,False,1.4382600784301758
,2024-07-30 15:58:35,sub_115,3,distance,cathedral,spatial_unmasking,4,158,0,0,_three_,talker-p248_sex-f_text-_three_.wav,p248,f,5,30,4.0,7.0,RX81,6,0.0,0.0,7.0,81.34149293193902,babble-reversed_n13_p318-three-p307-one-p256-five-p248-nine-p245-two-p284-eight.wav,2,RX81,3,0.0,0.0,4.0,87.57049330475357,mgb_normalisation,87.57049330475357,90.34149293193902,3,3.0,True,1.2525732517242432
,2024-07-30 15:58:39,sub_115,3,distance,cathedral,spatial_unmasking,4,159,0,0,_eight_,talker-p248_sex-f_text-_eight_.wav,p248,f,5,31,4.0,7.0,RX81,6,0.0,0.0,7.0,81.34149293193902,babble-reversed_n13_p256-eight-p229-three-p307-nine-p245-five-p248-four-p268-two.wav,2,RX81,3,0.0,0.0,4.0,87.57049330475355,mgb_normalisation,87.57049330475357,90.34149293193902,8,4.0,False,1.5623905658721924
,2024-07-30 15:58:43,sub_115,3,distance,cathedral,spatial_unmasking,4,160,0,0,_eight_,talker-p248_sex-f_text-_eight_.wav,p248,f,5,32,4.0,7.0,RX81,6,0.0,0.0,7.0,82.34149293193902,babble-reversed_n13_p256-five-p229-one-p318-three-p248-nine-p284-eight-p268-two.wav,2,RX81,3,0.0,0.0,4.0,87.57049330475357,mgb_normalisation,87.57049330475357,90.34149293193902,8,9.0,False,1.6248867511749268
,2024-07-30 15:58:46,sub_115,3,distance,cathedral,spatial_unmasking,4,161,0,0,_four_,talker-p248_sex-f_text-_four_.wav,p248,f,5,33,4.0,7.0,RX81,6,0.0,0.0,7.0,83.34149293193902,babble-reversed_n13_p318-five-p229-four-p256-eight-p284-one-p245-three-p248-two.wav,2,RX81,3,0.0,0.0,4.0,87.57049330475357,mgb_normalisation,87.57049330475357,90.34149293193902,4,4.0,True,1.1249208450317385
,2024-07-30 15:58:50,sub_115,3,distance,cathedral,spatial_unmasking,4,162,0,0,_one_,talker-p248_sex-f_text-_one_.wav,p248,f,5,34,4.0,7.0,RX81,6,0.0,0.0,7.0,83.34149293193903,babble-reversed_n13_p256-eight-p229-three-p307-nine-p245-five-p248-four-p268-two.wav,2,RX81,3,0.0,0.0,4.0,87.57049330475355,mgb_normalisation,87.57049330475357,90.34149293193902,1,1.0,True,0.999962568283081
,2024-07-30 15:58:53,sub_115,3,distance,cathedral,spatial_unmasking,4,163,0,0,_four_,talker-p248_sex-f_text-_four_.wav,p248,f,5,35,4.0,7.0,RX81,6,0.0,0.0,7.0,82.34149293193902,babble-reversed_n13_p229-two-p318-eight-p256-three-p268-one-p248-nine-p284-five.wav,2,RX81,3,0.0,0.0,4.0,87.57049330475355,mgb_normalisation,87.57049330475357,90.34149293193902,4,4.0,True,1.0623602867126465
,2024-07-30 15:58:57,sub_115,3,distance,cathedral,spatial_unmasking,4,164,0,0,_eight_,talker-p248_sex-f_text-_eight_.wav,p248,f,5,36,4.0,7.0,RX81,6,0.0,0.0,7.0,82.34149293193902,babble-reversed_n13_p307-one-p318-five-p229-four-p268-eight-p284-two-p245-three.wav,2,RX81,3,0.0,0.0,4.0,87.57049330475355,mgb_normalisation,87.57049330475357,90.34149293193902,8,3.0,False,1.1874175071716309
,2024-07-30 15:59:00,sub_115,3,distance,cathedral,spatial_unmasking,4,165,0,0,_two_,talker-p248_sex-f_text-_two_.wav,p248,f,5,37,4.0,7.0,RX81,6,0.0,0.0,7.0,83.34149293193903,babble-reversed_n13_p307-nine-p229-one-p256-eight-p248-four-p284-two-p268-three.wav,2,RX81,3,0.0,0.0,4.0,87.57049330475357,mgb_normalisation,87.57049330475357,90.34149293193902,2,2.0,True,1.1720468997955322
,2024-07-30 15:59:04,sub_115,3,distance,cathedral,spatial_unmasking,4,166,0,0,_nine_,talker-p248_sex-f_text-_nine_.wav,p248,f,5,38,4.0,7.0,RX81,6,0.0,0.0,7.0,83.34149293193902,babble-reversed_n13_p318-four-p256-five-p229-three-p284-one-p245-eight-p248-nine.wav,2,RX81,3,0.0,0.0,4.0,87.57049330475357,mgb_normalisation,87.57049330475357,90.34149293193902,9,9.0,True,1.1874170303344729
,2024-07-30 16:02:15,sub_115,3,distance,cathedral,spatial_unmasking,5,167,0,0,_eight_,talker-p248_sex-f_text-_eight_.wav,p248,f,5,1,2.0,7.0,RX81,6,0.0,0.0,7.0,92.34149293193902,babble-reversed_n13_p229-two-p318-eight-p256-three-p268-one-p248-nine-p284-five.wav,0,RX81,1,0.0,0.0,2.0,84.40078082039426,mgb_normalisation,84.40078082039426,90.34149293193902,8,8.0,True,2.812433242797852
,2024-07-30 16:02:18,sub_115,3,distance,cathedral,spatial_unmasking,5,168,0,0,_six_,talker-p248_sex-f_text-_six_.wav,p248,f,5,2,2.0,7.0,RX81,6,0.0,0.0,7.0,88.34149293193902,babble-reversed_n13_p229-three-p256-nine-p318-five-p248-one-p245-eight-p284-two.wav,0,RX81,1,0.0,0.0,2.0,84.40078082039426,mgb_normalisation,84.40078082039426,90.34149293193902,6,6.0,True,0.999929666519165
,2024-07-30 16:02:22,sub_115,3,distance,cathedral,spatial_unmasking,5,169,0,0,_one_,talker-p248_sex-f_text-_one_.wav,p248,f,5,3,2.0,7.0,RX81,6,0.0,0.0,7.0,84.34149293193903,babble-reversed_n13_p256-eight-p229-three-p307-nine-p245-five-p248-four-p268-two.wav,0,RX81,1,0.0,0.0,2.0,84.40078082039426,mgb_normalisation,84.40078082039426,90.34149293193902,1,1.0,True,1.187480926513672
,2024-07-30 16:02:25,sub_115,3,distance,cathedral,spatial_unmasking,5,170,0,0,_three_,talker-p248_sex-f_text-_three_.wav,p248,f,5,4,2.0,7.0,RX81,6,0.0,0.0,7.0,80.341492931939,babble-reversed_n13_p229-two-p256-three-p318-eight-p284-five-p268-four-p245-one.wav,0,RX81,1,0.0,0.0,2.0,84.40078082039426,mgb_normalisation,84.40078082039426,90.34149293193902,3,3.0,True,1.000981092453003
,2024-07-30 16:02:28,sub_115,3,distance,cathedral,spatial_unmasking,5,171,0,0,_six_,talker-p248_sex-f_text-_six_.wav,p248,f,5,5,2.0,7.0,RX81,6,0.0,0.0,7.0,76.34149293193902,babble-reversed_n13_p229-one-p318-nine-p256-four-p284-eight-p268-five-p245-two.wav,0,RX81,1,0.0,0.0,2.0,84.40078082039426,mgb_normalisation,84.40078082039426,90.34149293193902,6,6.0,True,1.0624263286590576
,2024-07-30 16:02:32,sub_115,3,distance,cathedral,spatial_unmasking,5,172,0,0,_four_,talker-p248_sex-f_text-_four_.wav,p248,f,5,6,2.0,7.0,RX81,6,0.0,0.0,7.0,72.34149293193902,babble-reversed_n13_p256-nine-p307-four-p229-one-p284-three-p248-two-p245-five.wav,0,RX81,1,0.0,0.0,2.0,84.40078082039427,mgb_normalisation,84.40078082039426,90.34149293193902,4,8.0,False,1.249910593032837
,2024-07-30 16:02:36,sub_115,3,distance,cathedral,spatial_unmasking,5,173,0,0,_two_,talker-p248_sex-f_text-_two_.wav,p248,f,5,7,2.0,7.0,RX81,6,0.0,0.0,7.0,74.34149293193902,babble-reversed_n13_p229-one-p318-eight-p256-three-p268-two-p245-five-p248-nine.wav,0,RX81,1,0.0,0.0,2.0,84.40078082039426,mgb_normalisation,84.40078082039426,90.34149293193902,2,4.0,False,2.0615382194519043
,2024-07-30 16:02:40,sub_115,3,distance,cathedral,spatial_unmasking,5,174,0,0,_six_,talker-p248_sex-f_text-_six_.wav,p248,f,5,8,2.0,7.0,RX81,6,0.0,0.0,7.0,76.34149293193902,babble-reversed_n13_p307-four-p318-three-p256-eight-p284-two-p245-nine-p248-five.wav,0,RX81,1,0.0,0.0,2.0,84.40078082039426,mgb_normalisation,84.40078082039426,90.34149293193902,6,6.0,True,0.9994268417358398
,2024-07-30 16:02:43,sub_115,3,distance,cathedral,spatial_unmasking,5,175,0,0,_six_,talker-p248_sex-f_text-_six_.wav,p248,f,5,9,2.0,7.0,RX81,6,0.0,0.0,7.0,76.34149293193902,babble-reversed_n13_p256-five-p307-nine-p318-three-p284-eight-p268-one-p248-two.wav,0,RX81,1,0.0,0.0,2.0,84.40078082039426,mgb_normalisation,84.40078082039426,90.34149293193902,6,6.0,True,0.9374353885650636
,2024-07-30 16:02:47,sub_115,3,distance,cathedral,spatial_unmasking,5,176,0,0,_five_,talker-p248_sex-f_text-_five_.wav,p248,f,5,10,2.0,7.0,RX81,6,0.0,0.0,7.0,74.341492931939,babble-reversed_n13_p256-four-p307-eight-p318-two-p248-three-p284-nine-p268-one.wav,0,RX81,1,0.0,0.0,2.0,84.40078082039427,mgb_normalisation,84.40078082039426,90.34149293193902,5,3.0,False,1.6873831748962402
,2024-07-30 16:02:51,sub_115,3,distance,cathedral,spatial_unmasking,5,177,0,0,_eight_,talker-p248_sex-f_text-_eight_.wav,p248,f,5,11,2.0,7.0,RX81,6,0.0,0.0,7.0,75.34149293193903,babble-reversed_n13_p229-three-p256-nine-p318-five-p248-one-p245-eight-p284-two.wav,0,RX81,1,0.0,0.0,2.0,84.40078082039426,mgb_normalisation,84.40078082039426,90.34149293193902,8,9.0,False,1.6737878322601318
,2024-07-30 16:02:56,sub_115,3,distance,cathedral,spatial_unmasking,5,178,0,0,_five_,talker-p248_sex-f_text-_five_.wav,p248,f,5,12,2.0,7.0,RX81,6,0.0,0.0,7.0,76.34149293193902,babble-reversed_n13_p318-five-p256-nine-p307-two-p245-eight-p248-one-p284-four.wav,0,RX81,1,0.0,0.0,2.0,84.40078082039427,mgb_normalisation,84.40078082039426,90.34149293193902,5,5.0,True,2.1714329719543457
,2024-07-30 16:03:00,sub_115,3,distance,cathedral,spatial_unmasking,5,179,0,0,_five_,talker-p248_sex-f_text-_five_.wav,p248,f,5,13,2.0,7.0,RX81,6,0.0,0.0,7.0,76.34149293193902,babble-reversed_n13_p256-eight-p318-five-p307-four-p245-three-p268-one-p284-nine.wav,0,RX81,1,0.0,0.0,2.0,84.40078082039426,mgb_normalisation,84.40078082039426,90.34149293193902,5,9.0,False,1.6873126029968262
,2024-07-30 16:03:04,sub_115,3,distance,cathedral,spatial_unmasking,5,180,0,0,_two_,talker-p248_sex-f_text-_two_.wav,p248,f,5,14,2.0,7.0,RX81,6,0.0,0.0,7.0,77.34149293193903,babble-reversed_n13_p307-two-p256-four-p318-three-p284-eight-p248-five-p245-nine.wav,0,RX81,1,0.0,0.0,2.0,84.40078082039427,mgb_normalisation,84.40078082039426,90.34149293193902,2,2.0,True,1.4999592304229736
,2024-07-30 16:03:08,sub_115,3,distance,cathedral,spatial_unmasking,5,181,0,0,_four_,talker-p248_sex-f_text-_four_.wav,p248,f,5,15,2.0,7.0,RX81,6,0.0,0.0,7.0,77.341492931939,babble-reversed_n13_p229-nine-p318-one-p307-two-p248-eight-p245-five-p284-four.wav,0,RX81,1,0.0,0.0,2.0,84.40078082039426,mgb_normalisation,84.40078082039426,90.34149293193902,4,3.0,False,1.3124089241027832
,2024-07-30 16:03:11,sub_115,3,distance,cathedral,spatial_unmasking,5,182,0,0,_nine_,talker-p248_sex-f_text-_nine_.wav,p248,f,5,16,2.0,7.0,RX81,6,0.0,0.0,7.0,78.34149293193902,babble-reversed_n13_p256-five-p229-one-p318-three-p248-nine-p284-eight-p268-two.wav,0,RX81,1,0.0,0.0,2.0,84.40078082039427,mgb_normalisation,84.40078082039426,90.34149293193902,9,9.0,True,1.175323724746704
,2024-07-30 16:03:15,sub_115,3,distance,cathedral,spatial_unmasking,5,183,0,0,_nine_,talker-p248_sex-f_text-_nine_.wav,p248,f,5,17,2.0,7.0,RX81,6,0.0,0.0,7.0,78.34149293193902,babble-reversed_n13_p256-five-p307-nine-p318-three-p284-eight-p268-one-p248-two.wav,0,RX81,1,0.0,0.0,2.0,84.40078082039426,mgb_normalisation,84.40078082039426,90.34149293193902,9,3.0,False,1.7007904052734375
,2024-07-30 16:03:19,sub_115,3,distance,cathedral,spatial_unmasking,5,184,0,0,_three_,talker-p248_sex-f_text-_three_.wav,p248,f,5,18,2.0,7.0,RX81,6,0.0,0.0,7.0,79.341492931939,babble-reversed_n13_p256-five-p307-nine-p318-three-p284-eight-p268-one-p248-two.wav,0,RX81,1,0.0,0.0,2.0,84.40078082039426,mgb_normalisation,84.40078082039426,90.34149293193902,3,3.0,True,0.9999089241027832
,2024-07-30 16:03:22,sub_115,3,distance,cathedral,spatial_unmasking,5,185,0,0,_five_,talker-p248_sex-f_text-_five_.wav,p248,f,5,19,2.0,7.0,RX81,6,0.0,0.0,7.0,79.341492931939,babble-reversed_n13_p229-two-p318-eight-p256-three-p268-one-p248-nine-p284-five.wav,0,RX81,1,0.0,0.0,2.0,84.40078082039426,mgb_normalisation,84.40078082039426,90.34149293193902,5,5.0,True,1.062425136566162
,2024-07-30 16:03:26,sub_115,3,distance,cathedral,spatial_unmasking,5,186,0,0,_nine_,talker-p248_sex-f_text-_nine_.wav,p248,f,5,20,2.0,7.0,RX81,6,0.0,0.0,7.0,78.34149293193902,babble-reversed_n13_p256-three-p318-two-p229-nine-p248-four-p284-one-p268-eight.wav,0,RX81,1,0.0,0.0,2.0,84.40078082039426,mgb_normalisation,84.40078082039426,90.34149293193902,9,1.0,False,1.2453405857086182
,2024-07-30 16:03:29,sub_115,3,distance,cathedral,spatial_unmasking,5,187,0,0,_six_,talker-p248_sex-f_text-_six_.wav,p248,f,5,21,2.0,7.0,RX81,6,0.0,0.0,7.0,79.34149293193902,babble-reversed_n13_p229-nine-p256-four-p318-three-p268-eight-p248-two-p284-five.wav,0,RX81,1,0.0,0.0,2.0,84.40078082039426,mgb_normalisation,84.40078082039426,90.34149293193902,6,6.0,True,0.9999291896820068
,2024-07-30 16:03:33,sub_115,3,distance,cathedral,spatial_unmasking,5,188,0,0,_nine_,talker-p248_sex-f_text-_nine_.wav,p248,f,5,22,2.0,7.0,RX81,6,0.0,0.0,7.0,79.341492931939,babble-reversed_n13_p229-two-p256-three-p318-eight-p284-five-p268-four-p245-one.wav,0,RX81,1,0.0,0.0,2.0,84.40078082039426,mgb_normalisation,84.40078082039426,90.34149293193902,9,9.0,True,1.4998955726623535
,2024-07-30 16:03:37,sub_115,3,distance,cathedral,spatial_unmasking,5,189,0,0,_two_,talker-p248_sex-f_text-_two_.wav,p248,f,5,23,2.0,7.0,RX81,6,0.0,0.0,7.0,78.34149293193902,babble-reversed_n13_p229-five-p256-one-p318-three-p248-nine-p268-four-p284-eight.wav,0,RX81,1,0.0,0.0,2.0,84.40078082039426,mgb_normalisation,84.40078082039426,90.34149293193902,2,9.0,False,1.998383522033692
,2024-07-30 16:03:42,sub_115,3,distance,cathedral,spatial_unmasking,5,190,0,0,_one_,talker-p248_sex-f_text-_one_.wav,p248,f,5,24,2.0,7.0,RX81,6,0.0,0.0,7.0,79.34149293193902,babble-reversed_n13_p307-four-p318-three-p256-eight-p284-two-p245-nine-p248-five.wav,0,RX81,1,0.0,0.0,2.0,84.40078082039426,mgb_normalisation,84.40078082039426,90.34149293193902,1,5.0,False,2.251499652862549
,2024-07-30 16:03:46,sub_115,3,distance,cathedral,spatial_unmasking,5,191,0,0,_nine_,talker-p248_sex-f_text-_nine_.wav,p248,f,5,25,2.0,7.0,RX81,6,0.0,0.0,7.0,80.341492931939,babble-reversed_n13_p229-three-p307-one-p318-two-p245-eight-p268-five-p284-four.wav,0,RX81,1,0.0,0.0,2.0,84.40078082039426,mgb_normalisation,84.40078082039426,90.34149293193902,9,9.0,True,1.3132877349853516
,2024-07-30 16:03:50,sub_115,3,distance,cathedral,spatial_unmasking,5,192,0,0,_four_,talker-p248_sex-f_text-_four_.wav,p248,f,5,26,2.0,7.0,RX81,6,0.0,0.0,7.0,80.341492931939,babble-reversed_n13_p229-two-p318-eight-p256-three-p268-one-p248-nine-p284-five.wav,0,RX81,1,0.0,0.0,2.0,84.40078082039426,mgb_normalisation,84.40078082039426,90.34149293193902,4,4.0,True,1.5931766033172607
,2024-07-30 16:03:53,sub_115,3,distance,cathedral,spatial_unmasking,5,193,0,0,_four_,talker-p248_sex-f_text-_four_.wav,p248,f,5,27,2.0,7.0,RX81,6,0.0,0.0,7.0,79.341492931939,babble-reversed_n13_p229-one-p318-eight-p256-three-p268-nine-p248-five-p284-four.wav,0,RX81,1,0.0,0.0,2.0,84.40078082039426,mgb_normalisation,84.40078082039426,90.34149293193902,4,4.0,True,1.2499117851257324
,2024-07-30 16:03:57,sub_115,3,distance,cathedral,spatial_unmasking,5,194,0,0,_five_,talker-p248_sex-f_text-_five_.wav,p248,f,5,28,2.0,7.0,RX81,6,0.0,0.0,7.0,79.341492931939,babble-reversed_n13_p229-eight-p256-nine-p318-four-p245-three-p268-five-p284-two.wav,0,RX81,1,0.0,0.0,2.0,84.40078082039426,mgb_normalisation,84.40078082039426,90.34149293193902,5,5.0,True,1.18748140335083
,2024-07-30 16:04:01,sub_115,3,distance,cathedral,spatial_unmasking,5,195,0,0,_six_,talker-p248_sex-f_text-_six_.wav,p248,f,5,29,2.0,7.0,RX81,6,0.0,0.0,7.0,78.34149293193902,babble-reversed_n13_p318-five-p229-four-p256-eight-p284-one-p245-three-p248-two.wav,0,RX81,1,0.0,0.0,2.0,84.40078082039426,mgb_normalisation,84.40078082039426,90.34149293193902,6,6.0,True,1.2808585166931152
,2024-07-30 16:04:04,sub_115,3,distance,cathedral,spatial_unmasking,5,196,0,0,_nine_,talker-p248_sex-f_text-_nine_.wav,p248,f,5,30,2.0,7.0,RX81,6,0.0,0.0,7.0,78.34149293193902,babble-reversed_n13_p256-three-p318-one-p307-two-p284-nine-p268-four-p245-eight.wav,0,RX81,1,0.0,0.0,2.0,84.40078082039426,mgb_normalisation,84.40078082039426,90.34149293193902,9,3.0,False,1.3749699592590332
,2024-07-30 16:04:08,sub_115,3,distance,cathedral,spatial_unmasking,5,197,0,0,_four_,talker-p248_sex-f_text-_four_.wav,p248,f,5,31,2.0,7.0,RX81,6,0.0,0.0,7.0,79.341492931939,babble-reversed_n13_p229-one-p318-nine-p256-four-p284-eight-p268-five-p245-two.wav,0,RX81,1,0.0,0.0,2.0,84.40078082039426,mgb_normalisation,84.40078082039426,90.34149293193902,4,8.0,False,1.4998948574066162
,2024-07-30 16:04:12,sub_115,3,distance,cathedral,spatial_unmasking,5,198,0,0,_one_,talker-p248_sex-f_text-_one_.wav,p248,f,5,32,2.0,7.0,RX81,6,0.0,0.0,7.0,80.34149293193903,babble-reversed_n13_p229-two-p256-three-p318-eight-p284-five-p268-four-p245-one.wav,0,RX81,1,0.0,0.0,2.0,84.40078082039426,mgb_normalisation,84.40078082039426,90.34149293193902,1,9.0,False,1.0624260902404783
,2024-07-30 16:04:15,sub_115,3,distance,cathedral,spatial_unmasking,5,199,0,0,_eight_,talker-p248_sex-f_text-_eight_.wav,p248,f,5,33,2.0,7.0,RX81,6,0.0,0.0,7.0,81.34149293193902,babble-reversed_n13_p256-four-p229-two-p318-five-p268-one-p248-eight-p245-three.wav,0,RX81,1,0.0,0.0,2.0,84.40078082039426,mgb_normalisation,84.40078082039426,90.34149293193902,8,3.0,False,0.9975500106811525
,2024-07-30 16:04:20,sub_115,3,distance,cathedral,spatial_unmasking,5,200,0,0,_two_,talker-p248_sex-f_text-_two_.wav,p248,f,5,34,2.0,7.0,RX81,6,0.0,0.0,7.0,82.34149293193902,babble-reversed_n13_p229-nine-p307-five-p256-two-p248-three-p245-one-p268-eight.wav,0,RX81,1,0.0,0.0,2.0,84.40078082039426,mgb_normalisation,84.40078082039426,90.34149293193902,2,3.0,False,2.187006711959839
,2024-07-30 16:04:24,sub_115,3,distance,cathedral,spatial_unmasking,5,201,0,0,_two_,talker-p248_sex-f_text-_two_.wav,p248,f,5,35,2.0,7.0,RX81,6,0.0,0.0,7.0,83.34149293193903,babble-reversed_n13_p318-one-p307-two-p256-eight-p284-three-p248-five-p245-four.wav,0,RX81,1,0.0,0.0,2.0,84.40078082039427,mgb_normalisation,84.40078082039426,90.34149293193902,2,2.0,True,1.5623910427093506
,2024-07-30 16:04:27,sub_115,3,distance,cathedral,spatial_unmasking,5,202,0,0,_two_,talker-p248_sex-f_text-_two_.wav,p248,f,5,36,2.0,7.0,RX81,6,0.0,0.0,7.0,83.34149293193903,babble-reversed_n13_p318-five-p229-three-p256-four-p268-eight-p248-one-p245-nine.wav,0,RX81,1,0.0,0.0,2.0,84.40078082039426,mgb_normalisation,84.40078082039426,90.34149293193902,2,2.0,True,1.1249496936798096
,2024-07-30 16:04:31,sub_115,3,distance,cathedral,spatial_unmasking,5,203,0,0,_nine_,talker-p248_sex-f_text-_nine_.wav,p248,f,5,37,2.0,7.0,RX81,6,0.0,0.0,7.0,82.34149293193902,babble-reversed_n13_p256-eight-p318-two-p307-five-p245-four-p268-nine-p284-one.wav,0,RX81,1,0.0,0.0,2.0,84.40078082039426,mgb_normalisation,84.40078082039426,90.34149293193902,9,9.0,True,1.0625793933868408
,2024-07-30 16:04:35,sub_115,3,distance,cathedral,spatial_unmasking,5,204,0,0,_eight_,talker-p248_sex-f_text-_eight_.wav,p248,f,5,38,2.0,7.0,RX81,6,0.0,0.0,7.0,82.34149293193902,babble-reversed_n13_p318-three-p307-one-p256-five-p248-nine-p245-two-p284-eight.wav,0,RX81,1,0.0,0.0,2.0,84.40078082039426,mgb_normalisation,84.40078082039426,90.34149293193902,8,9.0,False,1.6863517761230469
,2024-07-30 16:04:38,sub_115,3,distance,cathedral,spatial_unmasking,5,205,0,0,_six_,talker-p248_sex-f_text-_six_.wav,p248,f,5,39,2.0,7.0,RX81,6,0.0,0.0,7.0,83.34149293193902,babble-reversed_n13_p307-five-p229-two-p318-four-p248-three-p245-nine-p268-eight.wav,0,RX81,1,0.0,0.0,2.0,84.40078082039426,mgb_normalisation,84.40078082039426,90.34149293193902,6,6.0,True,1.0624535083770752
,2024-07-30 16:04:42,sub_115,3,distance,cathedral,spatial_unmasking,5,206,0,0,_one_,talker-p248_sex-f_text-_one_.wav,p248,f,5,40,2.0,7.0,RX81,6,0.0,0.0,7.0,83.34149293193903,babble-reversed_n13_p229-one-p318-eight-p256-three-p268-two-p245-five-p248-nine.wav,0,RX81,1,0.0,0.0,2.0,84.40078082039426,mgb_normalisation,84.40078082039426,90.34149293193902,1,9.0,False,1.3793351650238037
,2024-07-30 16:04:46,sub_115,3,distance,cathedral,spatial_unmasking,5,207,0,0,_six_,talker-p248_sex-f_text-_six_.wav,p248,f,5,41,2.0,7.0,RX81,6,0.0,0.0,7.0,84.341492931939,babble-reversed_n13_p229-three-p307-one-p318-two-p245-eight-p268-five-p284-four.wav,0,RX81,1,0.0,0.0,2.0,84.40078082039426,mgb_normalisation,84.40078082039426,90.34149293193902,6,6.0,True,1.484349250793457
,2024-07-30 16:04:50,sub_115,3,distance,cathedral,spatial_unmasking,5,208,0,0,_five_,talker-p248_sex-f_text-_five_.wav,p248,f,5,42,2.0,7.0,RX81,6,0.0,0.0,7.0,84.341492931939,babble-reversed_n13_p256-two-p307-five-p318-nine-p248-eight-p245-four-p284-one.wav,0,RX81,1,0.0,0.0,2.0,84.40078082039426,mgb_normalisation,84.40078082039426,90.34149293193902,5,5.0,True,1.9364826679229736
,2024-07-30 16:06:23,sub_115,3,distance,cathedral,spatial_unmasking,6,209,0,0,_three_,talker-p248_sex-f_text-_three_.wav,p248,f,5,1,6.0,7.0,RX81,6,0.0,0.0,7.0,92.34149293193902,babble-reversed_n13_p318-four-p256-five-p229-three-p284-one-p245-eight-p248-nine.wav,4,RX81,5,0.0,0.0,6.0,89.31368318402099,mgb_normalisation,89.31368318402099,90.34149293193902,3,3.0,True,1.1874077320098877
,2024-07-30 16:06:27,sub_115,3,distance,cathedral,spatial_unmasking,6,210,0,0,_nine_,talker-p248_sex-f_text-_nine_.wav,p248,f,5,2,6.0,7.0,RX81,6,0.0,0.0,7.0,88.34149293193902,babble-reversed_n13_p229-two-p318-eight-p256-three-p268-one-p248-nine-p284-five.wav,4,RX81,5,0.0,0.0,6.0,89.31368318402099,mgb_normalisation,89.31368318402099,90.34149293193902,9,9.0,True,1.0591254234313965
,2024-07-30 16:06:31,sub_115,3,distance,cathedral,spatial_unmasking,6,211,0,0,_nine_,talker-p248_sex-f_text-_nine_.wav,p248,f,5,3,6.0,7.0,RX81,6,0.0,0.0,7.0,84.341492931939,babble-reversed_n13_p256-four-p307-eight-p318-two-p248-three-p284-nine-p268-one.wav,4,RX81,5,0.0,0.0,6.0,89.313683184021,mgb_normalisation,89.31368318402099,90.34149293193902,9,3.0,False,1.4326927661895752
,2024-07-30 16:06:34,sub_115,3,distance,cathedral,spatial_unmasking,6,212,0,0,_four_,talker-p248_sex-f_text-_four_.wav,p248,f,5,4,6.0,7.0,RX81,6,0.0,0.0,7.0,86.341492931939,babble-reversed_n13_p307-two-p256-four-p318-three-p284-eight-p248-five-p245-nine.wav,4,RX81,5,0.0,0.0,6.0,89.313683184021,mgb_normalisation,89.31368318402099,90.34149293193902,4,4.0,True,0.9999306201934814
,2024-07-30 16:06:38,sub_115,3,distance,cathedral,spatial_unmasking,6,213,0,0,_two_,talker-p248_sex-f_text-_two_.wav,p248,f,5,5,6.0,7.0,RX81,6,0.0,0.0,7.0,86.34149293193902,babble-reversed_n13_p318-three-p229-one-p256-eight-p245-five-p248-four-p284-nine.wav,4,RX81,5,0.0,0.0,6.0,89.313683184021,mgb_normalisation,89.31368318402099,90.34149293193902,2,2.0,True,1.6249516010284424
,2024-07-30 16:06:42,sub_115,3,distance,cathedral,spatial_unmasking,6,214,0,0,_five_,talker-p248_sex-f_text-_five_.wav,p248,f,5,6,6.0,7.0,RX81,6,0.0,0.0,7.0,84.341492931939,babble-reversed_n13_p318-one-p307-two-p256-eight-p284-three-p248-five-p245-four.wav,4,RX81,5,0.0,0.0,6.0,89.313683184021,mgb_normalisation,89.31368318402099,90.34149293193902,5,5.0,True,1.315495252609253
,2024-07-30 16:06:45,sub_115,3,distance,cathedral,spatial_unmasking,6,215,0,0,_five_,talker-p248_sex-f_text-_five_.wav,p248,f,5,7,6.0,7.0,RX81,6,0.0,0.0,7.0,84.341492931939,babble-reversed_n13_p229-nine-p307-five-p256-two-p248-three-p245-one-p268-eight.wav,4,RX81,5,0.0,0.0,6.0,89.31368318402099,mgb_normalisation,89.31368318402099,90.34149293193902,5,5.0,True,1.1237733364105225
,2024-07-30 16:06:49,sub_115,3,distance,cathedral,spatial_unmasking,6,216,0,0,_six_,talker-p248_sex-f_text-_six_.wav,p248,f,5,8,6.0,7.0,RX81,6,0.0,0.0,7.0,82.34149293193902,babble-reversed_n13_p307-two-p229-one-p256-five-p248-nine-p284-three-p268-eight.wav,4,RX81,5,0.0,0.0,6.0,89.313683184021,mgb_normalisation,89.31368318402099,90.34149293193902,6,6.0,True,1.124948024749756
,2024-07-30 16:06:52,sub_115,3,distance,cathedral,spatial_unmasking,6,217,0,0,_nine_,talker-p248_sex-f_text-_nine_.wav,p248,f,5,9,6.0,7.0,RX81,6,0.0,0.0,7.0,82.34149293193902,babble-reversed_n13_p229-three-p256-nine-p318-five-p248-one-p245-eight-p284-two.wav,4,RX81,5,0.0,0.0,6.0,89.31368318402099,mgb_normalisation,89.31368318402099,90.34149293193902,9,9.0,True,1.0624260902404783
,2024-07-30 16:06:56,sub_115,3,distance,cathedral,spatial_unmasking,6,218,0,0,_three_,talker-p248_sex-f_text-_three_.wav,p248,f,5,10,6.0,7.0,RX81,6,0.0,0.0,7.0,80.341492931939,babble-reversed_n13_p307-two-p256-four-p318-three-p284-eight-p248-five-p245-nine.wav,4,RX81,5,0.0,0.0,6.0,89.313683184021,mgb_normalisation,89.31368318402099,90.34149293193902,3,3.0,True,1.1859369277954102
,2024-07-30 16:06:59,sub_115,3,distance,cathedral,spatial_unmasking,6,219,0,0,_five_,talker-p248_sex-f_text-_five_.wav,p248,f,5,11,6.0,7.0,RX81,6,0.0,0.0,7.0,80.341492931939,babble-reversed_n13_p229-five-p256-three-p318-nine-p248-two-p284-four-p268-one.wav,4,RX81,5,0.0,0.0,6.0,89.313683184021,mgb_normalisation,89.31368318402099,90.34149293193902,5,5.0,True,0.9999306201934814
,2024-07-30 16:07:03,sub_115,3,distance,cathedral,spatial_unmasking,6,220,0,0,_nine_,talker-p248_sex-f_text-_nine_.wav,p248,f,5,12,6.0,7.0,RX81,6,0.0,0.0,7.0,78.34149293193902,babble-reversed_n13_p229-one-p318-eight-p256-three-p268-two-p245-five-p248-nine.wav,4,RX81,5,0.0,0.0,6.0,89.31368318402099,mgb_normalisation,89.31368318402099,90.34149293193902,9,3.0,False,1.0624256134033203
,2024-07-30 16:07:07,sub_115,3,distance,cathedral,spatial_unmasking,6,221,0,0,_eight_,talker-p248_sex-f_text-_eight_.wav,p248,f,5,13,6.0,7.0,RX81,6,0.0,0.0,7.0,79.34149293193902,babble-reversed_n13_p318-nine-p256-five-p307-eight-p268-three-p248-one-p245-four.wav,4,RX81,5,0.0,0.0,6.0,89.31368318402099,mgb_normalisation,89.31368318402099,90.34149293193902,8,4.0,False,1.8629238605499268
,2024-07-30 16:07:11,sub_115,3,distance,cathedral,spatial_unmasking,6,222,0,0,_two_,talker-p248_sex-f_text-_two_.wav,p248,f,5,14,6.0,7.0,RX81,6,0.0,0.0,7.0,80.34149293193903,babble-reversed_n13_p229-five-p318-two-p307-eight-p268-three-p248-four-p245-one.wav,4,RX81,5,0.0,0.0,6.0,89.313683184021,mgb_normalisation,89.31368318402099,90.34149293193902,2,2.0,True,1.1887307167053225
,2024-07-30 16:07:14,sub_115,3,distance,cathedral,spatial_unmasking,6,223,0,0,_eight_,talker-p248_sex-f_text-_eight_.wav,p248,f,5,15,6.0,7.0,RX81,6,0.0,0.0,7.0,80.34149293193903,babble-reversed_n13_p256-four-p229-eight-p307-five-p248-three-p245-one-p284-two.wav,4,RX81,5,0.0,0.0,6.0,89.31368318402099,mgb_normalisation,89.31368318402099,90.34149293193902,8,3.0,False,1.4998598098754885
,2024-07-30 16:07:18,sub_115,3,distance,cathedral,spatial_unmasking,6,224,0,0,_nine_,talker-p248_sex-f_text-_nine_.wav,p248,f,5,16,6.0,7.0,RX81,6,0.0,0.0,7.0,81.34149293193902,babble-reversed_n13_p229-nine-p318-one-p307-two-p248-eight-p245-five-p284-four.wav,4,RX81,5,0.0,0.0,6.0,89.31368318402099,mgb_normalisation,89.31368318402099,90.34149293193902,9,9.0,True,1.624886989593506
,2024-07-30 16:07:24,sub_115,3,distance,cathedral,spatial_unmasking,6,225,0,0,_nine_,talker-p248_sex-f_text-_nine_.wav,p248,f,5,17,6.0,7.0,RX81,6,0.0,0.0,7.0,81.34149293193902,babble-reversed_n13_p256-five-p229-one-p318-three-p248-nine-p284-eight-p268-two.wav,4,RX81,5,0.0,0.0,6.0,89.31368318402099,mgb_normalisation,89.31368318402099,90.34149293193902,9,9.0,True,2.685805320739746
,2024-07-30 16:07:28,sub_115,3,distance,cathedral,spatial_unmasking,6,226,0,0,_eight_,talker-p248_sex-f_text-_eight_.wav,p248,f,5,18,6.0,7.0,RX81,6,0.0,0.0,7.0,80.34149293193903,babble-reversed_n13_p229-five-p256-one-p318-three-p248-nine-p268-four-p284-eight.wav,4,RX81,5,0.0,0.0,6.0,89.31368318402099,mgb_normalisation,89.31368318402099,90.34149293193902,8,8.0,True,1.627011775970459
,2024-07-30 16:07:31,sub_115,3,distance,cathedral,spatial_unmasking,6,227,0,0,_five_,talker-p248_sex-f_text-_five_.wav,p248,f,5,19,6.0,7.0,RX81,6,0.0,0.0,7.0,80.341492931939,babble-reversed_n13_p256-three-p318-two-p229-nine-p248-four-p284-one-p268-eight.wav,4,RX81,5,0.0,0.0,6.0,89.31368318402099,mgb_normalisation,89.31368318402099,90.34149293193902,5,4.0,False,1.4996867179870603
,2024-07-30 16:07:35,sub_115,3,distance,cathedral,spatial_unmasking,6,228,0,0,_nine_,talker-p248_sex-f_text-_nine_.wav,p248,f,5,20,6.0,7.0,RX81,6,0.0,0.0,7.0,81.34149293193902,babble-reversed_n13_p229-two-p307-five-p318-four-p284-one-p248-nine-p268-eight.wav,4,RX81,5,0.0,0.0,6.0,89.31368318402099,mgb_normalisation,89.31368318402099,90.34149293193902,9,9.0,True,1.1875841617584229
,2024-07-30 16:07:38,sub_115,3,distance,cathedral,spatial_unmasking,6,229,0,0,_three_,talker-p248_sex-f_text-_three_.wav,p248,f,5,21,6.0,7.0,RX81,6,0.0,0.0,7.0,81.34149293193902,babble-reversed_n13_p256-four-p229-two-p318-five-p268-one-p248-eight-p245-three.wav,4,RX81,5,0.0,0.0,6.0,89.31368318402099,mgb_normalisation,89.31368318402099,90.34149293193902,3,3.0,True,1.0623984336853027
,2024-07-30 16:07:43,sub_115,3,distance,cathedral,spatial_unmasking,6,230,0,0,_nine_,talker-p248_sex-f_text-_nine_.wav,p248,f,5,22,6.0,7.0,RX81,6,0.0,0.0,7.0,80.341492931939,babble-reversed_n13_p229-nine-p318-one-p307-two-p248-eight-p245-five-p284-four.wav,4,RX81,5,0.0,0.0,6.0,89.31368318402099,mgb_normalisation,89.31368318402099,90.34149293193902,9,9.0,True,1.8160810470581048
,2024-07-30 16:07:47,sub_115,3,distance,cathedral,spatial_unmasking,6,231,0,0,_three_,talker-p248_sex-f_text-_three_.wav,p248,f,5,23,6.0,7.0,RX81,6,0.0,0.0,7.0,80.341492931939,babble-reversed_n13_p256-five-p229-one-p318-three-p248-nine-p284-eight-p268-two.wav,4,RX81,5,0.0,0.0,6.0,89.31368318402099,mgb_normalisation,89.31368318402099,90.34149293193902,3,9.0,False,2.248762845993042
,2024-07-30 16:07:51,sub_115,3,distance,cathedral,spatial_unmasking,6,232,0,0,_three_,talker-p248_sex-f_text-_three_.wav,p248,f,5,24,6.0,7.0,RX81,6,0.0,0.0,7.0,81.34149293193902,babble-reversed_n13_p256-three-p318-one-p307-two-p284-nine-p268-four-p245-eight.wav,4,RX81,5,0.0,0.0,6.0,89.31368318402099,mgb_normalisation,89.31368318402099,90.34149293193902,3,3.0,True,1.437368392944336
,2024-07-30 16:07:55,sub_115,3,distance,cathedral,spatial_unmasking,6,233,0,0,_nine_,talker-p248_sex-f_text-_nine_.wav,p248,f,5,25,6.0,7.0,RX81,6,0.0,0.0,7.0,81.34149293193902,babble-reversed_n13_p229-one-p318-eight-p256-three-p268-two-p245-five-p248-nine.wav,4,RX81,5,0.0,0.0,6.0,89.31368318402099,mgb_normalisation,89.31368318402099,90.34149293193902,9,9.0,True,1.312408685684204
,2024-07-30 16:07:59,sub_115,3,distance,cathedral,spatial_unmasking,6,234,0,0,_five_,talker-p248_sex-f_text-_five_.wav,p248,f,5,26,6.0,7.0,RX81,6,0.0,0.0,7.0,80.341492931939,babble-reversed_n13_p229-eight-p256-nine-p318-four-p245-three-p268-five-p284-two.wav,4,RX81,5,0.0,0.0,6.0,89.31368318402099,mgb_normalisation,89.31368318402099,90.34149293193902,5,5.0,True,1.249913454055786
,2024-07-30 16:08:02,sub_115,3,distance,cathedral,spatial_unmasking,6,235,0,0,_four_,talker-p248_sex-f_text-_four_.wav,p248,f,5,27,6.0,7.0,RX81,6,0.0,0.0,7.0,80.341492931939,babble-reversed_n13_p256-eight-p318-five-p307-four-p245-three-p268-one-p284-nine.wav,4,RX81,5,0.0,0.0,6.0,89.31368318402099,mgb_normalisation,89.31368318402099,90.34149293193902,4,4.0,True,1.248767375946045
,2024-07-30 16:08:06,sub_115,3,distance,cathedral,spatial_unmasking,6,236,0,0,_five_,talker-p248_sex-f_text-_five_.wav,p248,f,5,28,6.0,7.0,RX81,6,0.0,0.0,7.0,79.341492931939,babble-reversed_n13_p318-five-p229-three-p256-four-p268-eight-p248-one-p245-nine.wav,4,RX81,5,0.0,0.0,6.0,89.31368318402099,mgb_normalisation,89.31368318402099,90.34149293193902,5,5.0,True,1.124175786972046
,2024-07-30 16:08:10,sub_115,3,distance,cathedral,spatial_unmasking,6,237,0,0,_five_,talker-p248_sex-f_text-_five_.wav,p248,f,5,29,6.0,7.0,RX81,6,0.0,0.0,7.0,79.341492931939,babble-reversed_n13_p256-eight-p229-three-p307-nine-p245-five-p248-four-p268-two.wav,4,RX81,5,0.0,0.0,6.0,89.31368318402099,mgb_normalisation,89.31368318402099,90.34149293193902,5,1.0,False,1.687382459640503
,2024-07-30 16:08:13,sub_115,3,distance,cathedral,spatial_unmasking,6,238,0,0,_six_,talker-p248_sex-f_text-_six_.wav,p248,f,5,30,6.0,7.0,RX81,6,0.0,0.0,7.0,80.34149293193903,babble-reversed_n13_p229-nine-p318-one-p307-two-p248-eight-p245-five-p284-four.wav,4,RX81,5,0.0,0.0,6.0,89.31368318402099,mgb_normalisation,89.31368318402099,90.34149293193902,6,6.0,True,1.062424898147583
,2024-07-30 16:08:17,sub_115,3,distance,cathedral,spatial_unmasking,6,239,0,0,_nine_,talker-p248_sex-f_text-_nine_.wav,p248,f,5,31,6.0,7.0,RX81,6,0.0,0.0,7.0,80.341492931939,babble-reversed_n13_p229-five-p256-one-p318-three-p248-nine-p268-four-p284-eight.wav,4,RX81,5,0.0,0.0,6.0,89.31368318402099,mgb_normalisation,89.31368318402099,90.34149293193902,9,9.0,True,1.0034658908843994
,2024-07-30 16:08:21,sub_115,3,distance,cathedral,spatial_unmasking,6,240,0,0,_two_,talker-p248_sex-f_text-_two_.wav,p248,f,5,32,6.0,7.0,RX81,6,0.0,0.0,7.0,79.34149293193902,babble-reversed_n13_p229-five-p256-one-p318-three-p248-nine-p268-four-p284-eight.wav,4,RX81,5,0.0,0.0,6.0,89.31368318402099,mgb_normalisation,89.31368318402099,90.34149293193902,2,9.0,False,1.3733563423156738
,2024-07-30 16:08:24,sub_115,3,distance,cathedral,spatial_unmasking,6,241,0,0,_nine_,talker-p248_sex-f_text-_nine_.wav,p248,f,5,33,6.0,7.0,RX81,6,0.0,0.0,7.0,80.341492931939,babble-reversed_n13_p307-two-p229-one-p256-five-p248-nine-p284-three-p268-eight.wav,4,RX81,5,0.0,0.0,6.0,89.313683184021,mgb_normalisation,89.31368318402099,90.34149293193902,9,3.0,False,1.312408685684204
,2024-07-30 16:08:28,sub_115,3,distance,cathedral,spatial_unmasking,6,242,0,0,_three_,talker-p248_sex-f_text-_three_.wav,p248,f,5,34,6.0,7.0,RX81,6,0.0,0.0,7.0,81.34149293193902,babble-reversed_n13_p229-eight-p256-nine-p318-four-p245-three-p268-five-p284-two.wav,4,RX81,5,0.0,0.0,6.0,89.31368318402099,mgb_normalisation,89.31368318402099,90.34149293193902,3,3.0,True,1.2499120235443115
,2024-07-30 16:08:31,sub_115,3,distance,cathedral,spatial_unmasking,6,243,0,0,_two_,talker-p248_sex-f_text-_two_.wav,p248,f,5,35,6.0,7.0,RX81,6,0.0,0.0,7.0,81.34149293193902,babble-reversed_n13_p318-five-p256-nine-p307-two-p245-eight-p248-one-p284-four.wav,4,RX81,5,0.0,0.0,6.0,89.313683184021,mgb_normalisation,89.31368318402099,90.34149293193902,2,2.0,True,1.1127943992614746
,2024-07-30 16:09:47,sub_115,3,distance,cathedral,spatial_unmasking,7,244,0,0,_four_,talker-p248_sex-f_text-_four_.wav,p248,f,5,1,12.0,7.0,RX81,6,0.0,0.0,7.0,92.34149293193902,babble-reversed_n13_p256-three-p318-two-p229-nine-p248-four-p284-one-p268-eight.wav,10,RX81,11,0.0,0.0,12.0,93.00003341222715,mgb_normalisation,93.00003341222715,90.34149293193902,4,4.0,True,1.7483139038085938
,2024-07-30 16:09:51,sub_115,3,distance,cathedral,spatial_unmasking,7,245,0,0,_five_,talker-p248_sex-f_text-_five_.wav,p248,f,5,2,12.0,7.0,RX81,6,0.0,0.0,7.0,88.34149293193902,babble-reversed_n13_p256-eight-p318-two-p307-five-p245-four-p268-nine-p284-one.wav,10,RX81,11,0.0,0.0,12.0,93.00003341222718,mgb_normalisation,93.00003341222715,90.34149293193902,5,5.0,True,1.249561786651611
,2024-07-30 16:09:54,sub_115,3,distance,cathedral,spatial_unmasking,7,246,0,0,_four_,talker-p248_sex-f_text-_four_.wav,p248,f,5,3,12.0,7.0,RX81,6,0.0,0.0,7.0,84.341492931939,babble-reversed_n13_p318-three-p307-one-p256-five-p248-nine-p245-two-p284-eight.wav,10,RX81,11,0.0,0.0,12.0,93.00003341222718,mgb_normalisation,93.00003341222715,90.34149293193902,4,8.0,False,1.5623912811279297
,2024-07-30 16:09:58,sub_115,3,distance,cathedral,spatial_unmasking,7,247,0,0,_six_,talker-p248_sex-f_text-_six_.wav,p248,f,5,4,12.0,7.0,RX81,6,0.0,0.0,7.0,86.34149293193902,babble-reversed_n13_p229-five-p318-three-p307-two-p245-four-p284-nine-p248-eight.wav,10,RX81,11,0.0,0.0,12.0,93.00003341222715,mgb_normalisation,93.00003341222715,90.34149293193902,6,6.0,True,0.9999306201934814
,2024-07-30 16:10:02,sub_115,3,distance,cathedral,spatial_unmasking,7,248,0,0,_three_,talker-p248_sex-f_text-_three_.wav,p248,f,5,5,12.0,7.0,RX81,6,0.0,0.0,7.0,86.34149293193902,babble-reversed_n13_p229-three-p256-nine-p318-five-p248-one-p245-eight-p284-two.wav,10,RX81,11,0.0,0.0,12.0,93.00003341222718,mgb_normalisation,93.00003341222715,90.34149293193902,3,3.0,True,1.244330644607544
,2024-07-30 16:10:05,sub_115,3,distance,cathedral,spatial_unmasking,7,249,0,0,_three_,talker-p248_sex-f_text-_three_.wav,p248,f,5,6,12.0,7.0,RX81,6,0.0,0.0,7.0,84.341492931939,babble-reversed_n13_p229-two-p256-three-p318-eight-p284-five-p268-four-p245-one.wav,10,RX81,11,0.0,0.0,12.0,93.00003341222718,mgb_normalisation,93.00003341222715,90.34149293193902,3,3.0,True,0.9374346733093262
,2024-07-30 16:10:08,sub_115,3,distance,cathedral,spatial_unmasking,7,250,0,0,_five_,talker-p248_sex-f_text-_five_.wav,p248,f,5,7,12.0,7.0,RX81,6,0.0,0.0,7.0,84.341492931939,babble-reversed_n13_p256-four-p229-eight-p307-five-p248-three-p245-one-p284-two.wav,10,RX81,11,0.0,0.0,12.0,93.00003341222715,mgb_normalisation,93.00003341222715,90.34149293193902,5,5.0,True,0.9999287128448486
,2024-07-30 16:10:13,sub_115,3,distance,cathedral,spatial_unmasking,7,251,0,0,_four_,talker-p248_sex-f_text-_four_.wav,p248,f,5,8,12.0,7.0,RX81,6,0.0,0.0,7.0,82.34149293193902,babble-reversed_n13_p256-eight-p318-five-p307-four-p245-three-p268-one-p284-nine.wav,10,RX81,11,0.0,0.0,12.0,93.00003341222715,mgb_normalisation,93.00003341222715,90.34149293193902,4,4.0,True,2.18984055519104
,2024-07-30 16:10:16,sub_115,3,distance,cathedral,spatial_unmasking,7,252,0,0,_five_,talker-p248_sex-f_text-_five_.wav,p248,f,5,9,12.0,7.0,RX81,6,0.0,0.0,7.0,82.341492931939,babble-reversed_n13_p307-four-p318-three-p256-eight-p284-two-p245-nine-p248-five.wav,10,RX81,11,0.0,0.0,12.0,93.00003341222715,mgb_normalisation,93.00003341222715,90.34149293193902,5,5.0,True,0.9320414066314696
,2024-07-30 16:10:20,sub_115,3,distance,cathedral,spatial_unmasking,7,253,0,0,_three_,talker-p248_sex-f_text-_three_.wav,p248,f,5,10,12.0,7.0,RX81,6,0.0,0.0,7.0,80.341492931939,babble-reversed_n13_p229-five-p256-three-p318-nine-p248-two-p284-four-p268-one.wav,10,RX81,11,0.0,0.0,12.0,93.00003341222718,mgb_normalisation,93.00003341222715,90.34149293193902,3,3.0,True,1.124921798706055
,2024-07-30 16:10:23,sub_115,3,distance,cathedral,spatial_unmasking,7,254,0,0,_two_,talker-p248_sex-f_text-_two_.wav,p248,f,5,11,12.0,7.0,RX81,6,0.0,0.0,7.0,80.34149293193903,babble-reversed_n13_p256-eight-p318-five-p307-four-p245-three-p268-one-p284-nine.wav,10,RX81,11,0.0,0.0,12.0,93.00003341222715,mgb_normalisation,93.00003341222715,90.34149293193902,2,2.0,True,1.1249396800994873
,2024-07-30 16:10:27,sub_115,3,distance,cathedral,spatial_unmasking,7,255,0,0,_eight_,talker-p248_sex-f_text-_eight_.wav,p248,f,5,12,12.0,7.0,RX81,6,0.0,0.0,7.0,78.34149293193902,babble-reversed_n13_p307-four-p318-three-p256-eight-p284-two-p245-nine-p248-five.wav,10,RX81,11,0.0,0.0,12.0,93.00003341222715,mgb_normalisation,93.00003341222715,90.34149293193902,8,8.0,True,1.749347448348999
,2024-07-30 16:10:31,sub_115,3,distance,cathedral,spatial_unmasking,7,256,0,0,_three_,talker-p248_sex-f_text-_three_.wav,p248,f,5,13,12.0,7.0,RX81,6,0.0,0.0,7.0,78.34149293193902,babble-reversed_n13_p256-nine-p307-four-p229-one-p284-three-p248-two-p245-five.wav,10,RX81,11,0.0,0.0,12.0,93.00003341222718,mgb_normalisation,93.00003341222715,90.34149293193902,3,3.0,True,1.377152681350708
,2024-07-30 16:10:36,sub_115,3,distance,cathedral,spatial_unmasking,7,257,0,0,_eight_,talker-p248_sex-f_text-_eight_.wav,p248,f,5,14,12.0,7.0,RX81,6,0.0,0.0,7.0,76.34149293193902,babble-reversed_n13_p318-five-p256-nine-p307-two-p245-eight-p248-one-p284-four.wav,10,RX81,11,0.0,0.0,12.0,93.00003341222718,mgb_normalisation,93.00003341222715,90.34149293193902,8,1.0,False,2.0605084896087646
,2024-07-30 16:10:40,sub_115,3,distance,cathedral,spatial_unmasking,7,258,0,0,_four_,talker-p248_sex-f_text-_four_.wav,p248,f,5,15,12.0,7.0,RX81,6,0.0,0.0,7.0,77.341492931939,babble-reversed_n13_p229-five-p318-two-p307-eight-p268-three-p248-four-p245-one.wav,10,RX81,11,0.0,0.0,12.0,93.00003341222718,mgb_normalisation,93.00003341222715,90.34149293193902,4,4.0,True,1.6874098777770996
,2024-07-30 16:10:44,sub_115,3,distance,cathedral,spatial_unmasking,7,259,0,0,_four_,talker-p248_sex-f_text-_four_.wav,p248,f,5,16,12.0,7.0,RX81,6,0.0,0.0,7.0,77.341492931939,babble-reversed_n13_p229-eight-p256-nine-p318-four-p245-three-p268-five-p284-two.wav,10,RX81,11,0.0,0.0,12.0,93.00003341222715,mgb_normalisation,93.00003341222715,90.34149293193902,4,4.0,True,1.4998955726623535
