,event_id,subject_id,timestamp,session_index,plane,setup,task,block,trial_index,stim_number,stim_type,stim_country_ids,stim_sexes,stim_talker_ids,speaker_ids,stim_level,resp_number,is_correct,speaker_distance_mean,speaker_distance_st_dev,reaction_time,spectral_coverage
0,,sub_116,2024-07-18 15:39:44,3,distance,cathedral,numerosity_judgement,1,0,5,countries_forward,"['_Sudan_', '_Britain_', '_Tonga_', '_Oman_', '_Togo_']","['f', 'f', 'm', 'm', 'f']","['p268', 'p245', 'p318', 'p256', 'p284']","[3, 7, 2, 0, 10]","[89.14911522239515, 91.73820004985969, 87.57049330475357, 84.40078082039426, 93.00003341222717]",3.0,False,6.4,4.03732584763727,2.1249217987060547,0.910259902394734
0,,sub_116,2024-07-18 15:39:47,3,distance,cathedral,numerosity_judgement,1,1,2,countries_forward,"['_Yemen_', '_Belgium_']","['m', 'm']","['p256', 'p307']","[3, 7]","[89.14911522239515, 91.73820004985969]",2.0,True,7.0,2.8284271247461903,1.8108887672424316,0.7232323232323232
0,,sub_116,2024-07-18 15:39:50,3,distance,cathedral,numerosity_judgement,1,2,3,countries_forward,"['_Yemen_', '_Sudan_', '_Britain_']","['f', 'f', 'm']","['p248', 'p268', 'p229']","[1, 9, 0]","[86.2038576498559, 92.00610777531934, 84.40078082039426]",5.0,False,5.333333333333333,4.932882862316247,1.752356767654419,0.9770400635569176
0,,sub_116,2024-07-18 15:39:55,3,distance,cathedral,numerosity_judgement,1,3,6,countries_forward,"['_Britain_', '_Oman_', '_Cuba_', '_Togo_', '_Tonga_', '_Congo_']","['m', 'f', 'f', 'f', 'm', 'm']","['p318', 'p248', 'p268', 'p284', 'p256', 'p307']","[1, 7, 3, 6, 4, 8]","[86.2038576498559, 91.73820004985969, 89.14911522239515, 91.58892582949886, 89.31368318402099, 92.0152836843556]",6.0,True,6.833333333333333,2.6394443859772205,2.4374072551727295,0.8162183634093746
0,,sub_116,2024-07-18 15:39:59,3,distance,cathedral,numerosity_judgement,1,4,4,countries_forward,"['_Japan_', '_Cuba_', '_Tonga_', '_Congo_']","['m', 'm', 'f', 'f']","['p256', 'p318', 'p268', 'p245']","[5, 3, 7, 10]","[90.34149293193902, 89.14911522239515, 91.73820004985969, 93.00003341222717]",4.0,True,8.25,2.9860788111948193,2.124905586242676,0.8619679945522642
0,,sub_116,2024-07-18 15:40:02,3,distance,cathedral,numerosity_judgement,1,5,5,countries_forward,"['_Syria_', '_Cuba_', '_Togo_', '_Tonga_', '_Oman_']","['f', 'f', 'm', 'f', 'm']","['p248', 'p268', 'p318', 'p245', 'p229']","[0, 3, 4, 6, 10]","[84.40078082039426, 89.14911522239515, 89.31368318402099, 91.58892582949886, 93.00003341222717]",4.0,False,6.6,3.714835124201342,2.1229286193847656,0.696220633299285
0,,sub_116,2024-07-18 15:41:16,3,distance,cathedral,numerosity_judgement,1,6,2,countries_forward,"['_Syria_', '_Togo_']","['m', 'm']","['p307', 'p318']","[4, 1]","[89.31368318402099, 86.2038576498559]",2.0,True,4.5,2.1213203435596424,71.5709912776947,0.9275905118601748
0,,sub_116,2024-07-18 15:41:20,3,distance,cathedral,numerosity_judgement,1,7,6,countries_forward,"['_Japan_', '_Peru_', '_Oman_', '_Mali_', '_Britain_', '_Sudan_']","['m', 'f', 'm', 'f', 'm', 'm']","['p256', 'p268', 'p307', 'p248', 'p318', 'p229']","[5, 6, 10, 0, 3, 7]","[90.34149293193902, 91.58892582949886, 93.00003341222717, 84.40078082039426, 89.14911522239515, 91.73820004985969]",5.0,False,7.166666666666667,3.4302575219167823,2.5623810291290283,0.8541822721598002
0,,sub_116,2024-07-18 15:41:24,3,distance,cathedral,numerosity_judgement,1,8,3,countries_forward,"['_Syria_', '_Yemen_', '_Tonga_']","['m', 'm', 'f']","['p256', 'p307', 'p248']","[10, 6, 9]","[93.00003341222717, 91.58892582949886, 92.00610777531934]",3.0,True,10.333333333333334,2.0816659994661326,2.2498972415924072,0.8491431165588469
0,,sub_116,2024-07-18 15:41:28,3,distance,cathedral,numerosity_judgement,1,9,4,countries_forward,"['_Yemen_', '_Japan_', '_Britain_', '_Sudan_']","['m', 'f', 'm', 'f']","['p318', 'p284', 'p307', 'p245']","[5, 10, 7, 4]","[90.34149293193902, 93.00003341222717, 91.73820004985969, 89.31368318402099]",4.0,True,8.5,2.6457513110645907,2.6970999240875244,0.9041425490863692
0,,sub_116,2024-07-18 15:41:32,3,distance,cathedral,numerosity_judgement,1,10,2,countries_forward,"['_Mali_', '_Oman_']","['m', 'm']","['p307', 'p256']","[5, 7]","[90.34149293193902, 91.73820004985969]",2.0,True,8.0,1.4142135623730951,1.8124470710754395,0.5621949835432981
0,,sub_116,2024-07-18 15:41:36,3,distance,cathedral,numerosity_judgement,1,11,4,countries_forward,"['_Peru_', '_Togo_', '_Yemen_', '_Oman_']","['f', 'f', 'm', 'f']","['p284', 'p268', 'p307', 'p245']","[1, 4, 6, 10]","[86.2038576498559, 89.31368318402099, 91.58892582949886, 93.00003341222717]",4.0,True,7.25,3.774917217635375,1.9435172080993652,0.7177959368970604
0,,sub_116,2024-07-18 15:41:39,3,distance,cathedral,numerosity_judgement,1,12,3,countries_forward,"['_Mali_', '_Yemen_', '_Britain_']","['m', 'f', 'f']","['p318', 'p245', 'p248']","[1, 10, 8]","[86.2038576498559, 93.00003341222717, 92.0152836843556]",3.0,True,8.333333333333334,4.725815626252608,1.4999089241027832,0.8174895017591647
0,,sub_116,2024-07-18 15:41:42,3,distance,cathedral,numerosity_judgement,1,13,5,countries_forward,"['_Tonga_', '_Belgium_', '_Yemen_', '_Cuba_', '_Peru_']","['m', 'f', 'f', 'f', 'f']","['p318', 'p248', 'p284', 'p245', 'p268']","[3, 9, 8, 5, 2]","[89.14911522239515, 92.00610777531934, 92.0152836843556, 90.34149293193902, 87.57049330475357]",5.0,True,7.4,3.0495901363953815,1.5612096786499023,0.844274202701169
0,,sub_116,2024-07-18 15:41:45,3,distance,cathedral,numerosity_judgement,1,14,6,countries_forward,"['_Oman_', '_Cuba_', '_Mali_', '_Britain_', '_Togo_', '_Tonga_']","['m', 'm', 'm', 'f', 'm', 'f']","['p229', 'p318', 'p256', 'p248', 'p307', 'p245']","[10, 3, 4, 9, 8, 5]","[93.00003341222717, 89.14911522239515, 89.31368318402099, 92.00610777531934, 92.0152836843556, 90.34149293193902]",6.0,True,8.5,2.8809720581775866,1.3156874179840088,0.7045851776188855
0,,sub_116,2024-07-18 15:41:49,3,distance,cathedral,numerosity_judgement,1,15,2,countries_forward,"['_Mali_', '_Congo_']","['m', 'm']","['p307', 'p256']","[9, 4]","[92.00610777531934, 89.31368318402099]",4.0,False,8.5,3.5355339059327378,1.6874196529388428,0.7744523890591306
0,,sub_116,2024-07-18 15:41:52,3,distance,cathedral,numerosity_judgement,1,16,6,countries_forward,"['_Sudan_', '_Britain_', '_Belgium_', '_Japan_', '_Yemen_', '_Tonga_']","['f', 'f', 'f', 'm', 'm', 'm']","['p248', 'p268', 'p284', 'p256', 'p307', 'p318']","[6, 4, 1, 9, 3, 8]","[91.58892582949886, 89.31368318402099, 86.2038576498559, 92.00610777531934, 89.14911522239515, 92.0152836843556]",6.0,True,7.166666666666667,3.0605010483034745,1.5636069774627686,0.8951991828396323
0,,sub_116,2024-07-18 15:41:55,3,distance,cathedral,numerosity_judgement,1,17,3,countries_forward,"['_Tonga_', '_Sudan_', '_Belgium_']","['m', 'm', 'm']","['p229', 'p318', 'p307']","[7, 2, 4]","[91.73820004985969, 87.57049330475357, 89.31368318402099]",2.0,False,6.333333333333333,2.516611478423583,1.6878373622894287,0.9084326410169108
0,,sub_116,2024-07-18 15:41:58,3,distance,cathedral,numerosity_judgement,1,18,5,countries_forward,"['_Congo_', '_Peru_', '_Oman_', '_Togo_', '_Yemen_']","['f', 'm', 'm', 'm', 'm']","['p268', 'p318', 'p256', 'p307', 'p229']","[2, 3, 10, 1, 7]","[87.57049330475357, 89.14911522239515, 93.00003341222717, 86.2038576498559, 91.73820004985969]",3.0,False,6.6,3.7815340802378072,1.2499215602874756,0.7046759732152991
0,,sub_116,2024-07-18 15:42:01,3,distance,cathedral,numerosity_judgement,1,19,4,countries_forward,"['_Peru_', '_Togo_', '_Cuba_', '_Oman_']","['m', 'f', 'm', 'f']","['p256', 'p268', 'p307', 'p284']","[6, 10, 5, 2]","[91.58892582949886, 93.00003341222717, 90.34149293193902, 87.57049330475357]",5.0,False,7.75,3.304037933599835,1.1261613368988037,0.6809669731018045
0,,sub_116,2024-07-18 15:42:04,3,distance,cathedral,numerosity_judgement,1,20,6,countries_forward,"['_Congo_', '_Yemen_', '_Oman_', '_Peru_', '_Mali_', '_Tonga_']","['f', 'f', 'm', 'm', 'f', 'f']","['p248', 'p268', 'p318', 'p256', 'p284', 'p245']","[8, 1, 3, 0, 5, 6]","[92.0152836843556, 86.2038576498559, 89.14911522239515, 84.40078082039426, 90.34149293193902, 91.58892582949886]",6.0,True,5.833333333333333,3.0605010483034745,1.1874661445617676,0.8043581886278516
0,,sub_116,2024-07-18 15:42:07,3,distance,cathedral,numerosity_judgement,1,21,3,countries_forward,"['_Yemen_', '_Oman_', '_Britain_']","['f', 'm', 'm']","['p248', 'p229', 'p307']","[10, 3, 6]","[93.00003341222717, 89.14911522239515, 91.58892582949886]",5.0,False,8.333333333333334,3.511884584284246,0.8766703605651855,0.6105209397344229
0,,sub_116,2024-07-18 15:42:09,3,distance,cathedral,numerosity_judgement,1,22,2,countries_forward,"['_Britain_', '_Yemen_']","['m', 'f']","['p307', 'p248']","[4, 7]","[89.31368318402099, 91.73820004985969]",2.0,True,7.5,2.1213203435596424,1.1249475479125977,0.6392236976506639
0,,sub_116,2024-07-18 15:42:50,3,distance,cathedral,numerosity_judgement,1,23,4,countries_forward,"['_Oman_', '_Mali_', '_Yemen_', '_Britain_']","['f', 'f', 'm', 'f']","['p248', 'p268', 'p256', 'p245']","[3, 6, 9, 7]","[89.14911522239515, 91.58892582949886, 92.00610777531934, 91.73820004985969]",4.0,True,8.25,2.5,38.911346197128296,0.6700034048348655
0,,sub_116,2024-07-18 15:42:55,3,distance,cathedral,numerosity_judgement,1,24,5,countries_forward,"['_Britain_', '_Peru_', '_Belgium_', '_Yemen_', '_Cuba_']","['m', 'm', 'f', 'm', 'm']","['p256', 'p229', 'p245', 'p318', 'p307']","[6, 10, 4, 2, 7]","[91.58892582949886, 93.00003341222717, 89.31368318402099, 87.57049330475357, 91.73820004985969]",3.0,False,7.8,3.03315017762062,3.5012755393981934,0.7614799682215413
0,,sub_116,2024-07-18 15:42:59,3,distance,cathedral,numerosity_judgement,1,25,2,countries_forward,"['_Oman_', '_Mali_']","['m', 'f']","['p229', 'p245']","[6, 3]","[91.58892582949886, 89.14911522239515]",2.0,True,6.5,2.1213203435596424,1.7498996257781982,0.6874248098967201
0,,sub_116,2024-07-18 15:43:02,3,distance,cathedral,numerosity_judgement,1,26,4,countries_forward,"['_Oman_', '_Mali_', '_Peru_', '_Britain_']","['m', 'f', 'm', 'f']","['p229', 'p284', 'p256', 'p268']","[5, 3, 9, 8]","[90.34149293193902, 89.14911522239515, 92.00610777531934, 92.0152836843556]",5.0,False,8.25,2.753785273643051,1.827685832977295,0.788775394393372
0,,sub_116,2024-07-18 15:43:06,3,distance,cathedral,numerosity_judgement,1,27,5,countries_forward,"['_Belgium_', '_Japan_', '_Oman_', '_Mali_', '_Togo_']","['m', 'm', 'f', 'm', 'f']","['p307', 'p256', 'p245', 'p229', 'p268']","[9, 4, 2, 10, 7]","[92.00610777531934, 89.31368318402099, 87.57049330475357, 93.00003341222717, 91.73820004985969]",6.0,False,8.4,3.361547262794322,1.502410650253296,0.7535467029849052
0,,sub_116,2024-07-18 15:43:09,3,distance,cathedral,numerosity_judgement,1,28,6,countries_forward,"['_Cuba_', '_Syria_', '_Oman_', '_Peru_', '_Britain_', '_Togo_']","['f', 'm', 'm', 'm', 'f', 'm']","['p268', 'p318', 'p256', 'p307', 'p245', 'p229']","[6, 10, 8, 5, 0, 7]","[91.58892582949886, 93.00003341222717, 92.0152836843556, 90.34149293193902, 84.40078082039426, 91.73820004985969]",4.0,False,8.0,3.40587727318528,1.249922275543213,0.7747815230961298
0,,sub_116,2024-07-18 15:43:12,3,distance,cathedral,numerosity_judgement,1,29,3,countries_forward,"['_Peru_', '_Congo_', '_Oman_']","['f', 'f', 'm']","['p284', 'p245', 'p307']","[4, 6, 5]","[89.31368318402099, 91.58892582949886, 90.34149293193902]",2.0,False,7.0,1.0,1.2664895057678223,0.7432300533424129
0,,sub_116,2024-07-18 15:43:14,3,distance,cathedral,numerosity_judgement,1,30,2,countries_forward,"['_Oman_', '_Yemen_']","['m', 'f']","['p307', 'p245']","[6, 10]","[91.58892582949886, 93.00003341222717]",5.0,False,10.0,2.8284271247461903,1.1249477863311768,0.5938372488934287
0,,sub_116,2024-07-18 15:43:17,3,distance,cathedral,numerosity_judgement,1,31,6,countries_forward,"['_Japan_', '_Togo_', '_Cuba_', '_Yemen_', '_Oman_', '_Sudan_']","['m', 'm', 'm', 'f', 'f', 'm']","['p318', 'p307', 'p229', 'p284', 'p268', 'p256']","[4, 1, 10, 9, 3, 5]","[89.31368318402099, 86.2038576498559, 93.00003341222717, 92.00610777531934, 89.14911522239515, 90.34149293193902]",4.0,False,7.333333333333333,3.5023801430836525,1.179253339767456,0.7420951083872432
0,,sub_116,2024-07-18 15:43:20,3,distance,cathedral,numerosity_judgement,1,32,5,countries_forward,"['_Cuba_', '_Mali_', '_Togo_', '_Belgium_', '_Oman_']","['m', 'f', 'f', 'f', 'm']","['p256', 'p268', 'p284', 'p245', 'p229']","[8, 10, 1, 4, 7]","[92.0152836843556, 93.00003341222717, 86.2038576498559, 89.31368318402099, 91.73820004985969]",3.0,False,8.0,3.5355339059327378,0.9999346733093262,0.8770741119055726
0,,sub_116,2024-07-18 15:43:23,3,distance,cathedral,numerosity_judgement,1,33,3,countries_forward,"['_Yemen_', '_Oman_', '_Britain_']","['m', 'm', 'f']","['p229', 'p307', 'p245']","[3, 8, 7]","[89.14911522239515, 92.0152836843556, 91.73820004985969]",5.0,False,8.0,2.6457513110645907,0.8749594688415527,0.6654295766655317
0,,sub_116,2024-07-18 15:43:25,3,distance,cathedral,numerosity_judgement,1,34,4,countries_forward,"['_Yemen_', '_Belgium_', '_Tonga_', '_Japan_']","['m', 'm', 'f', 'm']","['p229', 'p318', 'p245', 'p307']","[5, 1, 8, 3]","[90.34149293193902, 86.2038576498559, 92.0152836843556, 89.14911522239515]",2.0,False,6.25,2.9860788111948193,0.9374752044677734,0.7645783679491545
0,,sub_116,2024-07-18 15:43:29,3,distance,cathedral,numerosity_judgement,1,35,2,countries_forward,"['_Sudan_', '_Yemen_']","['f', 'm']","['p284', 'p318']","[5, 2]","[90.34149293193902, 87.57049330475357]",2.0,True,5.5,2.1213203435596424,1.5624051094055176,0.9515491998638066
0,,sub_116,2024-07-18 15:43:31,3,distance,cathedral,numerosity_judgement,1,36,3,countries_forward,"['_Peru_', '_Yemen_', '_Oman_']","['m', 'm', 'f']","['p256', 'p307', 'p245']","[5, 1, 3]","[90.34149293193902, 86.2038576498559, 89.14911522239515]",3.0,True,5.0,2.0,0.8854012489318848,0.6960049937578028
0,,sub_116,2024-07-18 15:43:46,3,distance,cathedral,numerosity_judgement,1,37,6,countries_forward,"['_Mali_', '_Oman_', '_Japan_', '_Congo_', '_Sudan_', '_Cuba_']","['f', 'f', 'm', 'm', 'm', 'f']","['p248', 'p268', 'p307', 'p256', 'p318', 'p245']","[4, 0, 10, 2, 8, 6]","[89.31368318402099, 84.40078082039426, 93.00003341222717, 87.57049330475357, 92.0152836843556, 91.58892582949886]",3.0,False,7.0,3.7416573867739413,13.217005252838135,0.867665418227216
0,,sub_116,2024-07-18 15:43:50,3,distance,cathedral,numerosity_judgement,1,38,4,countries_forward,"['_Japan_', '_Sudan_', '_Tonga_', '_Yemen_']","['f', 'm', 'm', 'm']","['p268', 'p318', 'p307', 'p229']","[9, 3, 4, 6]","[92.00610777531934, 89.14911522239515, 89.31368318402099, 91.58892582949886]",2.0,False,7.5,2.6457513110645907,1.7499196529388428,0.8306662126886846
0,,sub_116,2024-07-18 15:43:53,3,distance,cathedral,numerosity_judgement,1,39,5,countries_forward,"['_Togo_', '_Mali_', '_Cuba_', '_Congo_', '_Tonga_']","['f', 'f', 'm', 'm', 'f']","['p268', 'p245', 'p307', 'p256', 'p284']","[4, 10, 3, 9, 1]","[89.31368318402099, 93.00003341222717, 89.14911522239515, 92.00610777531934, 86.2038576498559]",3.0,False,7.4,3.9115214431215892,1.3124585151672363,0.8116331857904892
0,,sub_116,2024-07-18 15:43:55,3,distance,cathedral,numerosity_judgement,1,40,4,countries_forward,"['_Yemen_', '_Oman_', '_Peru_', '_Togo_']","['m', 'm', 'f', 'm']","['p229', 'p307', 'p268', 'p256']","[9, 5, 3, 10]","[92.00610777531934, 90.34149293193902, 89.14911522239515, 93.00003341222717]",5.0,False,8.75,3.304037933599835,0.8749372959136963,0.6414935875610033
0,,sub_116,2024-07-18 15:43:58,3,distance,cathedral,numerosity_judgement,1,41,2,countries_forward,"['_Syria_', '_Japan_']","['f', 'm']","['p245', 'p256']","[4, 9]","[89.31368318402099, 92.00610777531934]",2.0,True,8.5,3.5355339059327378,1.3124597072601318,0.9089547156962888
0,,sub_116,2024-07-18 15:44:01,3,distance,cathedral,numerosity_judgement,1,42,5,countries_forward,"['_Mali_', '_Britain_', '_Yemen_', '_Syria_', '_Togo_']","['m', 'f', 'f', 'f', 'm']","['p229', 'p245', 'p248', 'p284', 'p318']","[4, 2, 9, 8, 10]","[89.31368318402099, 87.57049330475357, 92.00610777531934, 92.0152836843556, 93.00003341222717]",4.0,False,8.6,3.4351128074635335,1.259943962097168,0.9218022925888094
0,,sub_116,2024-07-18 15:44:04,3,distance,cathedral,numerosity_judgement,1,43,6,countries_forward,"['_Oman_', '_Syria_', '_Cuba_', '_Peru_', '_Togo_', '_Belgium_']","['f', 'f', 'm', 'm', 'm', 'f']","['p245', 'p284', 'p307', 'p229', 'p318', 'p268']","[6, 3, 0, 5, 8, 9]","[91.58892582949886, 89.14911522239515, 84.40078082039426, 90.34149293193902, 92.0152836843556, 92.00610777531934]",5.0,False,7.166666666666667,3.3115957885386114,0.9999737739562988,0.9221427760753604
0,,sub_116,2024-07-18 15:44:07,3,distance,cathedral,numerosity_judgement,1,44,3,countries_forward,"['_Togo_', '_Britain_', '_Yemen_']","['f', 'm', 'm']","['p245', 'p318', 'p307']","[0, 9, 3]","[84.40078082039426, 92.00610777531934, 89.14911522239515]",2.0,False,6.0,4.58257569495584,1.2599246501922607,0.7938599477925321
0,,sub_116,2024-07-18 15:44:10,3,distance,cathedral,numerosity_judgement,1,45,6,countries_forward,"['_Mali_', '_Oman_', '_Peru_', '_Togo_', '_Sudan_', '_Japan_']","['f', 'f', 'm', 'm', 'm', 'm']","['p245', 'p268', 'p229', 'p256', 'p307', 'p318']","[5, 4, 3, 8, 10, 1]","[90.34149293193902, 89.31368318402099, 89.14911522239515, 92.0152836843556, 93.00003341222717, 86.2038576498559]",3.0,False,7.166666666666667,3.3115957885386114,1.1249279975891113,0.8967994552264216
0,,sub_116,2024-07-18 15:44:13,3,distance,cathedral,numerosity_judgement,1,46,3,countries_forward,"['_Yemen_', '_Peru_', '_Tonga_']","['f', 'm', 'm']","['p268', 'p318', 'p307']","[8, 3, 5]","[92.0152836843556, 89.14911522239515, 90.34149293193902]",5.0,False,7.333333333333333,2.516611478423583,0.9374563694000244,0.649211213256157
0,,sub_116,2024-07-18 15:44:16,3,distance,cathedral,numerosity_judgement,1,47,5,countries_forward,"['_Togo_', '_Oman_', '_Yemen_', '_Britain_', '_Tonga_']","['f', 'm', 'm', 'f', 'm']","['p245', 'p256', 'p307', 'p248', 'p318']","[2, 6, 8, 1, 0]","[87.57049330475357, 91.58892582949886, 92.0152836843556, 86.2038576498559, 84.40078082039426]",6.0,False,5.4,3.4351128074635335,1.1904232501983643,0.7287254568153445
0,,sub_116,2024-07-18 15:44:18,3,distance,cathedral,numerosity_judgement,1,48,2,countries_forward,"['_Oman_', '_Yemen_']","['f', 'f']","['p248', 'p268']","[5, 3]","[90.34149293193902, 89.14911522239515]",2.0,True,6.0,1.4142135623730951,1.2499418258666992,0.7128135285438656
0,,sub_116,2024-07-18 15:44:22,3,distance,cathedral,numerosity_judgement,1,49,4,countries_forward,"['_Japan_', '_Belgium_', '_Mali_', '_Sudan_']","['m', 'm', 'm', 'f']","['p256', 'p229', 'p318', 'p284']","[0, 1, 9, 8]","[84.40078082039426, 86.2038576498559, 92.00610777531934, 92.0152836843556]",3.0,False,6.5,4.654746681256314,1.5792791843414307,0.9628419021677448
0,,sub_116,2024-07-18 15:44:24,3,distance,cathedral,numerosity_judgement,1,50,3,countries_forward,"['_Cuba_', '_Belgium_', '_Oman_']","['f', 'f', 'm']","['p268', 'p284', 'p229']","[3, 2, 6]","[89.14911522239515, 87.57049330475357, 91.58892582949886]",2.0,False,5.666666666666667,2.0816659994661326,1.1874644756317139,0.7615140165701964
0,,sub_116,2024-07-18 15:44:27,3,distance,cathedral,numerosity_judgement,1,51,2,countries_forward,"['_Peru_', '_Belgium_']","['f', 'm']","['p248', 'p307']","[7, 3]","[91.73820004985969, 89.14911522239515]",2.0,True,7.0,2.8284271247461903,1.13578462600708,0.8596640562932698
0,,sub_116,2024-07-18 15:44:30,3,distance,cathedral,numerosity_judgement,1,52,4,countries_forward,"['_Yemen_', '_Sudan_', '_Syria_', '_Japan_']","['m', 'm', 'f', 'f']","['p229', 'p307', 'p268', 'p245']","[0, 4, 8, 9]","[84.40078082039426, 89.31368318402099, 92.0152836843556, 92.00610777531934]",2.0,False,7.25,4.112987559751022,1.1874454021453857,0.9387129724208376
0,,sub_116,2024-07-18 15:44:33,3,distance,cathedral,numerosity_judgement,1,53,6,countries_forward,"['_Cuba_', '_Sudan_', '_Togo_', '_Yemen_', '_Syria_', '_Belgium_']","['f', 'm', 'm', 'f', 'f', 'm']","['p268', 'p256', 'p307', 'p284', 'p248', 'p229']","[6, 3, 9, 10, 8, 4]","[91.58892582949886, 89.14911522239515, 92.00610777531934, 93.00003341222717, 92.0152836843556, 89.31368318402099]",3.0,False,8.666666666666666,2.804757862395017,0.9999735355377197,0.7622630802406083
0,,sub_116,2024-07-18 15:44:36,3,distance,cathedral,numerosity_judgement,1,54,5,countries_forward,"['_Yemen_', '_Sudan_', '_Belgium_', '_Mali_', '_Japan_']","['f', 'f', 'm', 'f', 'm']","['p268', 'p245', 'p318', 'p248', 'p229']","[2, 10, 1, 6, 0]","[87.57049330475357, 93.00003341222717, 86.2038576498559, 91.58892582949886, 84.40078082039426]",6.0,False,5.8,4.147288270665544,1.0631744861602783,0.9499716263761208
0,,sub_116,2024-07-18 15:44:39,3,distance,cathedral,numerosity_judgement,1,55,6,countries_forward,"['_Togo_', '_Tonga_', '_Britain_', '_Cuba_', '_Belgium_', '_Peru_']","['f', 'f', 'm', 'f', 'm', 'm']","['p284', 'p268', 'p318', 'p248', 'p229', 'p307']","[2, 6, 5, 10, 1, 9]","[87.57049330475357, 91.58892582949886, 90.34149293193902, 93.00003341222717, 86.2038576498559, 92.00610777531934]",3.0,False,7.5,3.6193922141707713,0.9999330043792725,0.8232209737827715
0,,sub_116,2024-07-18 15:44:42,3,distance,cathedral,numerosity_judgement,1,56,5,countries_forward,"['_Peru_', '_Cuba_', '_Sudan_', '_Tonga_', '_Mali_']","['f', 'm', 'm', 'f', 'f']","['p248', 'p307', 'p256', 'p245', 'p268']","[1, 7, 9, 6, 10]","[86.2038576498559, 91.73820004985969, 92.00610777531934, 91.58892582949886, 93.00003341222717]",6.0,False,8.6,3.5071355833500366,1.1252856254577637,0.782113267506526
0,,sub_116,2024-07-18 15:44:44,3,distance,cathedral,numerosity_judgement,1,57,2,countries_forward,"['_Oman_', '_Congo_']","['f', 'm']","['p248', 'p229']","[8, 6]","[92.0152836843556, 91.58892582949886]",4.0,False,9.0,1.4142135623730951,1.187464952468872,0.7910112359550562
0,,sub_116,2024-07-18 15:44:47,3,distance,cathedral,numerosity_judgement,1,58,4,countries_forward,"['_Britain_', '_Togo_', '_Peru_', '_Yemen_']","['f', 'm', 'f', 'm']","['p248', 'p307', 'p245', 'p256']","[0, 5, 4, 6]","[84.40078082039426, 90.34149293193902, 89.31368318402099, 91.58892582949886]",4.0,True,5.75,2.6299556396765835,1.198232650756836,0.7334354783792986
0,,sub_116,2024-07-18 15:44:50,3,distance,cathedral,numerosity_judgement,1,59,3,countries_forward,"['_Japan_', '_Belgium_', '_Syria_']","['f', 'f', 'f']","['p248', 'p284', 'p268']","[3, 9, 2]","[89.14911522239515, 92.00610777531934, 87.57049330475357]",2.0,False,6.666666666666667,3.7859388972001824,1.2499420642852783,0.9494836000453978
0,,sub_116,2024-07-18 15:44:53,3,distance,cathedral,numerosity_judgement,1,60,4,countries_forward,"['_Sudan_', '_Congo_', '_Peru_', '_Japan_']","['m', 'f', 'f', 'f']","['p307', 'p248', 'p245', 'p284']","[5, 3, 2, 9]","[90.34149293193902, 89.14911522239515, 87.57049330475357, 92.00610777531934]",5.0,False,6.75,3.095695936834452,1.062450647354126,0.912722732947452
0,,sub_116,2024-07-18 15:44:56,3,distance,cathedral,numerosity_judgement,1,61,6,countries_forward,"['_Yemen_', '_Mali_', '_Congo_', '_Togo_', '_Peru_', '_Oman_']","['m', 'm', 'f', 'm', 'f', 'f']","['p318', 'p256', 'p284', 'p307', 'p245', 'p248']","[0, 8, 2, 7, 5, 6]","[84.40078082039426, 92.0152836843556, 87.57049330475357, 91.73820004985969, 90.34149293193902, 91.58892582949886]",3.0,False,6.666666666666667,3.0767948691238205,1.0633482933044434,0.7287141073657928
0,,sub_116,2024-07-18 15:44:59,3,distance,cathedral,numerosity_judgement,1,62,5,countries_forward,"['_Japan_', '_Tonga_', '_Cuba_', '_Congo_', '_Syria_']","['f', 'm', 'm', 'f', 'f']","['p248', 'p256', 'p229', 'p268', 'p245']","[7, 3, 8, 4, 2]","[91.73820004985969, 89.14911522239515, 92.0152836843556, 89.31368318402099, 87.57049330475357]",5.0,True,6.8,2.588435821108957,1.1249682903289795,0.8200771762569515
0,,sub_116,2024-07-18 15:45:01,3,distance,cathedral,numerosity_judgement,1,63,2,countries_forward,"['_Britain_', '_Mali_']","['f', 'f']","['p268', 'p248']","[5, 2]","[90.34149293193902, 87.57049330475357]",2.0,True,5.5,2.1213203435596424,1.1351568698883057,0.8739757121779593
0,,sub_116,2024-07-18 15:45:04,3,distance,cathedral,numerosity_judgement,1,64,3,countries_forward,"['_Cuba_', '_Belgium_', '_Syria_']","['f', 'm', 'm']","['p268', 'p229', 'p256']","[7, 6, 3]","[91.73820004985969, 91.58892582949886, 89.14911522239515]",4.0,False,7.333333333333333,2.0816659994661326,1.7499403953552246,0.8769946657587107
0,,sub_116,2024-07-18 15:45:08,3,distance,cathedral,numerosity_judgement,1,65,4,countries_forward,"['_Yemen_', '_Peru_', '_Cuba_', '_Britain_']","['f', 'f', 'f', 'm']","['p284', 'p248', 'p245', 'p318']","[1, 6, 9, 7]","[86.2038576498559, 91.58892582949886, 92.00610777531934, 91.73820004985969]",3.0,False,7.75,3.4034296427770228,1.3676743507385254,0.8419021677448644
0,,sub_116,2024-07-18 15:45:10,3,distance,cathedral,numerosity_judgement,1,66,3,countries_forward,"['_Yemen_', '_Peru_', '_Tonga_']","['m', 'm', 'm']","['p229', 'p307', 'p318']","[10, 6, 5]","[93.00003341222717, 91.58892582949886, 90.34149293193902]",4.0,False,9.0,2.6457513110645907,0.8749608993530273,0.7218022925888095
0,,sub_116,2024-07-18 15:45:13,3,distance,cathedral,numerosity_judgement,1,67,2,countries_forward,"['_Peru_', '_Congo_']","['m', 'm']","['p229', 'p318']","[6, 8]","[91.58892582949886, 92.0152836843556]",2.0,True,9.0,1.4142135623730951,1.0657362937927246,0.8221427760753603
0,,sub_116,2024-07-18 15:45:16,3,distance,cathedral,numerosity_judgement,1,68,6,countries_forward,"['_Sudan_', '_Belgium_', '_Oman_', '_Yemen_', '_Togo_', '_Syria_']","['f', 'm', 'm', 'f', 'm', 'f']","['p248', 'p229', 'p318', 'p245', 'p256', 'p268']","[6, 8, 1, 5, 0, 4]","[91.58892582949886, 92.0152836843556, 86.2038576498559, 90.34149293193902, 84.40078082039426, 89.31368318402099]",3.0,False,6.0,3.03315017762062,1.2505717277526855,0.9385200317784588
0,,sub_116,2024-07-18 15:45:19,3,distance,cathedral,numerosity_judgement,1,69,5,countries_forward,"['_Syria_', '_Yemen_', '_Japan_', '_Mali_', '_Belgium_']","['f', 'm', 'f', 'f', 'm']","['p284', 'p229', 'p248', 'p268', 'p256']","[3, 4, 0, 10, 2]","[89.14911522239515, 89.31368318402099, 84.40078082039426, 93.00003341222717, 87.57049330475357]",3.0,False,5.8,3.7682887362833544,1.187424898147583,0.9449665191238223
0,,sub_116,2024-07-18 15:45:21,3,distance,cathedral,numerosity_judgement,1,70,2,countries_forward,"['_Oman_', '_Britain_']","['m', 'm']","['p229', 'p256']","[8, 7]","[92.0152836843556, 91.73820004985969]",4.0,False,9.5,0.7071067811865476,1.135974407196045,0.6166042446941323
0,,sub_116,2024-07-18 15:45:24,3,distance,cathedral,numerosity_judgement,1,71,6,countries_forward,"['_Mali_', '_Peru_', '_Togo_', '_Sudan_', '_Syria_', '_Congo_']","['m', 'f', 'm', 'm', 'f', 'f']","['p318', 'p248', 'p256', 'p229', 'p284', 'p245']","[1, 4, 0, 2, 10, 5]","[86.2038576498559, 89.31368318402099, 84.40078082039426, 87.57049330475357, 93.00003341222717, 90.34149293193902]",2.0,False,5.666666666666667,3.6147844564602556,1.2499420642852783,0.9625241175802972
0,,sub_116,2024-07-18 15:45:27,3,distance,cathedral,numerosity_judgement,1,72,5,countries_forward,"['_Sudan_', '_Japan_', '_Peru_', '_Oman_', '_Cuba_']","['f', 'm', 'f', 'f', 'm']","['p248', 'p229', 'p268', 'p284', 'p307']","[8, 2, 5, 4, 10]","[92.0152836843556, 87.57049330475357, 90.34149293193902, 89.31368318402099, 93.00003341222717]",4.0,False,7.8,3.1937438845342623,1.1298718452453613,0.8704573828169334
0,,sub_116,2024-07-18 15:45:31,3,distance,cathedral,numerosity_judgement,1,73,3,countries_forward,"['_Oman_', '_Togo_', '_Mali_']","['m', 'm', 'f']","['p256', 'p318', 'p248']","[1, 4, 7]","[86.2038576498559, 89.31368318402099, 91.73820004985969]",2.0,False,6.0,3.0,1.6262574195861816,0.9013278855975484
0,,sub_116,2024-07-18 15:45:34,3,distance,cathedral,numerosity_judgement,1,74,4,countries_forward,"['_Belgium_', '_Peru_', '_Yemen_', '_Oman_']","['f', 'f', 'm', 'f']","['p268', 'p245', 'p318', 'p284']","[6, 3, 1, 5]","[91.58892582949886, 89.14911522239515, 86.2038576498559, 90.34149293193902]",3.0,False,5.75,2.217355782608345,1.4999299049377441,0.7996027692656906
0,,sub_116,2024-07-18 15:46:40,3,distance,cathedral,numerosity_judgement,2,0,3,countries_forward,"['_Britain_', '_Yemen_', '_Tonga_']","['m', 'f', 'f']","['p318', 'p268', 'p245']","[2, 6, 4]","[87.57049330475357, 91.58892582949886, 89.31368318402099]",3.0,True,6.0,2.0,1.5624268054962158,0.6490069231642266
0,,sub_116,2024-07-18 15:46:43,3,distance,cathedral,numerosity_judgement,2,1,6,countries_forward,"['_Congo_', '_Peru_', '_Mali_', '_Cuba_', '_Oman_', '_Tonga_']","['m', 'f', 'm', 'm', 'f', 'f']","['p229', 'p245', 'p256', 'p318', 'p268', 'p248']","[8, 6, 3, 4, 1, 5]","[92.0152836843556, 91.58892582949886, 89.14911522239515, 89.31368318402099, 86.2038576498559, 90.34149293193902]",5.0,False,6.5,2.4289915602982237,1.4906766414642334,0.8038474633980252
0,,sub_116,2024-07-18 15:46:46,3,distance,cathedral,numerosity_judgement,2,2,4,countries_forward,"['_Cuba_', '_Yemen_', '_Togo_', '_Oman_']","['f', 'f', 'f', 'm']","['p268', 'p284', 'p245', 'p256']","[3, 8, 5, 4]","[89.14911522239515, 92.0152836843556, 90.34149293193902, 89.31368318402099]",3.0,False,7.0,2.160246899469287,0.9374566078186035,0.7254681647940074
0,,sub_116,2024-07-18 15:46:48,3,distance,cathedral,numerosity_judgement,2,3,2,countries_forward,"['_Britain_', '_Syria_']","['f', 'f']","['p284', 'p268']","[3, 4]","[89.14911522239515, 89.31368318402099]",5.0,False,5.5,0.7071067811865476,0.9374368190765381,0.940574282147316
0,,sub_116,2024-07-18 15:46:51,3,distance,cathedral,numerosity_judgement,2,4,5,countries_forward,"['_Cuba_', '_Peru_', '_Congo_', '_Togo_', '_Syria_']","['m', 'm', 'f', 'm', 'f']","['p307', 'p256', 'p248', 'p318', 'p245']","[2, 9, 4, 6, 8]","[87.57049330475357, 92.00610777531934, 89.31368318402099, 91.58892582949886, 92.0152836843556]",3.0,False,7.8,2.863564212655271,1.1288471221923828,0.8048121666099194
0,,sub_116,2024-07-18 15:46:54,3,distance,cathedral,numerosity_judgement,2,5,4,countries_forward,"['_Peru_', '_Yemen_', '_Mali_', '_Togo_']","['f', 'm', 'm', 'm']","['p268', 'p256', 'p318', 'p229']","[7, 2, 6, 0]","[91.73820004985969, 87.57049330475357, 91.58892582949886, 84.40078082039426]",5.0,False,5.75,3.304037933599835,0.9999551773071289,0.8400295085688344
0,,sub_116,2024-07-18 15:46:57,3,distance,cathedral,numerosity_judgement,2,6,5,countries_forward,"['_Peru_', '_Yemen_', '_Sudan_', '_Togo_', '_Syria_']","['f', 'm', 'f', 'm', 'm']","['p248', 'p318', 'p268', 'p229', 'p307']","[8, 6, 1, 3, 10]","[92.0152836843556, 91.58892582949886, 86.2038576498559, 89.14911522239515, 93.00003341222717]",3.0,False,7.6,3.646916505762094,1.250762939453125,0.8775280898876404
0,,sub_116,2024-07-18 15:47:00,3,distance,cathedral,numerosity_judgement,2,7,2,countries_forward,"['_Belgium_', '_Tonga_']","['f', 'm']","['p248', 'p229']","[10, 7]","[93.00003341222717, 91.73820004985969]",2.0,True,10.5,2.1213203435596424,1.2499418258666992,0.8813188060379071
0,,sub_116,2024-07-18 15:47:03,3,distance,cathedral,numerosity_judgement,2,8,6,countries_forward,"['_Oman_', '_Cuba_', '_Mali_', '_Britain_', '_Togo_', '_Tonga_']","['m', 'm', 'm', 'f', 'm', 'f']","['p229', 'p318', 'p256', 'p248', 'p307', 'p245']","[10, 3, 4, 9, 8, 5]","[93.00003341222717, 89.14911522239515, 89.31368318402099, 92.00610777531934, 92.0152836843556, 90.34149293193902]",4.0,False,8.5,2.8809720581775866,1.063774585723877,0.7045851776188855
0,,sub_116,2024-07-18 15:47:05,3,distance,cathedral,numerosity_judgement,2,9,3,countries_forward,"['_Belgium_', '_Cuba_', '_Britain_']","['f', 'm', 'f']","['p245', 'p229', 'p284']","[10, 7, 5]","[93.00003341222717, 91.73820004985969, 90.34149293193902]",5.0,False,9.333333333333334,2.516611478423583,1.124945878982544,0.8644308251049824
0,,sub_116,2024-07-18 15:47:08,3,distance,cathedral,numerosity_judgement,2,10,2,countries_forward,"['_Belgium_', '_Japan_']","['f', 'f']","['p248', 'p245']","[3, 1]","[89.14911522239515, 86.2038576498559]",3.0,False,4.0,1.4142135623730951,1.1249468326568604,0.9062762456020884
0,,sub_116,2024-07-18 15:47:11,3,distance,cathedral,numerosity_judgement,2,11,3,countries_forward,"['_Peru_', '_Tonga_', '_Cuba_']","['f', 'm', 'f']","['p245', 'p229', 'p268']","[5, 0, 10]","[90.34149293193902, 84.40078082039426, 93.00003341222717]",4.0,False,7.0,5.0,1.2499420642852783,0.7090455112927023
0,,sub_116,2024-07-18 15:47:14,3,distance,cathedral,numerosity_judgement,2,12,6,countries_forward,"['_Cuba_', '_Congo_', '_Tonga_', '_Britain_', '_Peru_', '_Yemen_']","['m', 'f', 'm', 'm', 'f', 'm']","['p307', 'p268', 'p318', 'p256', 'p245', 'p229']","[10, 1, 4, 7, 6, 5]","[93.00003341222717, 86.2038576498559, 89.31368318402099, 91.73820004985969, 91.58892582949886, 90.34149293193902]",2.0,False,7.5,3.0166206257996713,1.2499194145202637,0.7524458063783906
0,,sub_116,2024-07-18 15:47:17,3,distance,cathedral,numerosity_judgement,2,13,5,countries_forward,"['_Togo_', '_Oman_', '_Yemen_', '_Cuba_', '_Congo_']","['m', 'f', 'm', 'f', 'f']","['p229', 'p248', 'p307', 'p245', 'p268']","[1, 5, 9, 10, 0]","[86.2038576498559, 90.34149293193902, 92.00610777531934, 93.00003341222717, 84.40078082039426]",3.0,False,7.0,4.527692569068709,1.3295502662658691,0.7615934627170582
0,,sub_116,2024-07-18 15:47:20,3,distance,cathedral,numerosity_judgement,2,14,4,countries_forward,"['_Yemen_', '_Tonga_', '_Japan_', '_Oman_']","['f', 'm', 'm', 'm']","['p284', 'p229', 'p256', 'p307']","[5, 0, 9, 10]","[90.34149293193902, 84.40078082039426, 92.00610777531934, 93.00003341222717]",4.0,True,8.0,4.546060565661952,1.1249475479125977,0.8781636590625355
0,,sub_116,2024-07-18 15:47:23,3,distance,cathedral,numerosity_judgement,2,15,5,countries_forward,"['_Mali_', '_Cuba_', '_Yemen_', '_Tonga_', '_Peru_']","['m', 'f', 'f', 'm', 'f']","['p318', 'p245', 'p284', 'p229', 'p268']","[6, 5, 4, 1, 7]","[91.58892582949886, 90.34149293193902, 89.31368318402099, 86.2038576498559, 91.73820004985969]",4.0,False,6.6,2.3021728866442674,1.1241176128387451,0.7294745204857565
0,,sub_116,2024-07-18 15:47:25,3,distance,cathedral,numerosity_judgement,2,16,3,countries_forward,"['_Japan_', '_Togo_', '_Cuba_']","['m', 'f', 'f']","['p307', 'p268', 'p245']","[6, 10, 8]","[91.58892582949886, 93.00003341222717, 92.0152836843556]",2.0,False,10.0,2.0,1.0624685287475586,0.7080013619339462
0,,sub_116,2024-07-18 15:47:28,3,distance,cathedral,numerosity_judgement,2,17,4,countries_forward,"['_Congo_', '_Mali_', '_Yemen_', '_Britain_']","['f', 'm', 'f', 'm']","['p268', 'p318', 'p245', 'p256']","[5, 4, 2, 8]","[90.34149293193902, 89.31368318402099, 87.57049330475357, 92.0152836843556]",5.0,False,6.75,2.5,0.8749527931213379,0.7586312563840654
0,,sub_116,2024-07-18 15:47:30,3,distance,cathedral,numerosity_judgement,2,18,2,countries_forward,"['_Oman_', '_Yemen_']","['m', 'm']","['p229', 'p256']","[3, 6]","[89.14911522239515, 91.58892582949886]",2.0,True,6.5,2.1213203435596424,0.9374494552612305,0.5410623084780388
0,,sub_116,2024-07-18 15:47:33,3,distance,cathedral,numerosity_judgement,2,19,6,countries_forward,"['_Peru_', '_Mali_', '_Cuba_', '_Britain_', '_Sudan_', '_Congo_']","['f', 'm', 'm', 'm', 'f', 'f']","['p248', 'p318', 'p229', 'p307', 'p284', 'p268']","[1, 5, 2, 0, 7, 9]","[86.2038576498559, 90.34149293193902, 87.57049330475357, 84.40078082039426, 91.73820004985969, 92.00610777531934]",4.0,False,6.0,3.5777087639996634,1.1249406337738037,0.9599477925320622
0,,sub_116,2024-07-18 15:47:36,3,distance,cathedral,numerosity_judgement,2,20,2,countries_forward,"['_Oman_', '_Yemen_']","['f', 'm']","['p245', 'p229']","[6, 5]","[91.58892582949886, 90.34149293193902]",3.0,False,7.5,0.7071067811865476,1.000467300415039,0.6409261150834185
0,,sub_116,2024-07-18 15:47:39,3,distance,cathedral,numerosity_judgement,2,21,4,countries_forward,"['_Peru_', '_Japan_', '_Congo_', '_Britain_']","['f', 'm', 'm', 'f']","['p268', 'p256', 'p307', 'p245']","[6, 2, 9, 4]","[91.58892582949886, 87.57049330475357, 92.00610777531934, 89.31368318402099]",2.0,False,7.25,2.9860788111948193,1.5624175071716309,0.8172738622176824
0,,sub_116,2024-07-18 15:47:42,3,distance,cathedral,numerosity_judgement,2,22,5,countries_forward,"['_Cuba_', '_Belgium_', '_Congo_', '_Sudan_', '_Britain_']","['f', 'm', 'm', 'm', 'm']","['p284', 'p307', 'p229', 'p256', 'p318']","[3, 8, 1, 7, 10]","[89.14911522239515, 92.0152836843556, 86.2038576498559, 91.73820004985969, 93.00003341222717]",4.0,False,7.8,3.7013511046643495,1.2640905380249023,0.8264669163545568
0,,sub_116,2024-07-18 15:47:45,3,distance,cathedral,numerosity_judgement,2,23,3,countries_forward,"['_Sudan_', '_Mali_', '_Syria_']","['m', 'f', 'f']","['p256', 'p245', 'p284']","[6, 10, 9]","[91.58892582949886, 93.00003341222717, 92.00610777531934]",5.0,False,10.333333333333334,2.0816659994661326,1.0624637603759766,0.9067529224832596
0,,sub_116,2024-07-18 15:47:48,3,distance,cathedral,numerosity_judgement,2,24,6,countries_forward,"['_Syria_', '_Japan_', '_Cuba_', '_Tonga_', '_Sudan_', '_Peru_']","['f', 'm', 'f', 'm', 'm', 'm']","['p248', 'p307', 'p284', 'p256', 'p229', 'p318']","[9, 0, 2, 6, 5, 8]","[92.00610777531934, 84.40078082039426, 87.57049330475357, 91.58892582949886, 90.34149293193902, 92.0152836843556]",5.0,False,7.0,3.4641016151377544,1.312450647354126,0.9351378958120532
0,,sub_116,2024-07-18 15:47:51,3,distance,cathedral,numerosity_judgement,2,25,4,countries_forward,"['_Oman_', '_Peru_', '_Britain_', '_Cuba_']","['f', 'm', 'm', 'f']","['p248', 'p307', 'p318', 'p268']","[7, 5, 10, 3]","[91.73820004985969, 90.34149293193902, 93.00003341222717, 89.14911522239515]",3.0,False,8.25,2.9860788111948193,1.1270201206207275,0.6691067983202814
0,,sub_116,2024-07-18 15:47:54,3,distance,cathedral,numerosity_judgement,2,26,2,countries_forward,"['_Mali_', '_Britain_']","['m', 'm']","['p318', 'p307']","[8, 6]","[92.0152836843556, 91.58892582949886]",4.0,False,9.0,1.4142135623730951,1.2499535083770752,0.7470094200431279
0,,sub_116,2024-07-18 15:47:57,3,distance,cathedral,numerosity_judgement,2,27,6,countries_forward,"['_Yemen_', '_Mali_', '_Congo_', '_Tonga_', '_Britain_', '_Japan_']","['f', 'm', 'm', 'm', 'f', 'f']","['p248', 'p256', 'p318', 'p307', 'p245', 'p268']","[6, 5, 7, 9, 2, 8]","[91.58892582949886, 90.34149293193902, 91.73820004985969, 92.00610777531934, 87.57049330475357, 92.0152836843556]",3.0,False,8.166666666666666,2.48327740429189,1.3293898105621338,0.8503461582113268
0,,sub_116,2024-07-18 15:48:00,3,distance,cathedral,numerosity_judgement,2,28,3,countries_forward,"['_Oman_', '_Cuba_', '_Congo_']","['m', 'm', 'm']","['p256', 'p318', 'p229']","[5, 0, 6]","[90.34149293193902, 84.40078082039426, 91.58892582949886]",2.0,False,5.666666666666667,3.2145502536643185,1.1874372959136963,0.6797752808988764
0,,sub_116,2024-07-18 15:48:02,3,distance,cathedral,numerosity_judgement,2,29,5,countries_forward,"['_Yemen_', '_Tonga_', '_Togo_', '_Sudan_', '_Belgium_']","['m', 'f', 'm', 'f', 'f']","['p256', 'p284', 'p318', 'p268', 'p248']","[9, 3, 4, 2, 1]","[92.00610777531934, 89.14911522239515, 89.31368318402099, 87.57049330475357, 86.2038576498559]",4.0,False,5.8,3.1144823004794877,1.054422378540039,0.9409942117807286
0,,sub_116,2024-07-18 15:48:06,3,distance,cathedral,numerosity_judgement,2,30,6,countries_forward,"['_Togo_', '_Cuba_', '_Britain_', '_Tonga_', '_Peru_', '_Mali_']","['f', 'f', 'm', 'f', 'f', 'm']","['p245', 'p268', 'p318', 'p284', 'p248', 'p256']","[8, 0, 9, 6, 2, 4]","[92.0152836843556, 84.40078082039426, 92.00610777531934, 91.58892582949886, 87.57049330475357, 89.31368318402099]",5.0,False,6.833333333333333,3.488074922742725,1.5643181800842285,0.8883554647599592
0,,sub_116,2024-07-18 15:48:09,3,distance,cathedral,numerosity_judgement,2,31,4,countries_forward,"['_Yemen_', '_Sudan_', '_Britain_', '_Mali_']","['f', 'm', 'm', 'f']","['p245', 'p229', 'p307', 'p268']","[0, 7, 5, 9]","[84.40078082039426, 91.73820004985969, 90.34149293193902, 92.00610777531934]",2.0,False,7.25,3.8622100754188224,1.7499091625213623,0.9188968335035752
0,,sub_116,2024-07-18 15:48:12,3,distance,cathedral,numerosity_judgement,2,32,2,countries_forward,"['_Peru_', '_Britain_']","['f', 'm']","['p268', 'p307']","[8, 9]","[92.0152836843556, 92.00610777531934]",4.0,False,10.5,0.7071067811865476,1.5141301155090332,0.7316649642492339
0,,sub_116,2024-07-18 15:48:15,3,distance,cathedral,numerosity_judgement,2,33,3,countries_forward,"['_Oman_', '_Yemen_', '_Britain_']","['m', 'f', 'f']","['p307', 'p268', 'p245']","[4, 8, 1]","[89.31368318402099, 92.0152836843556, 86.2038576498559]",2.0,False,6.333333333333333,3.5118845842842465,1.3749268054962158,0.6117807286346613
0,,sub_116,2024-07-18 15:48:18,3,distance,cathedral,numerosity_judgement,2,34,5,countries_forward,"['_Mali_', '_Cuba_', '_Tonga_', '_Belgium_', '_Yemen_']","['m', 'f', 'f', 'm', 'f']","['p307', 'p268', 'p245', 'p229', 'p284']","[4, 6, 3, 7, 2]","[89.31368318402099, 91.58892582949886, 89.14911522239515, 91.73820004985969, 87.57049330475357]",3.0,False,6.4,2.073644135332772,1.0624210834503174,0.705799568720917
0,,sub_116,2024-07-18 15:48:21,3,distance,cathedral,numerosity_judgement,2,35,6,countries_forward,"['_Cuba_', '_Sudan_', '_Yemen_', '_Peru_', '_Japan_', '_Tonga_']","['m', 'm', 'f', 'm', 'f', 'f']","['p229', 'p307', 'p248', 'p256', 'p284', 'p245']","[5, 2, 7, 3, 1, 8]","[90.34149293193902, 87.57049330475357, 91.73820004985969, 89.14911522239515, 86.2038576498559, 92.0152836843556]",5.0,False,6.333333333333333,2.804757862395017,1.2568187713623047,0.7844058563159687
0,,sub_116,2024-07-18 15:48:25,3,distance,cathedral,numerosity_judgement,2,36,2,countries_forward,"['_Japan_', '_Togo_']","['m', 'm']","['p307', 'p318']","[8, 4]","[92.0152836843556, 89.31368318402099]",2.0,True,8.0,2.8284271247461903,1.93739914894104,0.8258767449778686
0,,sub_116,2024-07-18 15:48:28,3,distance,cathedral,numerosity_judgement,2,37,4,countries_forward,"['_Togo_', '_Oman_', '_Peru_', '_Sudan_']","['m', 'f', 'f', 'm']","['p307', 'p245', 'p248', 'p256']","[3, 6, 7, 8]","[89.14911522239515, 91.58892582949886, 91.73820004985969, 92.0152836843556]",3.0,False,8.0,2.160246899469287,1.2558951377868652,0.802394733855408
0,,sub_116,2024-07-18 15:48:31,3,distance,cathedral,numerosity_judgement,2,38,3,countries_forward,"['_Cuba_', '_Britain_', '_Japan_']","['m', 'f', 'm']","['p307', 'p245', 'p229']","[10, 2, 9]","[93.00003341222717, 87.57049330475357, 92.00610777531934]",2.0,False,9.0,4.358898943540674,2.0682687759399414,0.8341504937010555
0,,sub_116,2024-07-18 15:48:34,3,distance,cathedral,numerosity_judgement,2,39,5,countries_forward,"['_Tonga_', '_Congo_', '_Mali_', '_Japan_', '_Sudan_']","['f', 'm', 'f', 'f', 'm']","['p245', 'p229', 'p284', 'p248', 'p256']","[3, 1, 5, 8, 4]","[89.14911522239515, 86.2038576498559, 90.34149293193902, 92.0152836843556, 89.31368318402099]",6.0,False,6.2,2.588435821108957,1.1874351501464844,0.8560549313358302
0,,sub_116,2024-07-18 15:48:38,3,distance,cathedral,numerosity_judgement,2,40,6,countries_forward,"['_Cuba_', '_Sudan_', '_Syria_', '_Oman_', '_Togo_', '_Japan_']","['m', 'm', 'm', 'f', 'f', 'm']","['p256', 'p229', 'p318', 'p284', 'p268', 'p307']","[4, 6, 9, 0, 7, 5]","[89.31368318402099, 91.58892582949886, 92.00610777531934, 84.40078082039426, 91.73820004985969, 90.34149293193902]",4.0,False,7.166666666666667,3.0605010483034745,1.507852554321289,0.9093178980819432
0,,sub_116,2024-07-18 15:48:41,3,distance,cathedral,numerosity_judgement,2,41,4,countries_forward,"['_Oman_', '_Sudan_', '_Mali_', '_Belgium_']","['f', 'm', 'f', 'f']","['p268', 'p318', 'p284', 'p248']","[1, 2, 4, 8]","[86.2038576498559, 87.57049330475357, 89.31368318402099, 92.0152836843556]",5.0,False,5.75,3.095695936834452,1.631514072418213,0.9557371467483828
0,,sub_116,2024-07-18 15:48:44,3,distance,cathedral,numerosity_judgement,2,42,5,countries_forward,"['_Mali_', '_Yemen_', '_Peru_', '_Syria_', '_Oman_']","['m', 'f', 'f', 'm', 'f']","['p307', 'p248', 'p268', 'p256', 'p245']","[9, 5, 10, 2, 4]","[92.00610777531934, 90.34149293193902, 93.00003341222717, 87.57049330475357, 89.31368318402099]",3.0,False,8.0,3.391164991562634,1.2499330043792725,0.6808648280558393
0,,sub_116,2024-07-18 15:48:47,3,distance,cathedral,numerosity_judgement,2,43,3,countries_forward,"['_Tonga_', '_Oman_', '_Peru_']","['f', 'm', 'f']","['p245', 'p318', 'p248']","[4, 2, 1]","[89.31368318402099, 87.57049330475357, 86.2038576498559]",4.0,False,4.333333333333333,1.5275252316519465,1.2036349773406982,0.7639200998751561
0,,sub_116,2024-07-18 15:48:50,3,distance,cathedral,numerosity_judgement,2,44,2,countries_forward,"['_Oman_', '_Yemen_']","['f', 'f']","['p248', 'p268']","[5, 3]","[90.34149293193902, 89.14911522239515]",2.0,True,6.0,1.4142135623730951,1.2499542236328125,0.7128135285438656
0,,sub_116,2024-07-18 15:48:53,3,distance,cathedral,numerosity_judgement,2,45,4,countries_forward,"['_Mali_', '_Yemen_', '_Oman_', '_Belgium_']","['f', 'f', 'm', 'f']","['p245', 'p268', 'p256', 'p248']","[0, 5, 1, 6]","[84.40078082039426, 90.34149293193902, 86.2038576498559, 91.58892582949886]",3.0,False,5.0,2.943920288775949,1.3818798065185547,0.8999886505504483
0,,sub_116,2024-07-18 15:48:56,3,distance,cathedral,numerosity_judgement,2,46,6,countries_forward,"['_Peru_', '_Belgium_', '_Togo_', '_Sudan_', '_Cuba_', '_Congo_']","['f', 'm', 'f', 'f', 'm', 'm']","['p245', 'p318', 'p284', 'p268', 'p307', 'p229']","[0, 5, 4, 3, 2, 1]","[84.40078082039426, 90.34149293193902, 89.31368318402099, 89.14911522239515, 87.57049330475357, 86.2038576498559]",4.0,False,4.5,1.8708286933869707,1.0624454021453857,0.9244467143343548
0,,sub_116,2024-07-18 15:48:59,3,distance,cathedral,numerosity_judgement,2,47,5,countries_forward,"['_Syria_', '_Togo_', '_Peru_', '_Mali_', '_Yemen_']","['f', 'f', 'f', 'm', 'm']","['p248', 'p245', 'p268', 'p307', 'p256']","[5, 3, 10, 7, 8]","[90.34149293193902, 89.14911522239515, 93.00003341222717, 91.73820004985969, 92.0152836843556]",3.0,False,8.6,2.701851217221259,0.9999275207519531,0.7912382249460901
0,,sub_116,2024-07-18 15:49:01,3,distance,cathedral,numerosity_judgement,2,48,2,countries_forward,"['_Yemen_', '_Peru_']","['m', 'f']","['p256', 'p245']","[7, 5]","[91.73820004985969, 90.34149293193902]",3.0,False,8.0,1.4142135623730951,1.12858247756958,0.5815457950289411
0,,sub_116,2024-07-18 15:49:04,3,distance,cathedral,numerosity_judgement,2,49,3,countries_forward,"['_Oman_', '_Mali_', '_Yemen_']","['m', 'f', 'f']","['p307', 'p268', 'p284']","[9, 4, 8]","[92.00610777531934, 89.31368318402099, 92.0152836843556]",3.0,True,9.0,2.6457513110645907,1.0624635219573975,0.745545341050959
0,,sub_116,2024-07-18 15:49:07,3,distance,cathedral,numerosity_judgement,2,50,2,countries_forward,"['_Oman_', '_Mali_']","['m', 'm']","['p256', 'p307']","[3, 10]","[89.14911522239515, 93.00003341222717]",2.0,True,8.5,4.949747468305833,1.258655071258545,0.6125524912041767
0,,sub_116,2024-07-18 15:49:10,3,distance,cathedral,numerosity_judgement,2,51,3,countries_forward,"['_Japan_', '_Oman_', '_Syria_']","['m', 'f', 'f']","['p229', 'p268', 'p284']","[2, 6, 0]","[87.57049330475357, 91.58892582949886, 84.40078082039426]",2.0,False,4.666666666666667,3.0550504633038935,1.3749279975891113,0.9364657814096016
0,,sub_116,2024-07-18 15:49:13,3,distance,cathedral,numerosity_judgement,2,52,4,countries_forward,"['_Cuba_', '_Yemen_', '_Congo_', '_Oman_']","['m', 'f', 'f', 'f']","['p307', 'p268', 'p245', 'p248']","[7, 8, 4, 3]","[91.73820004985969, 92.0152836843556, 89.31368318402099, 89.14911522239515]",3.0,False,7.5,2.3804761428476167,1.3872590065002441,0.629043241402792
0,,sub_116,2024-07-18 15:49:16,3,distance,cathedral,numerosity_judgement,2,53,5,countries_forward,"['_Congo_', '_Tonga_', '_Cuba_', '_Oman_', '_Mali_']","['f', 'f', 'm', 'f', 'm']","['p284', 'p248', 'p256', 'p268', 'p229']","[9, 1, 2, 7, 0]","[92.00610777531934, 86.2038576498559, 87.57049330475357, 91.73820004985969, 84.40078082039426]",3.0,False,5.8,3.96232255123179,1.2499339580535889,0.9149472250595846
0,,sub_116,2024-07-18 15:49:19,3,distance,cathedral,numerosity_judgement,2,54,6,countries_forward,"['_Congo_', '_Cuba_', '_Tonga_', '_Peru_', '_Japan_', '_Britain_']","['f', 'm', 'm', 'f', 'f', 'm']","['p248', 'p307', 'p256', 'p284', 'p268', 'p318']","[10, 7, 6, 5, 2, 8]","[93.00003341222717, 91.73820004985969, 91.58892582949886, 90.34149293193902, 87.57049330475357, 92.0152836843556]",3.0,False,8.333333333333334,2.7325202042558927,1.12496018409729,0.7261264328680059
0,,sub_116,2024-07-18 15:49:22,3,distance,cathedral,numerosity_judgement,2,55,4,countries_forward,"['_Peru_', '_Japan_', '_Cuba_', '_Tonga_']","['m', 'f', 'm', 'f']","['p256', 'p248', 'p307', 'p268']","[5, 4, 10, 8]","[90.34149293193902, 89.31368318402099, 93.00003341222717, 92.0152836843556]",2.0,False,8.75,2.753785273643051,1.322751522064209,0.774475087958234
0,,sub_116,2024-07-18 15:49:24,3,distance,cathedral,numerosity_judgement,2,56,2,countries_forward,"['_Sudan_', '_Oman_']","['m', 'm']","['p256', 'p229']","[9, 7]","[92.00610777531934, 91.73820004985969]",3.0,False,10.0,1.4142135623730951,1.0624239444732666,0.7830212234706617
0,,sub_116,2024-07-18 15:49:27,3,distance,cathedral,numerosity_judgement,2,57,6,countries_forward,"['_Tonga_', '_Cuba_', '_Belgium_', '_Oman_', '_Togo_', '_Syria_']","['m', 'f', 'f', 'm', 'f', 'm']","['p318', 'p268', 'p284', 'p256', 'p245', 'p307']","[2, 8, 4, 3, 1, 7]","[87.57049330475357, 92.0152836843556, 89.31368318402099, 89.14911522239515, 86.2038576498559, 91.73820004985969]",3.0,False,6.166666666666667,2.786873995477131,0.9504632949829102,0.8369878560889796
0,,sub_116,2024-07-18 15:49:30,3,distance,cathedral,numerosity_judgement,2,58,5,countries_forward,"['_Sudan_', '_Yemen_', '_Britain_', '_Belgium_', '_Togo_']","['m', 'm', 'm', 'f', 'f']","['p318', 'p307', 'p229', 'p284', 'p248']","[10, 5, 9, 2, 3]","[93.00003341222717, 90.34149293193902, 92.00610777531934, 87.57049330475357, 89.14911522239515]",3.0,False,7.8,3.5637059362410923,0.8749735355377197,0.9039496084439904
0,,sub_116,2024-07-18 15:49:33,3,distance,cathedral,numerosity_judgement,2,59,3,countries_forward,"['_Sudan_', '_Congo_', '_Peru_']","['f', 'm', 'f']","['p284', 'p318', 'p248']","[7, 6, 1]","[91.73820004985969, 91.58892582949886, 86.2038576498559]",3.0,True,6.666666666666667,3.2145502536643185,1.1365880966186523,0.9690727499716264
0,,sub_116,2024-07-18 15:49:36,3,distance,cathedral,numerosity_judgement,2,60,5,countries_forward,"['_Mali_', '_Britain_', '_Yemen_', '_Congo_', '_Oman_']","['f', 'm', 'f', 'f', 'm']","['p284', 'p307', 'p268', 'p245', 'p229']","[4, 0, 8, 2, 10]","[89.31368318402099, 84.40078082039426, 92.0152836843556, 87.57049330475357, 93.00003341222717]",4.0,False,6.8,4.147288270665544,1.3749065399169922,0.7485642946317104
0,,sub_116,2024-07-18 15:49:39,3,distance,cathedral,numerosity_judgement,2,61,2,countries_forward,"['_Congo_', '_Sudan_']","['m', 'f']","['p229', 'p284']","[4, 9]","[89.31368318402099, 92.00610777531934]",3.0,False,8.5,3.5355339059327378,1.437403678894043,0.9516626943593236
0,,sub_116,2024-07-18 15:49:41,3,distance,cathedral,numerosity_judgement,2,62,3,countries_forward,"['_Congo_', '_Oman_', '_Sudan_']","['m', 'f', 'm']","['p256', 'p245', 'p307']","[1, 6, 10]","[86.2038576498559, 91.58892582949886, 93.00003341222717]",2.0,False,7.666666666666667,4.509249752822894,1.002321720123291,0.8303824764498922
0,,sub_116,2024-07-18 15:49:44,3,distance,cathedral,numerosity_judgement,2,63,4,countries_forward,"['_Oman_', '_Mali_', '_Syria_', '_Cuba_']","['m', 'm', 'm', 'm']","['p229', 'p318', 'p256', 'p307']","[4, 5, 3, 6]","[89.31368318402099, 90.34149293193902, 89.14911522239515, 91.58892582949886]",3.0,False,6.5,1.2909944487358056,1.1249380111694336,0.9365792759051186
0,,sub_116,2024-07-18 15:49:47,3,distance,cathedral,numerosity_judgement,2,64,6,countries_forward,"['_Britain_', '_Congo_', '_Oman_', '_Togo_', '_Tonga_', '_Cuba_']","['m', 'm', 'm', 'm', 'f', 'f']","['p318', 'p229', 'p307', 'p256', 'p268', 'p284']","[10, 6, 3, 1, 8, 5]","[93.00003341222717, 91.58892582949886, 89.14911522239515, 86.2038576498559, 92.0152836843556, 90.34149293193902]",3.0,False,7.5,3.271085446759225,1.0622174739837646,0.8142322097378277
0,,sub_116,2024-07-18 15:49:50,3,distance,cathedral,numerosity_judgement,2,65,3,countries_forward,"['_Oman_', '_Japan_', '_Congo_']","['m', 'f', 'm']","['p307', 'p248', 'p256']","[9, 2, 6]","[92.00610777531934, 87.57049330475357, 91.58892582949886]",3.0,True,7.666666666666667,3.5118845842842465,1.1874566078186035,0.8000226988991034
0,,sub_116,2024-07-18 15:49:53,3,distance,cathedral,numerosity_judgement,2,66,6,countries_forward,"['_Mali_', '_Congo_', '_Britain_', '_Peru_', '_Sudan_', '_Japan_']","['m', 'm', 'f', 'm', 'f', 'f']","['p318', 'p307', 'p245', 'p256', 'p248', 'p268']","[4, 6, 7, 10, 5, 1]","[89.31368318402099, 91.58892582949886, 91.73820004985969, 93.00003341222717, 90.34149293193902, 86.2038576498559]",3.0,False,7.5,3.0166206257996713,0.9435336589813232,0.8691181477698332
0,,sub_116,2024-07-18 15:49:55,3,distance,cathedral,numerosity_judgement,2,67,2,countries_forward,"['_Japan_', '_Yemen_']","['m', 'm']","['p256', 'p318']","[0, 10]","[84.40078082039426, 93.00003341222717]",2.0,True,7.0,7.0710678118654755,1.1874349117279053,0.8424015435251391
0,,sub_116,2024-07-18 15:49:58,3,distance,cathedral,numerosity_judgement,2,68,4,countries_forward,"['_Cuba_', '_Oman_', '_Peru_', '_Togo_']","['m', 'm', 'm', 'f']","['p307', 'p229', 'p256', 'p284']","[7, 6, 4, 8]","[91.73820004985969, 91.58892582949886, 89.31368318402099, 92.0152836843556]",3.0,False,8.25,1.707825127659933,1.0015854835510254,0.7162297128589263
0,,sub_116,2024-07-18 15:50:01,3,distance,cathedral,numerosity_judgement,2,69,5,countries_forward,"['_Togo_', '_Belgium_', '_Tonga_', '_Cuba_', '_Yemen_']","['f', 'f', 'm', 'f', 'm']","['p268', 'p248', 'p229', 'p245', 'p318']","[7, 1, 6, 2, 10]","[91.73820004985969, 86.2038576498559, 91.58892582949886, 87.57049330475357, 93.00003341222717]",4.0,False,7.2,3.7013511046643495,1.124920129776001,0.8474633980251958
0,,sub_116,2024-07-18 15:50:03,3,distance,cathedral,numerosity_judgement,2,70,2,countries_forward,"['_Yemen_', '_Oman_']","['f', 'f']","['p245', 'p268']","[10, 7]","[93.00003341222717, 91.73820004985969]",2.0,True,10.5,2.1213203435596424,0.9999475479125977,0.6870729769606174
0,,sub_116,2024-07-18 15:50:06,3,distance,cathedral,numerosity_judgement,2,71,4,countries_forward,"['_Yemen_', '_Peru_', '_Cuba_', '_Britain_']","['m', 'm', 'm', 'f']","['p256', 'p229', 'p307', 'p248']","[9, 1, 7, 8]","[92.00610777531934, 86.2038576498559, 91.73820004985969, 92.0152836843556]",3.0,False,8.25,3.593976442141304,1.1899738311767578,0.6815457950289411
0,,sub_116,2024-07-18 15:50:10,3,distance,cathedral,numerosity_judgement,2,72,6,countries_forward,"['_Oman_', '_Tonga_', '_Japan_', '_Congo_', '_Yemen_', '_Mali_']","['m', 'm', 'f', 'f', 'm', 'f']","['p229', 'p318', 'p248', 'p284', 'p307', 'p245']","[3, 5, 6, 0, 10, 7]","[89.14911522239515, 90.34149293193902, 91.58892582949886, 84.40078082039426, 93.00003341222717, 91.73820004985969]",5.0,False,7.166666666666667,3.4302575219167823,1.3124301433563232,0.7383497900351833
0,,sub_116,2024-07-18 15:50:12,3,distance,cathedral,numerosity_judgement,2,73,3,countries_forward,"['_Tonga_', '_Congo_', '_Belgium_']","['f', 'f', 'm']","['p248', 'p268', 'p307']","[7, 2, 1]","[91.73820004985969, 87.57049330475357, 86.2038576498559]",3.0,True,5.333333333333333,3.2145502536643185,1.138753890991211,0.9014413800930656
0,,sub_116,2024-07-18 15:50:15,3,distance,cathedral,numerosity_judgement,2,74,5,countries_forward,"['_Sudan_', '_Belgium_', '_Syria_', '_Cuba_', '_Japan_']","['m', 'f', 'f', 'm', 'm']","['p229', 'p245', 'p284', 'p318', 'p307']","[6, 5, 9, 0, 10]","[91.58892582949886, 90.34149293193902, 92.00610777531934, 84.40078082039426, 93.00003341222717]",3.0,False,8.0,3.9370039370059056,1.0624656677246094,0.9523323118828736
0,,sub_116,2024-07-18 15:52:11,3,distance,cathedral,numerosity_judgement,3,0,5,countries_reversed,"['_Cuba_reversed', '_Mali_reversed', '_Belgium_reversed', '_Oman_reversed', '_Congo_reversed']","['f', 'm', 'm', 'm', 'f']","['p268', 'p318', 'p256', 'p229', 'p284']","[0, 5, 6, 4, 7]","[84.40078082039426, 90.34149293193902, 91.58892582949886, 89.31368318402099, 91.73820004985969]",4.0,False,6.4,2.701851217221259,2.4373505115509033,0.9255816592895244
0,,sub_116,2024-07-18 15:52:14,3,distance,cathedral,numerosity_judgement,3,1,4,countries_reversed,"['_Belgium_reversed', '_Tonga_reversed', '_Japan_reversed', '_Britain_reversed']","['f', 'f', 'm', 'm']","['p284', 'p268', 'p256', 'p318']","[0, 10, 4, 9]","[84.40078082039426, 93.00003341222717, 89.31368318402099, 92.00610777531934]",3.0,False,7.75,4.645786621588784,1.5674679279327393,0.8967654068777664
0,,sub_116,2024-07-18 15:52:17,3,distance,cathedral,numerosity_judgement,3,2,3,countries_reversed,"['_Mali_reversed', '_Oman_reversed', '_Yemen_reversed']","['m', 'm', 'm']","['p318', 'p229', 'p256']","[8, 6, 3]","[92.0152836843556, 91.58892582949886, 89.14911522239515]",3.0,True,7.666666666666667,2.516611478423583,1.7540793418884277,0.6290886392009988
0,,sub_116,2024-07-18 15:52:19,3,distance,cathedral,numerosity_judgement,3,3,6,countries_reversed,"['_Togo_reversed', '_Britain_reversed', '_Tonga_reversed', '_Oman_reversed', '_Mali_reversed', '_Cuba_reversed']","['m', 'm', 'f', 'f', 'm', 'm']","['p318', 'p229', 'p284', 'p268', 'p256', 'p307']","[5, 3, 1, 6, 4, 7]","[90.34149293193902, 89.14911522239515, 86.2038576498559, 91.58892582949886, 89.31368318402099, 91.73820004985969]",3.0,False,6.333333333333333,2.160246899469287,1.6874306201934814,0.7108387243218703
0,,sub_116,2024-07-18 15:52:22,3,distance,cathedral,numerosity_judgement,3,4,2,countries_reversed,"['_Oman_reversed', '_Yemen_reversed']","['m', 'f']","['p229', 'p245']","[6, 3]","[91.58892582949886, 89.14911522239515]",2.0,True,6.5,2.1213203435596424,1.3895552158355713,0.7013051866984451
0,,sub_116,2024-07-18 15:52:25,3,distance,cathedral,numerosity_judgement,3,5,4,countries_reversed,"['_Oman_reversed', '_Syria_reversed', '_Cuba_reversed', '_Togo_reversed']","['m', 'f', 'f', 'f']","['p307', 'p268', 'p248', 'p245']","[5, 3, 10, 0]","[90.34149293193902, 89.14911522239515, 93.00003341222717, 84.40078082039426]",5.0,False,6.5,4.203173404306164,1.3124110698699951,0.7458971739870617
0,,sub_116,2024-07-18 15:52:27,3,distance,cathedral,numerosity_judgement,3,6,5,countries_reversed,"['_Belgium_reversed', '_Cuba_reversed', '_Congo_reversed', '_Oman_reversed', '_Britain_reversed']","['f', 'm', 'f', 'f', 'm']","['p268', 'p307', 'p248', 'p245', 'p229']","[9, 7, 4, 6, 10]","[92.00610777531934, 91.73820004985969, 89.31368318402099, 91.58892582949886, 93.00003341222717]",3.0,False,9.2,2.3874672772626644,1.5163824558258057,0.6419362160935195
0,,sub_116,2024-07-18 15:52:30,3,distance,cathedral,numerosity_judgement,3,7,6,countries_reversed,"['_Japan_reversed', '_Belgium_reversed', '_Peru_reversed', '_Cuba_reversed', '_Yemen_reversed', '_Sudan_reversed']","['m', 'f', 'f', 'm', 'f', 'm']","['p229', 'p268', 'p284', 'p256', 'p248', 'p307']","[6, 0, 1, 8, 7, 10]","[91.58892582949886, 84.40078082039426, 86.2038576498559, 92.0152836843556, 91.73820004985969, 93.00003341222717]",4.0,False,7.333333333333333,3.9832984656772417,1.1249382495880127,0.8830893201679718
0,,sub_116,2024-07-18 15:52:32,3,distance,cathedral,numerosity_judgement,3,8,2,countries_reversed,"['_Cuba_reversed', '_Belgium_reversed']","['f', 'm']","['p284', 'p318']","[8, 3]","[92.0152836843556, 89.14911522239515]",5.0,False,7.5,3.5355339059327378,1.3905434608459473,0.8837021904437635
0,,sub_116,2024-07-18 15:52:35,3,distance,cathedral,numerosity_judgement,3,9,3,countries_reversed,"['_Oman_reversed', '_Peru_reversed', '_Japan_reversed']","['m', 'f', 'f']","['p307', 'p248', 'p268']","[3, 6, 1]","[89.14911522239515, 91.58892582949886, 86.2038576498559]",3.0,True,5.333333333333333,2.516611478423583,1.0624635219573975,0.9156962887299966
0,,sub_116,2024-07-18 15:52:37,3,distance,cathedral,numerosity_judgement,3,10,2,countries_reversed,"['_Peru_reversed', '_Cuba_reversed']","['m', 'f']","['p307', 'p245']","[2, 7]","[87.57049330475357, 91.73820004985969]",2.0,True,6.5,3.5355339059327378,1.0097806453704834,0.575076608784474
0,,sub_116,2024-07-18 15:52:40,3,distance,cathedral,numerosity_judgement,3,11,6,countries_reversed,"['_Syria_reversed', '_Cuba_reversed', '_Japan_reversed', '_Belgium_reversed', '_Oman_reversed', '_Yemen_reversed']","['f', 'f', 'm', 'f', 'f', 'm']","['p268', 'p245', 'p318', 'p248', 'p284', 'p256']","[8, 7, 1, 5, 9, 3]","[92.0152836843556, 91.73820004985969, 86.2038576498559, 90.34149293193902, 92.00610777531934, 89.14911522239515]",6.0,True,7.5,3.082207001484488,1.312450647354126,0.8169674270797866
0,,sub_116,2024-07-18 15:52:42,3,distance,cathedral,numerosity_judgement,3,12,3,countries_reversed,"['_Peru_reversed', '_Britain_reversed', '_Syria_reversed']","['m', 'f', 'm']","['p256', 'p284', 'p318']","[3, 4, 1]","[89.14911522239515, 89.31368318402099, 86.2038576498559]",5.0,False,4.666666666666667,1.5275252316519465,1.3203256130218506,0.9311201906707524
0,,sub_116,2024-07-18 15:52:45,3,distance,cathedral,numerosity_judgement,3,13,4,countries_reversed,"['_Cuba_reversed', '_Japan_reversed', '_Congo_reversed', '_Tonga_reversed']","['m', 'f', 'f', 'f']","['p256', 'p245', 'p284', 'p268']","[4, 5, 6, 10]","[89.31368318402099, 90.34149293193902, 91.58892582949886, 93.00003341222717]",3.0,False,8.25,2.6299556396765835,1.2499327659606934,0.9082964476222904
0,,sub_116,2024-07-18 15:52:47,3,distance,cathedral,numerosity_judgement,3,14,5,countries_reversed,"['_Syria_reversed', '_Oman_reversed', '_Britain_reversed', '_Sudan_reversed', '_Belgium_reversed']","['f', 'f', 'm', 'f', 'm']","['p268', 'p248', 'p256', 'p284', 'p307']","[10, 4, 1, 9, 6]","[93.00003341222717, 89.31368318402099, 86.2038576498559, 92.00610777531934, 91.58892582949886]",5.0,True,8.0,3.6742346141747673,1.072774887084961,0.9573828169333788
0,,sub_116,2024-07-18 15:52:50,3,distance,cathedral,numerosity_judgement,3,15,2,countries_reversed,"['_Peru_reversed', '_Yemen_reversed']","['f', 'm']","['p284', 'p256']","[4, 10]","[89.31368318402099, 93.00003341222717]",3.0,False,9.0,4.242640687119285,1.4999194145202637,0.6791397117239814
0,,sub_116,2024-07-18 15:52:52,3,distance,cathedral,numerosity_judgement,3,16,4,countries_reversed,"['_Britain_reversed', '_Syria_reversed', '_Oman_reversed', '_Congo_reversed']","['f', 'm', 'm', 'm']","['p284', 'p229', 'p307', 'p318']","[0, 1, 2, 4]","[84.40078082039426, 86.2038576498559, 87.57049330475357, 89.31368318402099]",6.0,False,3.75,1.707825127659933,1.0733563899993896,0.9479854727045738
0,,sub_116,2024-07-18 15:52:54,3,distance,cathedral,numerosity_judgement,3,17,6,countries_reversed,"['_Japan_reversed', '_Tonga_reversed', '_Congo_reversed', '_Sudan_reversed', '_Peru_reversed', '_Belgium_reversed']","['f', 'f', 'm', 'm', 'm', 'm']","['p245', 'p248', 'p256', 'p229', 'p318', 'p307']","[1, 8, 0, 7, 9, 5]","[86.2038576498559, 92.0152836843556, 84.40078082039426, 91.73820004985969, 92.00610777531934, 90.34149293193902]",6.0,True,7.0,3.7416573867739413,0.999948263168335,0.9540006809669732
0,,sub_116,2024-07-18 15:52:57,3,distance,cathedral,numerosity_judgement,3,18,3,countries_reversed,"['_Syria_reversed', '_Belgium_reversed', '_Sudan_reversed']","['f', 'm', 'f']","['p268', 'p229', 'p248']","[1, 5, 9]","[86.2038576498559, 90.34149293193902, 92.00610777531934]",4.0,False,7.0,4.0,1.0649232864379883,0.8833049597094541
0,,sub_116,2024-07-18 15:52:59,3,distance,cathedral,numerosity_judgement,3,19,5,countries_reversed,"['_Britain_reversed', '_Togo_reversed', '_Oman_reversed', '_Cuba_reversed', '_Syria_reversed']","['m', 'm', 'm', 'f', 'f']","['p256', 'p229', 'p307', 'p268', 'p248']","[0, 1, 9, 6, 2]","[84.40078082039426, 86.2038576498559, 92.00610777531934, 91.58892582949886, 87.57049330475357]",5.0,True,5.6,3.7815340802378072,1.1249184608459473,0.6839859266825559
0,,sub_116,2024-07-18 15:53:01,3,distance,cathedral,numerosity_judgement,3,20,4,countries_reversed,"['_Yemen_reversed', '_Cuba_reversed', '_Tonga_reversed', '_Mali_reversed']","['m', 'f', 'm', 'm']","['p229', 'p284', 'p307', 'p256']","[10, 6, 1, 4]","[93.00003341222717, 91.58892582949886, 86.2038576498559, 89.31368318402099]",5.0,False,7.25,3.774917217635375,1.250018835067749,0.85411417546249
0,,sub_116,2024-07-18 15:53:04,3,distance,cathedral,numerosity_judgement,3,21,2,countries_reversed,"['_Syria_reversed', '_Congo_reversed']","['m', 'f']","['p256', 'p245']","[10, 7]","[93.00003341222717, 91.73820004985969]",4.0,False,10.5,2.1213203435596424,1.2499127388000488,0.8257632504823516
0,,sub_116,2024-07-18 15:53:06,3,distance,cathedral,numerosity_judgement,3,22,6,countries_reversed,"['_Belgium_reversed', '_Yemen_reversed', '_Cuba_reversed', '_Tonga_reversed', '_Peru_reversed', '_Oman_reversed']","['f', 'm', 'm', 'f', 'm', 'm']","['p268', 'p318', 'p229', 'p245', 'p307', 'p256']","[5, 0, 3, 7, 1, 10]","[90.34149293193902, 84.40078082039426, 89.14911522239515, 91.73820004985969, 86.2038576498559, 93.00003341222717]",5.0,False,6.333333333333333,3.777124126457412,0.9999668598175049,0.6814890477811826
0,,sub_116,2024-07-18 15:53:08,3,distance,cathedral,numerosity_judgement,3,23,3,countries_reversed,"['_Oman_reversed', '_Congo_reversed', '_Britain_reversed']","['m', 'm', 'f']","['p307', 'p318', 'p268']","[5, 10, 9]","[90.34149293193902, 93.00003341222717, 92.00610777531934]",3.0,True,10.0,2.6457513110645907,1.1894261837005615,0.7325161729656112
0,,sub_116,2024-07-18 15:53:11,3,distance,cathedral,numerosity_judgement,3,24,5,countries_reversed,"['_Belgium_reversed', '_Togo_reversed', '_Peru_reversed', '_Mali_reversed', '_Congo_reversed']","['f', 'f', 'f', 'm', 'f']","['p268', 'p248', 'p245', 'p318', 'p284']","[4, 3, 10, 5, 6]","[89.31368318402099, 89.14911522239515, 93.00003341222717, 90.34149293193902, 91.58892582949886]",3.0,False,7.6,2.701851217221259,1.062443494796753,0.847418000226989
0,,sub_116,2024-07-18 15:53:14,3,distance,cathedral,numerosity_judgement,3,25,6,countries_reversed,"['_Yemen_reversed', '_Cuba_reversed', '_Oman_reversed', '_Togo_reversed', '_Belgium_reversed', '_Japan_reversed']","['m', 'f', 'm', 'm', 'f', 'f']","['p229', 'p248', 'p307', 'p256', 'p284', 'p245']","[3, 1, 7, 0, 8, 4]","[89.14911522239515, 86.2038576498559, 91.73820004985969, 84.40078082039426, 92.0152836843556, 89.31368318402099]",4.0,False,5.833333333333333,3.188521078284832,1.8804476261138916,0.8515038020655998
0,,sub_116,2024-07-18 15:53:16,3,distance,cathedral,numerosity_judgement,3,26,4,countries_reversed,"['_Sudan_reversed', '_Cuba_reversed', '_Britain_reversed', '_Oman_reversed']","['m', 'f', 'm', 'm']","['p307', 'p245', 'p256', 'p229']","[9, 7, 0, 1]","[92.00610777531934, 91.73820004985969, 84.40078082039426, 86.2038576498559]",6.0,False,6.25,4.425306015783918,1.0624215602874756,0.7047667688117126
0,,sub_116,2024-07-18 15:53:19,3,distance,cathedral,numerosity_judgement,3,27,2,countries_reversed,"['_Tonga_reversed', '_Oman_reversed']","['f', 'm']","['p248', 'p307']","[10, 7]","[93.00003341222717, 91.73820004985969]",3.0,False,10.5,2.1213203435596424,1.4999196529388428,0.6091249574395642
0,,sub_116,2024-07-18 15:53:21,3,distance,cathedral,numerosity_judgement,3,28,5,countries_reversed,"['_Cuba_reversed', '_Sudan_reversed', '_Belgium_reversed', '_Japan_reversed', '_Tonga_reversed']","['f', 'm', 'f', 'f', 'f']","['p245', 'p307', 'p248', 'p268', 'p284']","[4, 2, 9, 8, 5]","[89.31368318402099, 87.57049330475357, 92.00610777531934, 92.0152836843556, 90.34149293193902]",4.0,False,7.6,2.8809720581775866,1.1885793209075928,0.8844172057655204
0,,sub_116,2024-07-18 15:53:24,3,distance,cathedral,numerosity_judgement,3,29,3,countries_reversed,"['_Oman_reversed', '_Yemen_reversed', '_Peru_reversed']","['f', 'f', 'm']","['p245', 'p248', 'p229']","[6, 2, 1]","[91.58892582949886, 87.57049330475357, 86.2038576498559]",3.0,True,5.0,2.6457513110645907,1.3124303817749023,0.6894563613664737
0,,sub_116,2024-07-18 15:53:27,3,distance,cathedral,numerosity_judgement,3,30,6,countries_reversed,"['_Cuba_reversed', '_Mali_reversed', '_Tonga_reversed', '_Britain_reversed', '_Syria_reversed', '_Japan_reversed']","['f', 'f', 'm', 'm', 'f', 'f']","['p248', 'p245', 'p318', 'p229', 'p284', 'p268']","[3, 6, 7, 9, 0, 8]","[89.14911522239515, 91.58892582949886, 91.73820004985969, 92.00610777531934, 84.40078082039426, 92.0152836843556]",4.0,False,7.5,3.391164991562634,1.3767166137695312,0.8947679037566678
0,,sub_116,2024-07-18 15:53:29,3,distance,cathedral,numerosity_judgement,3,31,2,countries_reversed,"['_Oman_reversed', '_Belgium_reversed']","['m', 'm']","['p256', 'p307']","[4, 5]","[89.31368318402099, 90.34149293193902]",3.0,False,6.5,0.7071067811865476,1.3124310970306396,0.8532402678470095
0,,sub_116,2024-07-18 15:53:32,3,distance,cathedral,numerosity_judgement,3,32,5,countries_reversed,"['_Syria_reversed', '_Cuba_reversed', '_Oman_reversed', '_Tonga_reversed', '_Belgium_reversed']","['m', 'm', 'f', 'f', 'm']","['p256', 'p229', 'p245', 'p268', 'p307']","[9, 6, 4, 5, 8]","[92.00610777531934, 91.58892582949886, 89.31368318402099, 90.34149293193902, 92.0152836843556]",5.0,True,8.4,2.073644135332772,1.1885273456573486,0.7657473612529793
0,,sub_116,2024-07-18 15:53:34,3,distance,cathedral,numerosity_judgement,3,33,4,countries_reversed,"['_Britain_reversed', '_Peru_reversed', '_Oman_reversed', '_Syria_reversed']","['m', 'f', 'm', 'm']","['p318', 'p245', 'p229', 'p256']","[6, 9, 7, 5]","[91.58892582949886, 92.00610777531934, 91.73820004985969, 90.34149293193902]",3.0,False,8.75,1.707825127659933,1.2499113082885742,0.6560549313358303
0,,sub_116,2024-07-18 15:53:37,3,distance,cathedral,numerosity_judgement,3,34,3,countries_reversed,"['_Congo_reversed', '_Cuba_reversed', '_Tonga_reversed']","['f', 'm', 'm']","['p268', 'p307', 'p256']","[8, 7, 4]","[92.0152836843556, 91.73820004985969, 89.31368318402099]",4.0,False,8.333333333333334,2.0816659994661326,1.570148229598999,0.677505390988537
0,,sub_116,2024-07-18 15:53:39,3,distance,cathedral,numerosity_judgement,3,35,4,countries_reversed,"['_Yemen_reversed', '_Britain_reversed', '_Congo_reversed', '_Tonga_reversed']","['m', 'f', 'm', 'm']","['p229', 'p248', 'p307', 'p256']","[4, 2, 8, 5]","[89.31368318402099, 87.57049330475357, 92.0152836843556, 90.34149293193902]",3.0,False,6.75,2.5,1.374925136566162,0.7709908069458631
0,,sub_116,2024-07-18 15:53:42,3,distance,cathedral,numerosity_judgement,3,36,6,countries_reversed,"['_Britain_reversed', '_Oman_reversed', '_Cuba_reversed', '_Togo_reversed', '_Syria_reversed', '_Yemen_reversed']","['f', 'f', 'm', 'm', 'f', 'f']","['p284', 'p248', 'p307', 'p256', 'p245', 'p268']","[2, 5, 10, 1, 6, 8]","[87.57049330475357, 90.34149293193902, 93.00003341222717, 86.2038576498559, 91.58892582949886, 92.0152836843556]",6.0,True,7.333333333333333,3.444802848737017,1.2596821784973145,0.8004653274316196
0,,sub_116,2024-07-18 15:53:44,3,distance,cathedral,numerosity_judgement,3,37,5,countries_reversed,"['_Mali_reversed', '_Cuba_reversed', '_Oman_reversed', '_Tonga_reversed', '_Peru_reversed']","['m', 'f', 'm', 'f', 'f']","['p229', 'p245', 'p307', 'p248', 'p284']","[0, 9, 4, 10, 8]","[84.40078082039426, 92.00610777531934, 89.31368318402099, 93.00003341222717, 92.0152836843556]",3.0,False,8.2,4.147288270665544,1.1874372959136963,0.7339008058109182
0,,sub_116,2024-07-18 15:53:47,3,distance,cathedral,numerosity_judgement,3,38,3,countries_reversed,"['_Sudan_reversed', '_Tonga_reversed', '_Cuba_reversed']","['m', 'f', 'f']","['p256', 'p248', 'p245']","[8, 10, 5]","[92.0152836843556, 93.00003341222717, 90.34149293193902]",4.0,False,9.666666666666666,2.516611478423583,1.0640242099761963,0.6367268187492907
0,,sub_116,2024-07-18 15:53:49,3,distance,cathedral,numerosity_judgement,3,39,2,countries_reversed,"['_Congo_reversed', '_Tonga_reversed']","['f', 'm']","['p284', 'p256']","[9, 7]","[92.00610777531934, 91.73820004985969]",3.0,False,10.0,1.4142135623730951,1.1249198913574219,0.901759164680513
0,,sub_116,2024-07-18 15:53:51,3,distance,cathedral,numerosity_judgement,3,40,6,countries_reversed,"['_Syria_reversed', '_Tonga_reversed', '_Cuba_reversed', '_Mali_reversed', '_Britain_reversed', '_Togo_reversed']","['f', 'f', 'm', 'm', 'f', 'm']","['p245', 'p268', 'p229', 'p307', 'p248', 'p256']","[7, 1, 2, 6, 0, 3]","[91.73820004985969, 86.2038576498559, 87.57049330475357, 91.58892582949886, 84.40078082039426, 89.14911522239515]",3.0,False,5.166666666666667,2.786873995477131,1.12492036819458,0.9200658268073998
0,,sub_116,2024-07-18 15:53:54,3,distance,cathedral,numerosity_judgement,3,41,5,countries_reversed,"['_Syria_reversed', '_Oman_reversed', '_Sudan_reversed', '_Tonga_reversed', '_Cuba_reversed']","['f', 'f', 'm', 'f', 'm']","['p248', 'p268', 'p256', 'p245', 'p307']","[5, 9, 8, 6, 7]","[90.34149293193902, 92.00610777531934, 92.0152836843556, 91.58892582949886, 91.73820004985969]",4.0,False,9.0,1.5811388300841898,1.1249215602874756,0.7230393825899444
0,,sub_116,2024-07-18 15:53:56,3,distance,cathedral,numerosity_judgement,3,42,4,countries_reversed,"['_Oman_reversed', '_Togo_reversed', '_Tonga_reversed', '_Cuba_reversed']","['m', 'm', 'f', 'm']","['p256', 'p307', 'p268', 'p318']","[10, 1, 0, 2]","[93.00003341222717, 86.2038576498559, 84.40078082039426, 87.57049330475357]",3.0,False,5.25,4.573474244670748,1.2499134540557861,0.832822608103507
0,,sub_116,2024-07-18 15:53:59,3,distance,cathedral,numerosity_judgement,3,43,3,countries_reversed,"['_Syria_reversed', '_Cuba_reversed', '_Belgium_reversed']","['m', 'm', 'f']","['p318', 'p256', 'p268']","[2, 10, 4]","[87.57049330475357, 93.00003341222717, 89.31368318402099]",3.0,True,7.333333333333333,4.163331998932266,1.2499537467956543,0.7785495403472932
0,,sub_116,2024-07-18 15:54:02,3,distance,cathedral,numerosity_judgement,3,44,2,countries_reversed,"['_Cuba_reversed', '_Peru_reversed']","['m', 'm']","['p256', 'p307']","[10, 0]","[93.00003341222717, 84.40078082039426]",2.0,True,7.0,7.0710678118654755,1.880300760269165,0.6309953467256838
0,,sub_116,2024-07-18 15:54:04,3,distance,cathedral,numerosity_judgement,3,45,3,countries_reversed,"['_Britain_reversed', '_Togo_reversed', '_Oman_reversed']","['m', 'f', 'f']","['p307', 'p245', 'p248']","[5, 6, 8]","[90.34149293193902, 91.58892582949886, 92.0152836843556]",4.0,False,8.333333333333334,1.5275252316519468,1.249953269958496,0.8266939053455907
0,,sub_116,2024-07-18 15:54:07,3,distance,cathedral,numerosity_judgement,3,46,5,countries_reversed,"['_Britain_reversed', '_Belgium_reversed', '_Yemen_reversed', '_Mali_reversed', '_Sudan_reversed']","['m', 'f', 'm', 'f', 'f']","['p318', 'p245', 'p229', 'p284', 'p248']","[4, 6, 10, 8, 1]","[89.31368318402099, 91.58892582949886, 93.00003341222717, 92.0152836843556, 86.2038576498559]",5.0,True,7.8,3.492849839314596,1.6348199844360352,0.9349676540687776
0,,sub_116,2024-07-18 15:54:10,3,distance,cathedral,numerosity_judgement,3,47,6,countries_reversed,"['_Syria_reversed', '_Cuba_reversed', '_Peru_reversed', '_Mali_reversed', '_Tonga_reversed', '_Togo_reversed']","['m', 'm', 'm', 'f', 'f', 'f']","['p256', 'p229', 'p318', 'p248', 'p284', 'p245']","[7, 9, 0, 10, 6, 3]","[91.73820004985969, 92.00610777531934, 84.40078082039426, 93.00003341222717, 91.58892582949886, 89.14911522239515]",5.0,False,7.833333333333333,3.763863263545405,1.499922752380371,0.8378163659062535
0,,sub_116,2024-07-18 15:54:12,3,distance,cathedral,numerosity_judgement,3,48,4,countries_reversed,"['_Britain_reversed', '_Congo_reversed', '_Cuba_reversed', '_Peru_reversed']","['f', 'm', 'f', 'm']","['p248', 'p318', 'p245', 'p307']","[9, 10, 7, 8]","[92.00610777531934, 93.00003341222717, 91.73820004985969, 92.0152836843556]",5.0,False,10.5,1.2909944487358056,1.3134238719940186,0.7212915673589831
0,,sub_116,2024-07-18 15:54:15,3,distance,cathedral,numerosity_judgement,3,49,2,countries_reversed,"['_Yemen_reversed', '_Togo_reversed']","['m', 'm']","['p307', 'p256']","[7, 1]","[91.73820004985969, 86.2038576498559]",4.0,False,6.0,4.242640687119285,1.2499310970306396,0.759471115650891
0,,sub_116,2024-07-18 15:54:18,3,distance,cathedral,numerosity_judgement,3,50,5,countries_reversed,"['_Syria_reversed', '_Mali_reversed', '_Peru_reversed', '_Tonga_reversed', '_Oman_reversed']","['f', 'm', 'm', 'm', 'f']","['p284', 'p256', 'p307', 'p318', 'p245']","[9, 1, 6, 8, 5]","[92.00610777531934, 86.2038576498559, 91.58892582949886, 92.0152836843556, 90.34149293193902]",6.0,False,7.8,3.1144823004794877,1.5155553817749023,0.7925774599931903
0,,sub_116,2024-07-18 15:54:20,3,distance,cathedral,numerosity_judgement,3,51,2,countries_reversed,"['_Congo_reversed', '_Sudan_reversed']","['f', 'm']","['p268', 'p229']","[0, 9]","[84.40078082039426, 92.00610777531934]",3.0,False,6.5,6.363961030678928,1.1249403953552246,0.9592895244580638
0,,sub_116,2024-07-18 15:54:22,3,distance,cathedral,numerosity_judgement,3,52,3,countries_reversed,"['_Oman_reversed', '_Syria_reversed', '_Yemen_reversed']","['m', 'f', 'm']","['p307', 'p268', 'p229']","[6, 8, 9]","[91.58892582949886, 92.0152836843556, 92.00610777531934]",3.0,True,9.666666666666666,1.5275252316519468,1.198547601699829,0.8091249574395641
0,,sub_116,2024-07-18 15:54:25,3,distance,cathedral,numerosity_judgement,3,53,6,countries_reversed,"['_Yemen_reversed', '_Oman_reversed', '_Japan_reversed', '_Peru_reversed', '_Mali_reversed', '_Syria_reversed']","['f', 'm', 'm', 'f', 'm', 'f']","['p248', 'p229', 'p318', 'p284', 'p256', 'p245']","[5, 6, 9, 3, 10, 4]","[90.34149293193902, 91.58892582949886, 92.00610777531934, 89.14911522239515, 93.00003341222717, 89.31368318402099]",4.0,False,8.166666666666666,2.786873995477131,0.9999659061431885,0.7443763477471342
0,,sub_116,2024-07-18 15:54:27,3,distance,cathedral,numerosity_judgement,3,54,4,countries_reversed,"['_Peru_reversed', '_Yemen_reversed', '_Cuba_reversed', '_Britain_reversed']","['m', 'f', 'm', 'f']","['p318', 'p248', 'p307', 'p284']","[5, 4, 7, 0]","[90.34149293193902, 89.31368318402099, 91.73820004985969, 84.40078082039426]",5.0,False,6.0,2.943920288775949,1.069798469543457,0.6810123709000113
0,,sub_116,2024-07-18 15:54:29,3,distance,cathedral,numerosity_judgement,3,55,2,countries_reversed,"['_Cuba_reversed', '_Tonga_reversed']","['f', 'm']","['p245', 'p318']","[3, 9]","[89.14911522239515, 92.00610777531934]",4.0,False,8.0,4.242640687119285,0.9374315738677979,0.7479741232550221
0,,sub_116,2024-07-18 15:54:31,3,distance,cathedral,numerosity_judgement,3,56,5,countries_reversed,"['_Japan_reversed', '_Sudan_reversed', '_Cuba_reversed', '_Yemen_reversed', '_Britain_reversed']","['m', 'f', 'f', 'f', 'f']","['p256', 'p248', 'p245', 'p268', 'p284']","[10, 5, 7, 9, 6]","[93.00003341222717, 90.34149293193902, 91.73820004985969, 92.00610777531934, 91.58892582949886]",5.0,True,9.4,2.073644135332772,1.1246845722198486,0.6996368176143457
0,,sub_116,2024-07-18 15:54:34,3,distance,cathedral,numerosity_judgement,3,57,6,countries_reversed,"['_Oman_reversed', '_Sudan_reversed', '_Tonga_reversed', '_Mali_reversed', '_Congo_reversed', '_Cuba_reversed']","['f', 'm', 'm', 'm', 'f', 'f']","['p248', 'p256', 'p229', 'p307', 'p245', 'p284']","[0, 10, 8, 3, 2, 6]","[84.40078082039426, 93.00003341222717, 92.0152836843556, 89.14911522239515, 87.57049330475357, 91.58892582949886]",5.0,False,6.833333333333333,3.8166302763912916,1.1249604225158691,0.7379185109522188
0,,sub_116,2024-07-18 15:54:36,3,distance,cathedral,numerosity_judgement,3,58,4,countries_reversed,"['_Mali_reversed', '_Belgium_reversed', '_Yemen_reversed', '_Congo_reversed']","['m', 'f', 'm', 'm']","['p307', 'p245', 'p318', 'p256']","[7, 10, 8, 4]","[91.73820004985969, 93.00003341222717, 92.0152836843556, 89.31368318402099]",6.0,False,9.25,2.5,1.2499117851257324,0.8008398592668255
0,,sub_116,2024-07-18 15:54:39,3,distance,cathedral,numerosity_judgement,3,59,3,countries_reversed,"['_Yemen_reversed', '_Oman_reversed', '_Tonga_reversed']","['m', 'm', 'f']","['p256', 'p307', 'p245']","[2, 5, 10]","[87.57049330475357, 90.34149293193902, 93.00003341222717]",3.0,True,7.666666666666667,4.041451884327381,1.687410831451416,0.5832936102599023
0,,sub_116,2024-07-18 15:54:42,3,distance,cathedral,numerosity_judgement,3,60,2,countries_reversed,"['_Belgium_reversed', '_Mali_reversed']","['f', 'f']","['p268', 'p245']","[1, 0]","[86.2038576498559, 84.40078082039426]",2.0,True,2.5,0.7071067811865476,1.2535018920898438,0.9392350471002155
0,,sub_116,2024-07-18 15:54:45,3,distance,cathedral,numerosity_judgement,3,61,5,countries_reversed,"['_Togo_reversed', '_Tonga_reversed', '_Japan_reversed', '_Peru_reversed', '_Cuba_reversed']","['m', 'f', 'f', 'f', 'f']","['p307', 'p245', 'p268', 'p248', 'p284']","[9, 6, 10, 5, 8]","[92.00610777531934, 91.58892582949886, 93.00003341222717, 90.34149293193902, 92.0152836843556]",4.0,False,9.6,2.073644135332772,1.4999194145202637,0.7972761321075927
0,,sub_116,2024-07-18 15:54:47,3,distance,cathedral,numerosity_judgement,3,62,3,countries_reversed,"['_Oman_reversed', '_Togo_reversed', '_Yemen_reversed']","['m', 'm', 'f']","['p318', 'p256', 'p248']","[0, 10, 3]","[84.40078082039426, 93.00003341222717, 89.14911522239515]",3.0,True,6.333333333333333,5.131601439446884,1.3845703601837158,0.7514584042673931
0,,sub_116,2024-07-18 15:54:49,3,distance,cathedral,numerosity_judgement,3,63,4,countries_reversed,"['_Oman_reversed', '_Yemen_reversed', '_Britain_reversed', '_Mali_reversed']","['m', 'm', 'm', 'm']","['p229', 'p318', 'p307', 'p256']","[5, 7, 9, 6]","[90.34149293193902, 91.73820004985969, 92.00610777531934, 91.58892582949886]",4.0,True,8.75,1.707825127659933,0.9374697208404541,0.6135966405629327
0,,sub_116,2024-07-18 15:54:52,3,distance,cathedral,numerosity_judgement,3,64,6,countries_reversed,"['_Congo_reversed', '_Syria_reversed', '_Togo_reversed', '_Sudan_reversed', '_Mali_reversed', '_Tonga_reversed']","['m', 'f', 'm', 'f', 'f', 'm']","['p229', 'p248', 'p318', 'p268', 'p245', 'p307']","[0, 6, 2, 5, 3, 4]","[84.40078082039426, 91.58892582949886, 87.57049330475357, 90.34149293193902, 89.14911522239515, 89.31368318402099]",5.0,False,5.333333333333333,2.160246899469287,1.064002513885498,0.9440358642605834
0,,sub_116,2024-07-18 15:54:54,3,distance,cathedral,numerosity_judgement,3,65,3,countries_reversed,"['_Yemen_reversed', '_Cuba_reversed', '_Britain_reversed']","['f', 'f', 'f']","['p284', 'p245', 'p248']","[4, 2, 6]","[89.31368318402099, 87.57049330475357, 91.58892582949886]",3.0,True,6.0,2.0,1.3749077320098877,0.8511746680286006
0,,sub_116,2024-07-18 15:54:57,3,distance,cathedral,numerosity_judgement,3,66,2,countries_reversed,"['_Oman_reversed', '_Japan_reversed']","['m', 'f']","['p318', 'p268']","[4, 5]","[89.31368318402099, 90.34149293193902]",2.0,True,6.5,0.7071067811865476,1.1859955787658691,0.7892747701736466
0,,sub_116,2024-07-18 15:54:59,3,distance,cathedral,numerosity_judgement,3,67,6,countries_reversed,"['_Tonga_reversed', '_Peru_reversed', '_Mali_reversed', '_Oman_reversed', '_Sudan_reversed', '_Britain_reversed']","['f', 'f', 'f', 'm', 'm', 'f']","['p268', 'p284', 'p245', 'p307', 'p318', 'p248']","[1, 7, 6, 5, 10, 4]","[86.2038576498559, 91.73820004985969, 91.58892582949886, 90.34149293193902, 93.00003341222717, 89.31368318402099]",5.0,False,7.5,3.0166206257996713,1.2499334812164307,0.7812961071388038
0,,sub_116,2024-07-18 15:55:01,3,distance,cathedral,numerosity_judgement,3,68,5,countries_reversed,"['_Congo_reversed', '_Oman_reversed', '_Yemen_reversed', '_Tonga_reversed', '_Peru_reversed']","['m', 'm', 'f', 'm', 'm']","['p256', 'p229', 'p245', 'p307', 'p318']","[5, 2, 0, 10, 9]","[90.34149293193902, 87.57049330475357, 84.40078082039426, 93.00003341222717, 92.00610777531934]",6.0,False,7.2,4.324349662087931,1.1249401569366455,0.8302122347066168
0,,sub_116,2024-07-18 15:55:04,3,distance,cathedral,numerosity_judgement,3,69,4,countries_reversed,"['_Oman_reversed', '_Japan_reversed', '_Sudan_reversed', '_Belgium_reversed']","['m', 'f', 'f', 'm']","['p318', 'p268', 'p284', 'p307']","[8, 10, 1, 2]","[92.0152836843556, 93.00003341222717, 86.2038576498559, 87.57049330475357]",6.0,False,7.25,4.425306015783918,1.3124499320983887,0.93083645443196
0,,sub_116,2024-07-18 15:55:06,3,distance,cathedral,numerosity_judgement,3,70,3,countries_reversed,"['_Syria_reversed', '_Oman_reversed', '_Togo_reversed']","['m', 'f', 'm']","['p307', 'p284', 'p229']","[4, 10, 0]","[89.31368318402099, 93.00003341222717, 84.40078082039426]",4.0,False,6.666666666666667,5.033222956847167,0.9999268054962158,0.9480422199523324
0,,sub_116,2024-07-18 15:55:09,3,distance,cathedral,numerosity_judgement,3,71,6,countries_reversed,"['_Syria_reversed', '_Belgium_reversed', '_Yemen_reversed', '_Oman_reversed', '_Cuba_reversed', '_Togo_reversed']","['f', 'm', 'm', 'm', 'f', 'm']","['p245', 'p318', 'p256', 'p229', 'p268', 'p307']","[3, 2, 5, 10, 8, 7]","[89.14911522239515, 87.57049330475357, 90.34149293193902, 93.00003341222717, 92.0152836843556, 91.73820004985969]",4.0,False,7.833333333333333,3.0605010483034745,1.0661771297454834,0.6929519918283963
0,,sub_116,2024-07-18 15:55:11,3,distance,cathedral,numerosity_judgement,3,72,4,countries_reversed,"['_Japan_reversed', '_Congo_reversed', '_Peru_reversed', '_Belgium_reversed']","['m', 'f', 'm', 'm']","['p307', 'p245', 'p229', 'p256']","[3, 6, 0, 9]","[89.14911522239515, 91.58892582949886, 84.40078082039426, 92.00610777531934]",4.0,True,6.5,3.872983346207417,1.2499332427978516,0.8081716036772216
0,,sub_116,2024-07-18 15:55:13,3,distance,cathedral,numerosity_judgement,3,73,5,countries_reversed,"['_Cuba_reversed', '_Togo_reversed', '_Britain_reversed', '_Peru_reversed', '_Japan_reversed']","['f', 'm', 'f', 'm', 'f']","['p248', 'p229', 'p268', 'p256', 'p284']","[7, 10, 9, 1, 4]","[91.73820004985969, 93.00003341222717, 92.00610777531934, 86.2038576498559, 89.31368318402099]",5.0,True,8.2,3.7013511046643495,1.1293087005615234,0.8891499262285779
0,,sub_116,2024-07-18 15:55:16,3,distance,cathedral,numerosity_judgement,3,74,2,countries_reversed,"['_Oman_reversed', '_Yemen_reversed']","['f', 'f']","['p284', 'p245']","[2, 7]","[87.57049330475357, 91.73820004985969]",5.0,False,6.5,3.5355339059327378,0.9999666213989258,0.6570423334468278
0,,sub_116,2024-07-18 15:57:08,3,distance,cathedral,numerosity_judgement,4,0,2,countries_reversed,"['_Peru_reversed', '_Syria_reversed']","['f', 'f']","['p268', 'p284']","[8, 7]","[92.0152836843556, 91.73820004985969]",4.0,False,9.5,0.7071067811865476,1.8915786743164062,0.8679151061173533
0,,sub_116,2024-07-18 15:57:10,3,distance,cathedral,numerosity_judgement,4,1,6,countries_reversed,"['_Yemen_reversed', '_Peru_reversed', '_Cuba_reversed', '_Mali_reversed', '_Syria_reversed', '_Japan_reversed']","['f', 'f', 'm', 'm', 'm', 'f']","['p248', 'p245', 'p256', 'p307', 'p229', 'p268']","[3, 9, 4, 10, 0, 7]","[89.14911522239515, 92.00610777531934, 89.31368318402099, 93.00003341222717, 84.40078082039426, 91.73820004985969]",4.0,False,7.5,3.8340579025361627,1.4374234676361084,0.7895358075133356
0,,sub_116,2024-07-18 15:57:13,3,distance,cathedral,numerosity_judgement,4,2,3,countries_reversed,"['_Oman_reversed', '_Cuba_reversed', '_Yemen_reversed']","['m', 'm', 'f']","['p256', 'p307', 'p248']","[10, 7, 4]","[93.00003341222717, 91.73820004985969, 89.31368318402099]",3.0,True,9.0,3.0,1.64058256149292,0.6046419248666439
0,,sub_116,2024-07-18 15:57:16,3,distance,cathedral,numerosity_judgement,4,3,5,countries_reversed,"['_Yemen_reversed', '_Oman_reversed', '_Syria_reversed', '_Japan_reversed', '_Peru_reversed']","['m', 'f', 'f', 'm', 'm']","['p307', 'p268', 'p284', 'p229', 'p256']","[0, 10, 8, 9, 4]","[84.40078082039426, 93.00003341222717, 92.0152836843556, 92.00610777531934, 89.31368318402099]",4.0,False,8.2,4.147288270665544,1.4374032020568848,0.94468278288503
0,,sub_116,2024-07-18 15:57:19,3,distance,cathedral,numerosity_judgement,4,4,4,countries_reversed,"['_Oman_reversed', '_Yemen_reversed', '_Britain_reversed', '_Mali_reversed']","['m', 'm', 'm', 'm']","['p229', 'p318', 'p307', 'p256']","[5, 7, 9, 6]","[90.34149293193902, 91.73820004985969, 92.00610777531934, 91.58892582949886]",4.0,True,8.75,1.707825127659933,1.434664011001587,0.6135966405629327
0,,sub_116,2024-07-18 15:57:21,3,distance,cathedral,numerosity_judgement,4,5,6,countries_reversed,"['_Togo_reversed', '_Peru_reversed', '_Oman_reversed', '_Belgium_reversed', '_Cuba_reversed', '_Mali_reversed']","['f', 'm', 'm', 'f', 'f', 'm']","['p284', 'p307', 'p229', 'p245', 'p248', 'p256']","[4, 8, 3, 2, 9, 7]","[89.31368318402099, 92.0152836843556, 89.14911522239515, 87.57049330475357, 92.00610777531934, 91.73820004985969]",4.0,False,7.5,2.8809720581775866,1.4999418258666992,0.8113948473499035
0,,sub_116,2024-07-18 15:57:24,3,distance,cathedral,numerosity_judgement,4,6,3,countries_reversed,"['_Britain_reversed', '_Mali_reversed', '_Oman_reversed']","['f', 'm', 'm']","['p248', 'p256', 'p318']","[2, 4, 3]","[87.57049330475357, 89.31368318402099, 89.14911522239515]",2.0,False,5.0,1.0,1.4408342838287354,0.7930881852230167
0,,sub_116,2024-07-18 15:57:27,3,distance,cathedral,numerosity_judgement,4,7,4,countries_reversed,"['_Syria_reversed', '_Togo_reversed', '_Mali_reversed', '_Peru_reversed']","['f', 'm', 'm', 'm']","['p248', 'p229', 'p307', 'p318']","[10, 6, 4, 7]","[93.00003341222717, 91.58892582949886, 89.31368318402099, 91.73820004985969]",3.0,False,8.75,2.5,1.4999217987060547,0.7527408920667348
0,,sub_116,2024-07-18 15:57:30,3,distance,cathedral,numerosity_judgement,4,8,2,countries_reversed,"['_Britain_reversed', '_Peru_reversed']","['f', 'm']","['p245', 'p307']","[3, 4]","[89.14911522239515, 89.31368318402099]",2.0,True,5.5,0.7071067811865476,1.6874306201934814,0.7035637271592328
0,,sub_116,2024-07-18 15:57:33,3,distance,cathedral,numerosity_judgement,4,9,5,countries_reversed,"['_Yemen_reversed', '_Syria_reversed', '_Belgium_reversed', '_Togo_reversed', '_Congo_reversed']","['m', 'f', 'm', 'f', 'f']","['p318', 'p248', 'p256', 'p268', 'p284']","[6, 4, 7, 0, 10]","[91.58892582949886, 89.31368318402099, 91.73820004985969, 84.40078082039426, 93.00003341222717]",3.0,False,7.4,3.714835124201342,1.7042207717895508,0.9230393825899444
0,,sub_116,2024-07-18 15:57:35,3,distance,cathedral,numerosity_judgement,4,10,2,countries_reversed,"['_Congo_reversed', '_Cuba_reversed']","['f', 'f']","['p268', 'p245']","[4, 7]","[89.31368318402099, 91.73820004985969]",2.0,True,7.5,2.1213203435596424,1.6249134540557861,0.6048462149585745
0,,sub_116,2024-07-18 15:57:38,3,distance,cathedral,numerosity_judgement,4,11,6,countries_reversed,"['_Mali_reversed', '_Congo_reversed', '_Japan_reversed', '_Oman_reversed', '_Belgium_reversed', '_Togo_reversed']","['f', 'f', 'm', 'm', 'f', 'm']","['p284', 'p245', 'p229', 'p318', 'p248', 'p307']","[8, 4, 2, 3, 10, 7]","[92.0152836843556, 89.31368318402099, 87.57049330475357, 89.14911522239515, 93.00003341222717, 91.73820004985969]",4.0,False,7.666666666666667,3.141125063837266,1.7664673328399658,0.7739643627284076
0,,sub_116,2024-07-18 15:57:41,3,distance,cathedral,numerosity_judgement,4,12,3,countries_reversed,"['_Oman_reversed', '_Belgium_reversed', '_Togo_reversed']","['m', 'f', 'm']","['p318', 'p248', 'p229']","[7, 0, 2]","[91.73820004985969, 84.40078082039426, 87.57049330475357]",4.0,False,5.0,3.605551275463989,1.8124256134033203,0.9458971739870616
0,,sub_116,2024-07-18 15:57:44,3,distance,cathedral,numerosity_judgement,4,13,5,countries_reversed,"['_Yemen_reversed', '_Togo_reversed', '_Peru_reversed', '_Oman_reversed', '_Britain_reversed']","['f', 'f', 'f', 'm', 'm']","['p284', 'p268', 'p245', 'p307', 'p256']","[7, 8, 1, 5, 2]","[91.73820004985969, 92.0152836843556, 86.2038576498559, 90.34149293193902, 87.57049330475357]",3.0,False,6.6,3.0495901363953815,1.5652759075164795,0.7349336057201226
0,,sub_116,2024-07-18 15:57:47,3,distance,cathedral,numerosity_judgement,4,14,4,countries_reversed,"['_Britain_reversed', '_Oman_reversed', '_Yemen_reversed', '_Congo_reversed']","['f', 'f', 'f', 'm']","['p284', 'p245', 'p268', 'p307']","[1, 10, 5, 2]","[86.2038576498559, 93.00003341222717, 90.34149293193902, 87.57049330475357]",4.0,True,6.5,4.041451884327381,1.5672476291656494,0.6935194643059812
0,,sub_116,2024-07-18 15:57:50,3,distance,cathedral,numerosity_judgement,4,15,2,countries_reversed,"['_Oman_reversed', '_Togo_reversed']","['m', 'm']","['p307', 'p318']","[7, 9]","[91.73820004985969, 92.00610777531934]",3.0,False,10.0,1.4142135623730951,1.6249136924743652,0.6919759391669504
0,,sub_116,2024-07-18 15:57:53,3,distance,cathedral,numerosity_judgement,4,16,4,countries_reversed,"['_Tonga_reversed', '_Britain_reversed', '_Peru_reversed', '_Belgium_reversed']","['f', 'f', 'm', 'm']","['p284', 'p248', 'p229', 'p318']","[2, 5, 4, 0]","[87.57049330475357, 90.34149293193902, 89.31368318402099, 84.40078082039426]",3.0,False,4.75,2.217355782608345,1.6406328678131104,0.9319033026898196
0,,sub_116,2024-07-18 15:57:56,3,distance,cathedral,numerosity_judgement,4,17,6,countries_reversed,"['_Oman_reversed', '_Belgium_reversed', '_Togo_reversed', '_Peru_reversed', '_Sudan_reversed', '_Mali_reversed']","['m', 'f', 'f', 'f', 'f', 'm']","['p318', 'p284', 'p268', 'p248', 'p245', 'p307']","[3, 9, 0, 1, 5, 4]","[89.14911522239515, 92.00610777531934, 84.40078082039426, 86.2038576498559, 90.34149293193902, 89.31368318402099]",3.0,False,5.666666666666667,3.2041639575194445,1.812403678894043,0.9173079105663376
0,,sub_116,2024-07-18 15:57:58,3,distance,cathedral,numerosity_judgement,4,18,3,countries_reversed,"['_Oman_reversed', '_Peru_reversed', '_Congo_reversed']","['m', 'f', 'f']","['p307', 'p268', 'p284']","[5, 6, 3]","[90.34149293193902, 91.58892582949886, 89.14911522239515]",2.0,False,6.666666666666667,1.5275252316519465,1.4365317821502686,0.6465781409601634
0,,sub_116,2024-07-18 15:58:01,3,distance,cathedral,numerosity_judgement,4,19,5,countries_reversed,"['_Yemen_reversed', '_Togo_reversed', '_Cuba_reversed', '_Oman_reversed', '_Tonga_reversed']","['m', 'f', 'f', 'm', 'f']","['p256', 'p268', 'p284', 'p307', 'p248']","[3, 2, 8, 1, 7]","[89.14911522239515, 87.57049330475357, 92.0152836843556, 86.2038576498559, 91.73820004985969]",4.0,False,6.2,3.1144823004794877,1.4999399185180664,0.8060038588128475
0,,sub_116,2024-07-18 15:58:04,3,distance,cathedral,numerosity_judgement,4,20,4,countries_reversed,"['_Britain_reversed', '_Japan_reversed', '_Yemen_reversed', '_Tonga_reversed']","['m', 'f', 'f', 'f']","['p307', 'p284', 'p248', 'p245']","[4, 0, 3, 8]","[89.31368318402099, 84.40078082039426, 89.14911522239515, 92.0152836843556]",4.0,True,5.75,3.304037933599835,1.3809151649475098,0.7983089320167972
0,,sub_116,2024-07-18 15:58:06,3,distance,cathedral,numerosity_judgement,4,21,5,countries_reversed,"['_Togo_reversed', '_Tonga_reversed', '_Syria_reversed', '_Yemen_reversed', '_Peru_reversed']","['m', 'f', 'm', 'm', 'f']","['p307', 'p245', 'p256', 'p318', 'p284']","[5, 3, 8, 2, 7]","[90.34149293193902, 89.14911522239515, 92.0152836843556, 87.57049330475357, 91.73820004985969]",3.0,False,7.0,2.5495097567963922,1.3749237060546875,0.675485188968335
0,,sub_116,2024-07-18 15:58:09,3,distance,cathedral,numerosity_judgement,4,22,2,countries_reversed,"['_Belgium_reversed', '_Congo_reversed']","['f', 'm']","['p245', 'p256']","[5, 7]","[90.34149293193902, 91.73820004985969]",4.0,False,8.0,1.4142135623730951,1.4286549091339111,0.7597208035410282
0,,sub_116,2024-07-18 15:59:35,3,distance,cathedral,numerosity_judgement,4,23,6,countries_reversed,"['_Yemen_reversed', '_Sudan_reversed', '_Togo_reversed', '_Mali_reversed', '_Peru_reversed', '_Congo_reversed']","['f', 'm', 'm', 'f', 'f', 'f']","['p248', 'p307', 'p256', 'p245', 'p284', 'p268']","[8, 6, 10, 7, 9, 0]","[92.0152836843556, 91.58892582949886, 93.00003341222717, 91.73820004985969, 92.00610777531934, 84.40078082039426]",4.0,False,8.666666666666666,3.559026084010437,85.09843564033508,0.7549313358302122
0,,sub_116,2024-07-18 15:59:39,3,distance,cathedral,numerosity_judgement,4,24,3,countries_reversed,"['_Syria_reversed', '_Tonga_reversed', '_Japan_reversed']","['m', 'm', 'm']","['p307', 'p229', 'p318']","[4, 3, 7]","[89.31368318402099, 89.14911522239515, 91.73820004985969]",5.0,False,6.666666666666667,2.0816659994661326,2.5778586864471436,0.7853478606287595
0,,sub_116,2024-07-18 15:59:42,3,distance,cathedral,numerosity_judgement,4,25,4,countries_reversed,"['_Oman_reversed', '_Yemen_reversed', '_Sudan_reversed', '_Togo_reversed']","['m', 'f', 'm', 'f']","['p229', 'p248', 'p318', 'p268']","[9, 10, 7, 8]","[92.00610777531934, 93.00003341222717, 91.73820004985969, 92.0152836843556]",6.0,False,10.5,1.2909944487358056,1.6253559589385986,0.7789808194302577
0,,sub_116,2024-07-18 15:59:45,3,distance,cathedral,numerosity_judgement,4,26,6,countries_reversed,"['_Togo_reversed', '_Britain_reversed', '_Tonga_reversed', '_Oman_reversed', '_Mali_reversed', '_Cuba_reversed']","['m', 'm', 'f', 'f', 'm', 'm']","['p318', 'p229', 'p284', 'p268', 'p256', 'p307']","[5, 3, 1, 6, 4, 7]","[90.34149293193902, 89.14911522239515, 86.2038576498559, 91.58892582949886, 89.31368318402099, 91.73820004985969]",6.0,True,6.333333333333333,2.160246899469287,1.312450647354126,0.7108387243218703
0,,sub_116,2024-07-18 15:59:47,3,distance,cathedral,numerosity_judgement,4,27,3,countries_reversed,"['_Tonga_reversed', '_Cuba_reversed', '_Syria_reversed']","['m', 'f', 'm']","['p307', 'p245', 'p229']","[10, 1, 8]","[93.00003341222717, 86.2038576498559, 92.0152836843556]",4.0,False,8.333333333333334,4.725815626252608,1.3779799938201904,0.8891726251276814
0,,sub_116,2024-07-18 15:59:50,3,distance,cathedral,numerosity_judgement,4,28,2,countries_reversed,"['_Cuba_reversed', '_Belgium_reversed']","['f', 'm']","['p284', 'p318']","[0, 5]","[84.40078082039426, 90.34149293193902]",2.0,True,4.5,3.5355339059327378,1.1874172687530518,0.9260696856202474
0,,sub_116,2024-07-18 15:59:52,3,distance,cathedral,numerosity_judgement,4,29,5,countries_reversed,"['_Oman_reversed', '_Yemen_reversed', '_Belgium_reversed', '_Togo_reversed', '_Mali_reversed']","['f', 'f', 'm', 'f', 'f']","['p268', 'p248', 'p256', 'p284', 'p245']","[3, 8, 2, 0, 4]","[89.14911522239515, 92.0152836843556, 87.57049330475357, 84.40078082039426, 89.31368318402099]",4.0,False,5.4,2.9664793948382653,1.1863226890563965,0.7918056974236749
0,,sub_116,2024-07-18 15:59:55,3,distance,cathedral,numerosity_judgement,4,30,3,countries_reversed,"['_Tonga_reversed', '_Congo_reversed', '_Yemen_reversed']","['m', 'm', 'f']","['p307', 'p229', 'p248']","[10, 0, 3]","[93.00003341222717, 84.40078082039426, 89.14911522239515]",5.0,False,6.333333333333333,5.131601439446884,1.249934434890747,0.7289070480081716
0,,sub_116,2024-07-18 15:59:57,3,distance,cathedral,numerosity_judgement,4,31,4,countries_reversed,"['_Peru_reversed', '_Britain_reversed', '_Yemen_reversed', '_Congo_reversed']","['m', 'f', 'f', 'm']","['p307', 'p245', 'p268', 'p256']","[6, 0, 4, 3]","[91.58892582949886, 84.40078082039426, 89.31368318402099, 89.14911522239515]",4.0,True,5.25,2.5,1.2517032623291016,0.6504256043581886
0,,sub_116,2024-07-18 15:59:59,3,distance,cathedral,numerosity_judgement,4,32,5,countries_reversed,"['_Congo_reversed', '_Yemen_reversed', '_Cuba_reversed', '_Tonga_reversed', '_Togo_reversed']","['m', 'm', 'f', 'f', 'm']","['p318', 'p307', 'p248', 'p245', 'p256']","[2, 7, 10, 8, 1]","[87.57049330475357, 91.73820004985969, 93.00003341222717, 92.0152836843556, 86.2038576498559]",4.0,False,7.6,3.9115214431215892,1.1249184608459473,0.7257632504823516
0,,sub_116,2024-07-18 16:00:02,3,distance,cathedral,numerosity_judgement,4,33,6,countries_reversed,"['_Belgium_reversed', '_Yemen_reversed', '_Britain_reversed', '_Togo_reversed', '_Oman_reversed', '_Japan_reversed']","['m', 'f', 'f', 'm', 'm', 'f']","['p229', 'p268', 'p245', 'p318', 'p307', 'p248']","[5, 10, 6, 4, 2, 7]","[90.34149293193902, 93.00003341222717, 91.58892582949886, 89.31368318402099, 87.57049330475357, 91.73820004985969]",3.0,False,7.666666666666667,2.7325202042558927,1.1249618530273438,0.8332992849846782
0,,sub_116,2024-07-18 16:00:04,3,distance,cathedral,numerosity_judgement,4,34,2,countries_reversed,"['_Japan_reversed', '_Belgium_reversed']","['f', 'f']","['p284', 'p245']","[7, 1]","[91.73820004985969, 86.2038576498559]",2.0,True,6.0,4.242640687119285,1.2499332427978516,0.9212121212121211
