,event_id,timestamp,subject_id,session_index,plane,setup,task,block,trial_index,stim_type,headpose_offset_azi,headpose_offset_ele,stim_filename,stim_level,mgb_level,fluctuation,speaker_id,speaker_proc,speaker_chan,stim_azi,stim_ele,stim_dist,resp_azi,resp_ele,resp_dist,reaction_time
0,,2024-07-30 15:10:31,sub_115,3,distance,cathedral,localisation_accuracy,1,0,pinknoise,,,pinknoise_3.wav,92.03620826701854,30,0.41453502621707805,7,RX81,8,0.0,0.0,9.0,0,0,9.700879765395895,5.231187582015991
0,,2024-07-30 15:10:36,sub_115,3,distance,cathedral,localisation_accuracy,1,1,pinknoise,,,pinknoise_6.wav,90.00841541883008,30,-0.4724474529224938,5,RX81,6,0.0,0.0,7.0,0,0,7.941348973607038,4.000570297241211
0,,2024-07-30 15:10:42,sub_115,3,distance,cathedral,localisation_accuracy,1,2,pinknoise,,,pinknoise_5.wav,91.75628003167795,30,-0.3491667481780518,9,RX81,10,0.0,0.0,11.0,0,0,11.035190615835777,4.6090922355651855
0,,2024-07-30 15:10:47,sub_115,3,distance,cathedral,localisation_accuracy,1,3,pinknoise,,,pinknoise_1.wav,87.66269911617657,30,0.13379889648335253,2,RX81,3,0.0,0.0,4.0,0,0,6.2404692082111435,4.2662482261657715
0,,2024-07-30 15:10:53,sub_115,3,distance,cathedral,localisation_accuracy,1,4,pinknoise,,,pinknoise_9.wav,93.22765937709532,30,0.32172066386210874,10,RX81,11,0.0,0.0,12.0,0,0,11.284457478005866,4.905791521072388
0,,2024-07-30 15:10:59,sub_115,3,distance,cathedral,localisation_accuracy,1,5,pinknoise,,,pinknoise_2.wav,91.59862657547296,30,0.013830170611072945,6,RX81,7,0.0,0.0,8.0,0,0,9.53958944281525,4.659127235412598
0,,2024-07-30 15:11:04,sub_115,3,distance,cathedral,localisation_accuracy,1,6,pinknoise,,,pinknoise_1.wav,86.24622663765784,30,0.06205778940683926,1,RX81,2,0.0,0.0,3.0,0,0,3.93841642228739,3.5309364795684814
0,,2024-07-30 15:11:08,sub_115,3,distance,cathedral,localisation_accuracy,1,7,pinknoise,,,pinknoise_7.wav,84.4483408983018,30,0.07078299459205195,0,RX81,1,0.0,0.0,2.0,0,0,3.1466275659824046,2.7653656005859375
0,,2024-07-30 15:11:12,sub_115,3,distance,cathedral,localisation_accuracy,1,8,pinknoise,,,pinknoise_9.wav,91.9360186959652,30,-0.11175614472216222,8,RX81,9,0.0,0.0,10.0,0,0,9.55425219941349,2.9514079093933105
0,,2024-07-30 15:11:18,sub_115,3,distance,cathedral,localisation_accuracy,1,9,pinknoise,,,pinknoise_8.wav,89.30281864229954,30,-0.014503774461186558,4,RX81,5,0.0,0.0,6.0,0,0,8.014662756598241,4.656816005706787
0,,2024-07-30 15:11:22,sub_115,3,distance,cathedral,localisation_accuracy,1,10,pinknoise,,,pinknoise_2.wav,88.893734154869,30,-0.36156249855183287,3,RX81,4,0.0,0.0,5.0,0,0,6.2404692082111435,3.577726125717163
0,,2024-07-30 15:11:28,sub_115,3,distance,cathedral,localisation_accuracy,1,11,pinknoise,,,pinknoise_5.wav,91.66437616030427,30,-0.10181424485223933,7,RX81,8,0.0,0.0,9.0,0,0,11.489736070381232,4.750632286071777
0,,2024-07-30 15:11:35,sub_115,3,distance,cathedral,localisation_accuracy,1,12,pinknoise,,,pinknoise_7.wav,90.20890251121307,30,-0.18896931140270823,5,RX81,6,0.0,0.0,7.0,0,0,9.363636363636365,5.3393874168396
0,,2024-07-30 15:11:39,sub_115,3,distance,cathedral,localisation_accuracy,1,13,pinknoise,,,pinknoise_7.wav,92.2710318472832,30,0.37475886188507135,9,RX81,10,0.0,0.0,11.0,0,0,11.489736070381232,3.4706218242645264
0,,2024-07-30 15:11:44,sub_115,3,distance,cathedral,localisation_accuracy,1,14,pinknoise,,,pinknoise_8.wav,89.04131345273652,30,-0.15315808413808352,3,RX81,4,0.0,0.0,5.0,0,0,7.105571847507331,3.2965776920318604
0,,2024-07-30 15:11:49,sub_115,3,distance,cathedral,localisation_accuracy,1,15,pinknoise,,,pinknoise_7.wav,85.936025411242,30,-0.3893397692647165,1,RX81,2,0.0,0.0,3.0,0,0,4.700879765395895,4.199560165405273
0,,2024-07-30 15:11:55,sub_115,3,distance,cathedral,localisation_accuracy,1,16,pinknoise,,,pinknoise_1.wav,84.15988278255332,30,-0.355974049817287,0,RX81,1,0.0,0.0,2.0,0,0,2.457478005865103,4.2700676918029785
0,,2024-07-30 15:12:00,sub_115,3,distance,cathedral,localisation_accuracy,1,17,pinknoise,,,pinknoise_5.wav,87.57847786746653,30,0.011562783148163946,2,RX81,3,0.0,0.0,4.0,0,0,10.668621700879767,4.086937665939331
0,,2024-07-30 15:12:05,sub_115,3,distance,cathedral,localisation_accuracy,1,18,pinknoise,,,pinknoise_0.wav,91.81935041125769,30,-0.2754905093364993,8,RX81,9,0.0,0.0,10.0,0,0,11.504398826979473,4.172353267669678
0,,2024-07-30 15:12:10,sub_115,3,distance,cathedral,localisation_accuracy,1,19,pinknoise,,,pinknoise_4.wav,93.05904847575883,30,0.08308112162599568,10,RX81,11,0.0,0.0,12.0,0,0,12.325513196480939,3.937337875366211
0,,2024-07-30 15:12:16,sub_115,3,distance,cathedral,localisation_accuracy,1,20,pinknoise,,,pinknoise_0.wav,91.48196981867352,30,-0.15206333542820272,6,RX81,7,0.0,0.0,8.0,0,0,11.196480938416423,4.611200332641602
0,,2024-07-30 15:12:20,sub_115,3,distance,cathedral,localisation_accuracy,1,21,pinknoise,,,pinknoise_2.wav,89.0703932180281,30,-0.3231093452052879,4,RX81,5,0.0,0.0,6.0,0,0,9.304985337243403,2.98415470123291
0,,2024-07-30 15:12:25,sub_115,3,distance,cathedral,localisation_accuracy,1,22,pinknoise,,,pinknoise_2.wav,90.67297790419082,30,0.4776934899303189,5,RX81,6,0.0,0.0,7.0,0,0,10.609970674486805,3.2185661792755127
0,,2024-07-30 15:12:29,sub_115,3,distance,cathedral,localisation_accuracy,1,23,pinknoise,,,pinknoise_7.wav,91.85511208818994,30,0.3818186176897066,6,RX81,7,0.0,0.0,8.0,0,0,11.70967741935484,3.4754436016082764
0,,2024-07-30 15:12:34,sub_115,3,distance,cathedral,localisation_accuracy,1,24,pinknoise,,,pinknoise_0.wav,92.07962467982767,30,0.1035302882125525,9,RX81,10,0.0,0.0,11.0,0,0,12.413489736070382,3.2534356117248535
0,,2024-07-30 15:12:39,sub_115,3,distance,cathedral,localisation_accuracy,1,25,pinknoise,,,pinknoise_8.wav,89.4463363737441,30,0.17765403138855262,4,RX81,5,0.0,0.0,6.0,0,0,10.668621700879767,3.7667973041534424
0,,2024-07-30 15:12:43,sub_115,3,distance,cathedral,localisation_accuracy,1,26,pinknoise,,,pinknoise_6.wav,91.5996261975329,30,-0.19082969920370285,7,RX81,8,0.0,0.0,9.0,0,0,11.40175953079179,3.2185287475585938
0,,2024-07-30 15:12:49,sub_115,3,distance,cathedral,localisation_accuracy,1,27,pinknoise,,,pinknoise_4.wav,87.74030228927464,30,0.24687041062848247,2,RX81,3,0.0,0.0,4.0,0,0,7.398826979472142,4.648327112197876
0,,2024-07-30 15:12:54,sub_115,3,distance,cathedral,localisation_accuracy,1,28,pinknoise,,,pinknoise_1.wav,84.09124410989548,30,-0.4566257244776589,0,RX81,1,0.0,0.0,2.0,0,0,4.260997067448681,4.289193153381348
0,,2024-07-30 15:12:59,sub_115,3,distance,cathedral,localisation_accuracy,1,29,pinknoise,,,pinknoise_3.wav,92.0588800469385,30,0.0616447735369543,8,RX81,9,0.0,0.0,10.0,0,0,10.80058651026393,3.339850425720215
0,,2024-07-30 15:13:04,sub_115,3,distance,cathedral,localisation_accuracy,1,30,pinknoise,,,pinknoise_1.wav,85.918783168114,30,-0.4142304866028427,1,RX81,2,0.0,0.0,3.0,0,0,5.17008797653959,4.207633018493652
0,,2024-07-30 15:13:10,sub_115,3,distance,cathedral,localisation_accuracy,1,31,pinknoise,,,pinknoise_8.wav,92.68493506796788,30,-0.43972632688033275,10,RX81,11,0.0,0.0,12.0,0,0,12.076246334310852,4.655740737915039
0,,2024-07-30 15:13:15,sub_115,3,distance,cathedral,localisation_accuracy,1,32,pinknoise,,,pinknoise_3.wav,89.34003215623417,30,0.27317395102843245,3,RX81,4,0.0,0.0,5.0,0,0,9.173020527859238,3.386293888092041
0,,2024-07-30 15:13:19,sub_115,3,distance,cathedral,localisation_accuracy,1,33,pinknoise,,,pinknoise_8.wav,93.22872218138662,30,0.3232308674778166,10,RX81,11,0.0,0.0,12.0,0,0,12.296187683284458,3.5506460666656494
0,,2024-07-30 15:13:26,sub_115,3,distance,cathedral,localisation_accuracy,1,34,pinknoise,,,pinknoise_8.wav,86.2196374717381,30,0.023097694863347118,1,RX81,2,0.0,0.0,3.0,0,0,5.536656891495602,5.140364646911621
0,,2024-07-30 15:13:34,sub_115,3,distance,cathedral,localisation_accuracy,1,35,pinknoise,,,pinknoise_6.wav,90.17180463350283,30,-0.24162817550086646,5,RX81,6,0.0,0.0,7.0,0,0,11.41642228739003,6.656687259674072
0,,2024-07-30 15:13:37,sub_115,3,distance,cathedral,localisation_accuracy,1,36,pinknoise,,,pinknoise_6.wav,91.666202508737,30,-0.4890602865298471,8,RX81,9,0.0,0.0,10.0,0,0,12.149560117302054,2.5052621364593506
0,,2024-07-30 15:13:42,sub_115,3,distance,cathedral,localisation_accuracy,1,37,pinknoise,,,pinknoise_9.wav,91.90858557240034,30,-0.13678656113229226,9,RX81,10,0.0,0.0,11.0,0,0,12.442815249266863,3.65682053565979
0,,2024-07-30 15:13:47,sub_115,3,distance,cathedral,localisation_accuracy,1,38,pinknoise,,,pinknoise_7.wav,84.36972272507526,30,-0.04613337347586022,0,RX81,1,0.0,0.0,2.0,0,0,2.8240469208211145,4.0308756828308105
0,,2024-07-30 15:13:56,sub_115,3,distance,cathedral,localisation_accuracy,1,39,pinknoise,,,pinknoise_2.wav,91.52756133687647,30,-0.28958976845645024,7,RX81,8,0.0,0.0,9.0,0,0,11.885630498533725,7.422348976135254
0,,2024-07-30 15:14:00,sub_115,3,distance,cathedral,localisation_accuracy,1,40,pinknoise,,,pinknoise_9.wav,89.35493594294576,30,0.05513487595139399,4,RX81,5,0.0,0.0,6.0,0,0,9.715542521994136,3.125821352005005
0,,2024-07-30 15:14:05,sub_115,3,distance,cathedral,localisation_accuracy,1,41,pinknoise,,,pinknoise_4.wav,91.36160710021407,30,-0.32226592770766294,6,RX81,7,0.0,0.0,8.0,0,0,11.489736070381232,3.6404097080230713
0,,2024-07-30 15:14:11,sub_115,3,distance,cathedral,localisation_accuracy,1,42,pinknoise,,,pinknoise_8.wav,87.39773605858522,30,-0.24908902978933112,2,RX81,3,0.0,0.0,4.0,0,0,7.736070381231672,4.297624826431274
0,,2024-07-30 15:14:14,sub_115,3,distance,cathedral,localisation_accuracy,1,43,pinknoise,,,pinknoise_0.wav,88.92060357701618,30,-0.3237274387551242,3,RX81,4,0.0,0.0,5.0,0,0,9.715542521994136,2.343574047088623
0,,2024-07-30 15:14:17,sub_115,3,distance,cathedral,localisation_accuracy,1,44,pinknoise,,,pinknoise_7.wav,90.29724247235131,30,-0.06319903901423995,5,RX81,6,0.0,0.0,7.0,0,0,8.219941348973608,2.109225273132324
0,,2024-07-30 15:14:22,sub_115,3,distance,cathedral,localisation_accuracy,1,45,pinknoise,,,pinknoise_3.wav,91.66080900545171,30,-0.4965536668534858,8,RX81,9,0.0,0.0,10.0,0,0,11.856304985337244,3.5477614402770996
0,,2024-07-30 15:14:28,sub_115,3,distance,cathedral,localisation_accuracy,1,46,pinknoise,,,pinknoise_8.wav,86.18385184630716,30,-0.02925792671211891,1,RX81,2,0.0,0.0,3.0,0,0,4.55425219941349,5.20383882522583
0,,2024-07-30 15:14:34,sub_115,3,distance,cathedral,localisation_accuracy,1,47,pinknoise,,,pinknoise_9.wav,92.96404967285896,30,-0.05054509084283554,10,RX81,11,0.0,0.0,12.0,0,0,12.017595307917889,4.751818895339966
0,,2024-07-30 15:14:38,sub_115,3,distance,cathedral,localisation_accuracy,1,48,pinknoise,,,pinknoise_6.wav,91.45174136480341,30,-0.3931427687985257,7,RX81,8,0.0,0.0,9.0,0,0,10.536656891495602,2.8904223442077637
0,,2024-07-30 15:14:44,sub_115,3,distance,cathedral,localisation_accuracy,1,49,pinknoise,,,pinknoise_9.wav,89.14114544337653,30,-0.011349823541142223,3,RX81,4,0.0,0.0,5.0,0,0,8.733137829912025,4.668485879898071
0,,2024-07-30 15:14:52,sub_115,3,distance,cathedral,localisation_accuracy,1,50,pinknoise,,,pinknoise_1.wav,84.64169888582146,30,0.360278818501238,0,RX81,1,0.0,0.0,2.0,0,0,4.129032258064517,6.7974889278411865
0,,2024-07-30 15:14:57,sub_115,3,distance,cathedral,localisation_accuracy,1,51,pinknoise,,,pinknoise_2.wav,92.2319832705318,30,0.31922838342048065,9,RX81,10,0.0,0.0,11.0,0,0,12.06158357771261,3.359984874725342
0,,2024-07-30 15:15:01,sub_115,3,distance,cathedral,localisation_accuracy,1,52,pinknoise,,,pinknoise_3.wav,87.86752652340739,30,0.4331608598733402,2,RX81,3,0.0,0.0,4.0,0,0,6.812316715542522,3.4997003078460693
0,,2024-07-30 15:15:06,sub_115,3,distance,cathedral,localisation_accuracy,1,53,pinknoise,,,pinknoise_6.wav,89.54616852278957,30,0.31204637185253903,4,RX81,5,0.0,0.0,6.0,0,0,10.624633431085044,2.8747758865356445
0,,2024-07-30 15:15:09,sub_115,3,distance,cathedral,localisation_accuracy,1,54,pinknoise,,,pinknoise_9.wav,91.84063591616581,30,0.3609295420249401,6,RX81,7,0.0,0.0,8.0,0,0,11.944281524926687,2.234219789505005
0,,2024-07-30 15:17:06,sub_115,3,distance,cathedral,localisation_accuracy,2,0,pinknoise,,,pinknoise_7.wav,87.30949336768391,30,-0.3755221531418016,2,RX81,3,0.0,0.0,4.0,0,0,10.653958944281525,3.625431776046753
0,,2024-07-30 15:17:10,sub_115,3,distance,cathedral,localisation_accuracy,2,1,pinknoise,,,pinknoise_8.wav,91.526448247221,30,-0.08892054360162838,6,RX81,7,0.0,0.0,8.0,0,0,12.03225806451613,2.236175775527954
0,,2024-07-30 15:17:15,sub_115,3,distance,cathedral,localisation_accuracy,2,2,pinknoise,,,pinknoise_2.wav,84.72236125035133,30,0.48186891129376486,0,RX81,1,0.0,0.0,2.0,0,0,3.0879765395894427,4.591608047485352
0,,2024-07-30 15:17:21,sub_115,3,distance,cathedral,localisation_accuracy,2,3,pinknoise,,,pinknoise_0.wav,90.46867129417953,30,0.1823814052626399,5,RX81,6,0.0,0.0,7.0,0,0,10.82991202346041,3.922698974609375
0,,2024-07-30 15:17:24,sub_115,3,distance,cathedral,localisation_accuracy,2,4,pinknoise,,,pinknoise_6.wav,91.81030295241307,30,-0.27400870663044885,9,RX81,10,0.0,0.0,11.0,0,0,12.428152492668623,2.2185473442077637
0,,2024-07-30 15:17:29,sub_115,3,distance,cathedral,localisation_accuracy,2,5,pinknoise,,,pinknoise_9.wav,93.25137294828765,30,0.35543461728529246,10,RX81,11,0.0,0.0,12.0,0,0,12.604105571847509,3.644591808319092
0,,2024-07-30 15:17:34,sub_115,3,distance,cathedral,localisation_accuracy,2,6,pinknoise,,,pinknoise_4.wav,88.81553012401211,30,-0.4714079683744641,3,RX81,4,0.0,0.0,5.0,0,0,4.671554252199414,4.0353288650512695
0,,2024-07-30 15:17:39,sub_115,3,distance,cathedral,localisation_accuracy,2,7,pinknoise,,,pinknoise_9.wav,91.70984459482776,30,-0.039147382592824354,7,RX81,8,0.0,0.0,9.0,0,0,10.316715542521996,4.322604417800903
0,,2024-07-30 15:17:43,sub_115,3,distance,cathedral,localisation_accuracy,2,8,pinknoise,,,pinknoise_6.wav,91.95974167204102,30,-0.0783527139168001,8,RX81,9,0.0,0.0,10.0,0,0,11.41642228739003,2.359145402908325
0,,2024-07-30 15:17:48,sub_115,3,distance,cathedral,localisation_accuracy,2,9,pinknoise,,,pinknoise_8.wav,86.28194584257173,30,0.11447537304572553,1,RX81,2,0.0,0.0,3.0,0,0,3.7917888563049855,4.092884063720703
0,,2024-07-30 15:17:52,sub_115,3,distance,cathedral,localisation_accuracy,2,10,pinknoise,,,pinknoise_1.wav,89.0498483813125,30,-0.35023473020976814,4,RX81,5,0.0,0.0,6.0,0,0,8.439882697947215,2.578817844390869
0,,2024-07-30 15:17:58,sub_115,3,distance,cathedral,localisation_accuracy,2,11,pinknoise,,,pinknoise_3.wav,90.66782010707719,30,0.4702027923653125,5,RX81,6,0.0,0.0,7.0,0,0,9.583577712609971,4.437315464019775
0,,2024-07-30 15:18:01,sub_115,3,distance,cathedral,localisation_accuracy,2,12,pinknoise,,,pinknoise_5.wav,88.8717946541319,30,-0.3924199183840673,3,RX81,4,0.0,0.0,5.0,0,0,7.780058651026394,1.9072699546813965
0,,2024-07-30 15:18:05,sub_115,3,distance,cathedral,localisation_accuracy,2,13,pinknoise,,,pinknoise_7.wav,84.18526655825701,30,-0.31866451448378696,0,RX81,1,0.0,0.0,2.0,0,0,2.193548387096774,3.5221107006073
0,,2024-07-30 15:18:10,sub_115,3,distance,cathedral,localisation_accuracy,2,14,pinknoise,,,pinknoise_7.wav,89.20093140566232,30,-0.15017883267893561,4,RX81,5,0.0,0.0,6.0,0,0,8.542521994134898,3.3236184120178223
0,,2024-07-30 15:18:15,sub_115,3,distance,cathedral,localisation_accuracy,2,15,pinknoise,,,pinknoise_9.wav,92.9967137077041,30,-0.00466664165523567,10,RX81,11,0.0,0.0,12.0,0,0,12.325513196480939,3.485366106033325
0,,2024-07-30 15:18:20,sub_115,3,distance,cathedral,localisation_accuracy,2,16,pinknoise,,,pinknoise_1.wav,91.61931105727476,30,0.043340941206604255,6,RX81,7,0.0,0.0,8.0,0,0,11.152492668621703,3.8936421871185303
0,,2024-07-30 15:18:25,sub_115,3,distance,cathedral,localisation_accuracy,2,17,pinknoise,,,pinknoise_4.wav,85.89669788884363,30,-0.4460819975086946,1,RX81,2,0.0,0.0,3.0,0,0,3.7624633431085046,4.293071985244751
0,,2024-07-30 15:18:30,sub_115,3,distance,cathedral,localisation_accuracy,2,18,pinknoise,,,pinknoise_8.wav,91.80584102235412,30,0.09359141706598273,7,RX81,8,0.0,0.0,9.0,0,0,12.413489736070382,3.8556649684906006
0,,2024-07-30 15:18:39,sub_115,3,distance,cathedral,localisation_accuracy,2,19,pinknoise,,,pinknoise_7.wav,91.87055309259492,30,-0.18996246557836982,9,RX81,10,0.0,0.0,11.0,0,0,12.428152492668623,7.57775354385376
0,,2024-07-30 15:18:45,sub_115,3,distance,cathedral,localisation_accuracy,2,20,pinknoise,,,pinknoise_0.wav,87.68953581973066,30,0.1728533569161418,2,RX81,3,0.0,0.0,4.0,0,0,4.86217008797654,4.732888221740723
0,,2024-07-30 15:18:50,sub_115,3,distance,cathedral,localisation_accuracy,2,21,pinknoise,,,pinknoise_8.wav,91.70596265858656,30,-0.43376137704932893,8,RX81,9,0.0,0.0,10.0,0,0,12.589442815249267,4.308974981307983
0,,2024-07-30 15:18:56,sub_115,3,distance,cathedral,localisation_accuracy,2,22,pinknoise,,,pinknoise_9.wav,86.1633552343207,30,-0.0592040543839073,1,RX81,2,0.0,0.0,3.0,0,0,3.703812316715543,4.3587281703948975
0,,2024-07-30 15:19:01,sub_115,3,distance,cathedral,localisation_accuracy,2,23,pinknoise,,,pinknoise_2.wav,84.51005612567911,30,0.1628819207772444,0,RX81,1,0.0,0.0,2.0,0,0,2.3108504398826986,4.000617265701294
0,,2024-07-30 15:19:07,sub_115,3,distance,cathedral,localisation_accuracy,2,24,pinknoise,,,pinknoise_0.wav,91.56912600519743,30,-0.232668177371828,7,RX81,8,0.0,0.0,9.0,0,0,11.357771260997069,5.109030485153198
0,,2024-07-30 15:19:12,sub_115,3,distance,cathedral,localisation_accuracy,2,25,pinknoise,,,pinknoise_8.wav,92.73304590462489,30,-0.37300593771699997,10,RX81,11,0.0,0.0,12.0,0,0,12.34017595307918,3.2661335468292236
0,,2024-07-30 15:19:16,sub_115,3,distance,cathedral,localisation_accuracy,2,26,pinknoise,,,pinknoise_9.wav,92.2470993783672,30,0.32924207426185415,8,RX81,9,0.0,0.0,10.0,0,0,11.973607038123168,2.859086513519287
0,,2024-07-30 15:19:20,sub_115,3,distance,cathedral,localisation_accuracy,2,27,pinknoise,,,pinknoise_4.wav,89.65508810047331,30,0.4593548444752973,4,RX81,5,0.0,0.0,6.0,0,0,10.287390029325515,2.7125508785247803
0,,2024-07-30 15:19:27,sub_115,3,distance,cathedral,localisation_accuracy,2,28,pinknoise,,,pinknoise_5.wav,89.14232913142217,30,-0.009664395852533314,3,RX81,4,0.0,0.0,5.0,0,0,4.891495601173021,6.310967206954956
0,,2024-07-30 15:19:33,sub_115,3,distance,cathedral,localisation_accuracy,2,29,pinknoise,,,pinknoise_8.wav,92.02127351869962,30,0.02132799072207281,9,RX81,10,0.0,0.0,11.0,0,0,11.75366568914956,4.500239849090576
0,,2024-07-30 15:19:39,sub_115,3,distance,cathedral,localisation_accuracy,2,30,pinknoise,,,pinknoise_0.wav,90.36397555051735,30,0.032161042576256516,5,RX81,6,0.0,0.0,7.0,0,0,8.571847507331379,5.3288960456848145
0,,2024-07-30 15:19:44,sub_115,3,distance,cathedral,localisation_accuracy,2,31,pinknoise,,,pinknoise_7.wav,91.4499901839948,30,-0.19738010913166815,6,RX81,7,0.0,0.0,8.0,0,0,11.680351906158359,3.2957231998443604
0,,2024-07-30 15:19:51,sub_115,3,distance,cathedral,localisation_accuracy,2,32,pinknoise,,,pinknoise_5.wav,87.3599033526704,30,-0.3033612459556497,2,RX81,3,0.0,0.0,4.0,0,0,6.343108504398828,5.98614239692688
0,,2024-07-30 15:19:54,sub_115,3,distance,cathedral,localisation_accuracy,2,33,pinknoise,,,pinknoise_7.wav,90.05098296799932,30,-0.41248547163019555,5,RX81,6,0.0,0.0,7.0,0,0,9.363636363636365,2.187277317047119
0,,2024-07-30 15:19:58,sub_115,3,distance,cathedral,localisation_accuracy,2,34,pinknoise,,,pinknoise_5.wav,84.57345296600536,30,0.25778406986774594,0,RX81,1,0.0,0.0,2.0,0,0,3.483870967741936,2.502350330352783
0,,2024-07-30 15:20:03,sub_115,3,distance,cathedral,localisation_accuracy,2,35,pinknoise,,,pinknoise_7.wav,89.51263184181656,30,0.26683323760249444,4,RX81,5,0.0,0.0,6.0,0,0,10.75659824046921,3.5631096363067627
0,,2024-07-30 15:20:08,sub_115,3,distance,cathedral,localisation_accuracy,2,36,pinknoise,,,pinknoise_7.wav,92.84611184376129,30,-0.21561200505359013,10,RX81,11,0.0,0.0,12.0,0,0,12.252199413489738,3.9695792198181152
0,,2024-07-30 15:20:14,sub_115,3,distance,cathedral,localisation_accuracy,2,37,pinknoise,,,pinknoise_4.wav,86.54218622480522,30,0.49914441661686926,1,RX81,2,0.0,0.0,3.0,0,0,3.6598240469208214,5.296408653259277
0,,2024-07-30 15:20:20,sub_115,3,distance,cathedral,localisation_accuracy,2,38,pinknoise,,,pinknoise_8.wav,91.8634805566444,30,0.17357472290168585,7,RX81,8,0.0,0.0,9.0,0,0,12.3841642228739,4.362213373184204
0,,2024-07-30 15:20:28,sub_115,3,distance,cathedral,localisation_accuracy,2,39,pinknoise,,,pinknoise_4.wav,89.12374164859388,30,-0.036119777082717186,3,RX81,4,0.0,0.0,5.0,0,0,6.621700879765397,6.7633466720581055
0,,2024-07-30 15:20:33,sub_115,3,distance,cathedral,localisation_accuracy,2,40,pinknoise,,,pinknoise_1.wav,92.17217569676649,30,0.2224365334739019,8,RX81,9,0.0,0.0,10.0,0,0,12.281524926686219,3.6571013927459717
0,,2024-07-30 15:20:37,sub_115,3,distance,cathedral,localisation_accuracy,2,41,pinknoise,,,pinknoise_6.wav,87.56504867481907,30,-0.007882044309141079,2,RX81,3,0.0,0.0,4.0,0,0,5.096774193548388,3.655992269515991
0,,2024-07-30 15:20:43,sub_115,3,distance,cathedral,localisation_accuracy,2,42,pinknoise,,,pinknoise_1.wav,91.61109646571452,30,0.03161762397090229,6,RX81,7,0.0,0.0,8.0,0,0,12.178885630498534,4.062987804412842
0,,2024-07-30 15:20:48,sub_115,3,distance,cathedral,localisation_accuracy,2,43,pinknoise,,,pinknoise_0.wav,92.12982248525768,30,0.17442661141751326,9,RX81,10,0.0,0.0,11.0,0,0,12.618768328445748,4.077969074249268
0,,2024-07-30 15:20:53,sub_115,3,distance,cathedral,localisation_accuracy,2,44,pinknoise,,,pinknoise_7.wav,91.52568298780962,30,-0.09000805529295375,6,RX81,7,0.0,0.0,8.0,0,0,12.105571847507333,4.453571557998657
0,,2024-07-30 15:21:00,sub_115,3,distance,cathedral,localisation_accuracy,2,45,pinknoise,,,pinknoise_5.wav,86.26445878391758,30,0.08880187574505916,1,RX81,2,0.0,0.0,3.0,0,0,4.686217008797654,5.662459135055542
0,,2024-07-30 15:21:05,sub_115,3,distance,cathedral,localisation_accuracy,2,46,pinknoise,,,pinknoise_7.wav,87.86811870204438,30,0.4340306456723355,2,RX81,3,0.0,0.0,4.0,0,0,8.498533724340177,3.3206000328063965
0,,2024-07-30 15:21:09,sub_115,3,distance,cathedral,localisation_accuracy,2,47,pinknoise,,,pinknoise_7.wav,89.13670302406531,30,-0.017674443099893522,3,RX81,4,0.0,0.0,5.0,0,0,6.636363636363637,2.87475323677063
0,,2024-07-30 15:21:16,sub_115,3,distance,cathedral,localisation_accuracy,2,48,pinknoise,,,pinknoise_1.wav,91.43365608540074,30,-0.417789825605168,7,RX81,8,0.0,0.0,9.0,0,0,11.680351906158359,5.759258508682251
0,,2024-07-30 15:21:19,sub_115,3,distance,cathedral,localisation_accuracy,2,49,pinknoise,,,pinknoise_9.wav,90.07433887845096,30,-0.3795338876224804,5,RX81,6,0.0,0.0,7.0,0,0,10.082111436950147,2.031040668487549
0,,2024-07-30 15:21:23,sub_115,3,distance,cathedral,localisation_accuracy,2,50,pinknoise,,,pinknoise_8.wav,93.27971538288824,30,0.3957786770438262,10,RX81,11,0.0,0.0,12.0,0,0,12.35483870967742,2.4354846477508545
0,,2024-07-30 15:21:26,sub_115,3,distance,cathedral,localisation_accuracy,2,51,pinknoise,,,pinknoise_3.wav,92.05109840056883,30,0.05063233233404829,8,RX81,9,0.0,0.0,10.0,0,0,12.794721407624634,2.4070990085601807
0,,2024-07-30 15:21:30,sub_115,3,distance,cathedral,localisation_accuracy,2,52,pinknoise,,,pinknoise_2.wav,89.11982177418002,30,-0.25774701659877985,4,RX81,5,0.0,0.0,6.0,0,0,10.214076246334312,2.855193614959717
0,,2024-07-30 15:21:41,sub_115,3,distance,cathedral,localisation_accuracy,2,53,pinknoise,,,pinknoise_4.wav,91.67249336782325,30,-0.46535712081370406,9,RX81,10,0.0,0.0,11.0,0,0,12.105571847507333,9.332725524902344
0,,2024-07-30 15:21:46,sub_115,3,distance,cathedral,localisation_accuracy,2,54,pinknoise,,,pinknoise_9.wav,84.35074928439647,30,-0.07428141144669165,0,RX81,1,0.0,0.0,2.0,0,0,2.9853372434017595,4.2012975215911865
0,,2024-07-30 15:24:13,sub_115,3,distance,cathedral,localisation_accuracy,3,0,babble,,,babble-reversed_n13_p229-two-p307-five-p318-four-p284-one-p248-nine-p268-eight.wav,91.91510991419104,30,-0.14116609569626726,8,RX81,9,0.0,0.0,10.0,0,0,11.284457478005866,5.094440937042236
0,,2024-07-30 15:24:17,sub_115,3,distance,cathedral,localisation_accuracy,3,1,babble,,,babble-reversed_n13_p229-three-p307-one-p318-two-p245-eight-p268-five-p284-four.wav,90.46061240673382,30,0.1707916441791465,5,RX81,6,0.0,0.0,7.0,0,0,10.052785923753666,2.8589465618133545
0,,2024-07-30 15:24:21,sub_115,3,distance,cathedral,localisation_accuracy,3,2,babble,,,babble-reversed_n13_p229-two-p318-eight-p256-three-p268-one-p248-nine-p284-five.wav,91.94312022739066,30,-0.0884190460070845,9,RX81,10,0.0,0.0,11.0,0,0,11.196480938416423,3.020507574081421
0,,2024-07-30 15:24:25,sub_115,3,distance,cathedral,localisation_accuracy,3,3,babble,,,babble-reversed_n13_p256-eight-p318-two-p307-five-p245-four-p268-nine-p284-one.wav,87.36857450953313,30,-0.2909309484094825,2,RX81,3,0.0,0.0,4.0,0,0,8.469208211143696,3.1269218921661377
0,,2024-07-30 15:24:28,sub_115,3,distance,cathedral,localisation_accuracy,3,4,babble,,,babble-reversed_n13_p229-three-p256-nine-p318-five-p248-one-p245-eight-p284-two.wav,91.3042566123759,30,-0.4030224049789327,6,RX81,7,0.0,0.0,8.0,0,0,9.759530791788857,1.9060494899749756
0,,2024-07-30 15:24:31,sub_115,3,distance,cathedral,localisation_accuracy,3,5,babble,,,babble-reversed_n13_p318-five-p256-nine-p307-eight-p248-two-p245-four-p284-three.wav,89.11610194767468,30,-0.2626709704033232,4,RX81,5,0.0,0.0,6.0,0,0,7.882697947214076,2.031961441040039
0,,2024-07-30 15:24:35,sub_115,3,distance,cathedral,localisation_accuracy,3,6,babble,,,babble-reversed_n13_p229-two-p256-three-p318-eight-p284-five-p268-four-p245-one.wav,89.32352157583885,30,0.2494518132104966,3,RX81,4,0.0,0.0,5.0,0,0,6.973607038123168,2.5466341972351074
0,,2024-07-30 15:24:39,sub_115,3,distance,cathedral,localisation_accuracy,3,7,babble,,,babble-reversed_n13_p318-one-p307-two-p256-eight-p284-three-p248-five-p245-four.wav,91.44646790583832,30,-0.40033168656804907,7,RX81,8,0.0,0.0,9.0,0,0,8.90909090909091,2.514970541000366
0,,2024-07-30 15:24:42,sub_115,3,distance,cathedral,localisation_accuracy,3,8,babble,,,babble-reversed_n13_p256-eight-p318-five-p307-four-p245-three-p268-one-p284-nine.wav,93.12202381299915,30,0.17199127357795752,10,RX81,11,0.0,0.0,12.0,0,0,11.064516129032258,2.456186056137085
0,,2024-07-30 15:24:46,sub_115,3,distance,cathedral,localisation_accuracy,3,9,babble,,,babble-reversed_n13_p229-two-p307-five-p318-four-p284-one-p248-nine-p268-eight.wav,86.46406348802947,30,0.3831555956215267,1,RX81,2,0.0,0.0,3.0,0,0,4.788856304985337,2.8913846015930176
0,,2024-07-30 15:24:51,sub_115,3,distance,cathedral,localisation_accuracy,3,10,babble,,,babble-reversed_n13_p318-nine-p256-five-p307-eight-p268-three-p248-one-p245-four.wav,84.5105366231694,30,0.16360008275212545,0,RX81,1,0.0,0.0,2.0,0,0,3.131964809384164,3.050128936767578
0,,2024-07-30 15:24:56,sub_115,3,distance,cathedral,localisation_accuracy,3,11,babble,,,babble-reversed_n13_p307-four-p318-three-p256-eight-p284-two-p245-nine-p248-five.wav,92.22302401053241,30,0.3065018601841004,9,RX81,10,0.0,0.0,11.0,0,0,9.114369501466276,4.004420518875122
0,,2024-07-30 15:24:59,sub_115,3,distance,cathedral,localisation_accuracy,3,12,babble,,,babble-reversed_n13_p307-five-p229-three-p318-nine-p245-four-p268-eight-p284-two.wav,91.54126947585522,30,-0.2708289147298454,7,RX81,8,0.0,0.0,9.0,0,0,7.310850439882698,2.296647310256958
0,,2024-07-30 15:25:03,sub_115,3,distance,cathedral,localisation_accuracy,3,13,babble,,,babble-reversed_n13_p256-nine-p307-four-p229-one-p284-three-p248-two-p245-five.wav,92.11599239074843,30,0.1425926981940625,8,RX81,9,0.0,0.0,10.0,0,0,11.695014662756599,2.8109188079833984
0,,2024-07-30 15:25:07,sub_115,3,distance,cathedral,localisation_accuracy,3,14,babble,,,babble-reversed_n13_p229-three-p307-one-p318-two-p245-eight-p268-five-p284-four.wav,92.8072419967585,30,-0.26981503771657167,10,RX81,11,0.0,0.0,12.0,0,0,12.34017595307918,3.1100807189941406
0,,2024-07-30 15:25:11,sub_115,3,distance,cathedral,localisation_accuracy,3,15,babble,,,babble-reversed_n13_p307-five-p229-two-p318-four-p248-three-p245-nine-p268-eight.wav,89.59459943499726,30,0.37745867712789793,4,RX81,5,0.0,0.0,6.0,0,0,9.803519061583579,2.2366185188293457
0,,2024-07-30 15:25:14,sub_115,3,distance,cathedral,localisation_accuracy,3,16,babble,,,babble-reversed_n13_p318-three-p229-one-p256-eight-p245-five-p248-four-p284-nine.wav,91.66316488535216,30,0.10600367246387887,6,RX81,7,0.0,0.0,8.0,0,0,10.47800586510264,2.1873011589050293
0,,2024-07-30 15:25:19,sub_115,3,distance,cathedral,localisation_accuracy,3,17,babble,,,babble-reversed_n13_p229-five-p256-three-p318-nine-p248-two-p284-four-p268-one.wav,86.20120338993164,30,-0.0038834234529870892,1,RX81,2,0.0,0.0,3.0,0,0,3.747800586510264,4.232748031616211
0,,2024-07-30 15:25:24,sub_115,3,distance,cathedral,localisation_accuracy,3,18,babble,,,babble-reversed_n13_p307-two-p256-four-p318-three-p284-eight-p248-five-p245-nine.wav,84.26528412955156,30,-0.2007456343098143,0,RX81,1,0.0,0.0,2.0,0,0,2.2815249266862176,3.781248092651367
0,,2024-07-30 15:25:29,sub_115,3,distance,cathedral,localisation_accuracy,3,19,babble,,,babble-reversed_n13_p229-nine-p307-five-p256-two-p248-three-p245-one-p268-eight.wav,87.60030770374036,30,0.043198246138338225,2,RX81,3,0.0,0.0,4.0,0,0,5.17008797653959,3.3419504165649414
0,,2024-07-30 15:25:32,sub_115,3,distance,cathedral,localisation_accuracy,3,20,babble,,,babble-reversed_n13_p229-one-p318-eight-p256-three-p268-two-p245-five-p248-nine.wav,89.47742553047567,30,0.4713014605211201,3,RX81,4,0.0,0.0,5.0,0,0,7.310850439882698,2.4225401878356934
0,,2024-07-30 15:25:35,sub_115,3,distance,cathedral,localisation_accuracy,3,21,babble,,,babble-reversed_n13_p256-five-p307-nine-p318-three-p284-eight-p268-one-p248-two.wav,90.27214231062406,30,-0.09898819602140874,5,RX81,6,0.0,0.0,7.0,0,0,9.085043988269796,2.1680026054382324
0,,2024-07-30 15:25:40,sub_115,3,distance,cathedral,localisation_accuracy,3,22,babble,,,babble-reversed_n13_p229-nine-p256-four-p318-three-p268-eight-p248-two-p284-five.wav,92.96479296956775,30,-0.04950187002522122,10,RX81,11,0.0,0.0,12.0,0,0,12.281524926686219,3.171588897705078
0,,2024-07-30 15:25:45,sub_115,3,distance,cathedral,localisation_accuracy,3,23,babble,,,babble-reversed_n13_p256-eight-p318-two-p307-five-p245-four-p268-nine-p284-one.wav,91.91709530096463,30,-0.13837472702899212,8,RX81,9,0.0,0.0,10.0,0,0,12.530791788856305,3.6750452518463135
0,,2024-07-30 15:25:48,sub_115,3,distance,cathedral,localisation_accuracy,3,24,babble,,,babble-reversed_n13_p256-eight-p318-five-p307-four-p245-three-p268-one-p284-nine.wav,89.52865538684125,30,0.28842727463032736,4,RX81,5,0.0,0.0,6.0,0,0,11.343108504398828,2.4706239700317383
0,,2024-07-30 15:25:52,sub_115,3,distance,cathedral,localisation_accuracy,3,25,babble,,,babble-reversed_n13_p229-five-p318-two-p307-eight-p268-three-p248-four-p245-one.wav,92.09393800479373,30,0.49549801565036145,7,RX81,8,0.0,0.0,9.0,0,0,10.111436950146627,2.749852418899536
0,,2024-07-30 15:25:58,sub_115,3,distance,cathedral,localisation_accuracy,3,26,babble,,,babble-reversed_n13_p229-one-p318-eight-p256-three-p268-two-p245-five-p248-nine.wav,90.39307354820099,30,0.07383647693755291,5,RX81,6,0.0,0.0,7.0,0,0,10.712609970674487,4.5631585121154785
0,,2024-07-30 15:26:02,sub_115,3,distance,cathedral,localisation_accuracy,3,27,babble,,,babble-reversed_n13_p318-three-p229-one-p256-eight-p245-five-p248-four-p284-nine.wav,85.90434014502591,30,-0.43506417550392307,1,RX81,2,0.0,0.0,3.0,0,0,7.428152492668623,2.952860116958618
0,,2024-07-30 15:26:05,sub_115,3,distance,cathedral,localisation_accuracy,3,28,babble,,,babble-reversed_n13_p229-two-p318-eight-p256-three-p268-one-p248-nine-p284-five.wav,91.79433752437708,30,0.2942174655875658,6,RX81,7,0.0,0.0,8.0,0,0,10.375366568914957,2.570047378540039
0,,2024-07-30 15:26:12,sub_115,3,distance,cathedral,localisation_accuracy,3,29,babble,,,babble-reversed_n13_p229-five-p318-two-p307-eight-p268-three-p248-four-p245-one.wav,84.70111324657393,30,0.4497926015424559,0,RX81,1,0.0,0.0,2.0,0,0,2.486803519061584,5.795164108276367
0,,2024-07-30 15:26:16,sub_115,3,distance,cathedral,localisation_accuracy,3,30,babble,,,babble-reversed_n13_p256-three-p318-two-p229-nine-p248-four-p284-one-p268-eight.wav,87.29764589187772,30,-0.39245611933460933,2,RX81,3,0.0,0.0,4.0,0,0,4.818181818181818,2.9850077629089355
0,,2024-07-30 15:26:19,sub_115,3,distance,cathedral,localisation_accuracy,3,31,babble,,,babble-reversed_n13_p318-nine-p307-eight-p229-two-p284-one-p248-three-p245-five.wav,89.21071705789865,30,0.0878726891107523,3,RX81,4,0.0,0.0,5.0,0,0,7.545454545454547,1.9373183250427246
0,,2024-07-30 15:26:22,sub_115,3,distance,cathedral,localisation_accuracy,3,32,babble,,,babble-reversed_n13_p256-four-p229-eight-p307-five-p248-three-p245-one-p284-two.wav,92.12160167604415,30,0.16280461868428198,9,RX81,10,0.0,0.0,11.0,0,0,9.52492668621701,1.797654390335083
0,,2024-07-30 15:26:28,sub_115,3,distance,cathedral,localisation_accuracy,3,33,babble,,,babble-reversed_n13_p256-five-p229-one-p318-three-p248-nine-p284-eight-p268-two.wav,91.59219847324766,30,0.004665034015397196,6,RX81,7,0.0,0.0,8.0,0,0,8.483870967741936,4.297749996185303
0,,2024-07-30 15:26:32,sub_115,3,distance,cathedral,localisation_accuracy,3,34,babble,,,babble-reversed_n13_p318-one-p307-two-p256-eight-p284-three-p248-five-p245-four.wav,90.11711423987487,30,-0.31908927417015664,5,RX81,6,0.0,0.0,7.0,0,0,10.228739002932553,3.0005745887756348
0,,2024-07-30 15:26:36,sub_115,3,distance,cathedral,localisation_accuracy,3,35,babble,,,babble-reversed_n13_p229-two-p256-three-p318-eight-p284-five-p268-four-p245-one.wav,89.45837465952769,30,0.19382812137809735,4,RX81,5,0.0,0.0,6.0,0,0,11.72434017595308,2.9826102256774902
0,,2024-07-30 15:26:39,sub_115,3,distance,cathedral,localisation_accuracy,3,36,babble,,,babble-reversed_n13_p307-four-p318-three-p256-eight-p284-two-p245-nine-p248-five.wav,91.9245026855333,30,0.2584835470512118,7,RX81,8,0.0,0.0,9.0,0,0,12.530791788856305,2.015415906906128
0,,2024-07-30 15:26:43,sub_115,3,distance,cathedral,localisation_accuracy,3,37,babble,,,babble-reversed_n13_p229-two-p307-five-p318-four-p284-one-p248-nine-p268-eight.wav,91.91469301766318,30,-0.14175220118877407,8,RX81,9,0.0,0.0,10.0,0,0,12.017595307917889,2.4340603351593018
0,,2024-07-30 15:26:48,sub_115,3,distance,cathedral,localisation_accuracy,3,38,babble,,,babble-reversed_n13_p256-eight-p318-five-p307-four-p245-three-p268-one-p284-nine.wav,93.28093971980324,30,0.39752266798739455,10,RX81,11,0.0,0.0,12.0,0,0,11.181818181818183,3.8133597373962402
0,,2024-07-30 15:26:51,sub_115,3,distance,cathedral,localisation_accuracy,3,39,babble,,,babble-reversed_n13_p229-one-p318-nine-p256-four-p284-eight-p268-five-p245-two.wav,92.02270923068697,30,0.023347856398447164,9,RX81,10,0.0,0.0,11.0,0,0,12.266862170087977,2.577955961227417
0,,2024-07-30 15:26:56,sub_115,3,distance,cathedral,localisation_accuracy,3,40,babble,,,babble-reversed_n13_p307-two-p229-one-p256-five-p248-nine-p284-three-p268-eight.wav,86.13747048114297,30,-0.09697965786012797,1,RX81,2,0.0,0.0,3.0,0,0,5.434017595307918,3.4307563304901123
0,,2024-07-30 15:27:00,sub_115,3,distance,cathedral,localisation_accuracy,3,41,babble,,,babble-reversed_n13_p229-two-p256-three-p318-eight-p284-five-p268-four-p245-one.wav,84.57781464193579,30,0.2643242652797455,0,RX81,1,0.0,0.0,2.0,0,0,3.161290322580646,2.9372496604919434
0,,2024-07-30 15:27:05,sub_115,3,distance,cathedral,localisation_accuracy,3,42,babble,,,babble-reversed_n13_p318-nine-p256-five-p307-eight-p268-three-p248-one-p245-four.wav,89.04157032403162,30,-0.15279406824141029,3,RX81,4,0.0,0.0,5.0,0,0,8.102639296187684,3.781905174255371
0,,2024-07-30 15:27:09,sub_115,3,distance,cathedral,localisation_accuracy,3,43,babble,,,babble-reversed_n13_p229-nine-p256-four-p318-three-p268-eight-p248-two-p284-five.wav,87.45044401954367,30,-0.17331239951968735,2,RX81,3,0.0,0.0,4.0,0,0,6.6950146627565985,2.9071803092956543
0,,2024-07-30 15:27:12,sub_115,3,distance,cathedral,localisation_accuracy,3,44,babble,,,babble-reversed_n13_p229-five-p318-two-p307-eight-p268-three-p248-four-p245-one.wav,91.91651361756165,30,0.47058073545516677,6,RX81,7,0.0,0.0,8.0,0,0,9.774193548387098,2.1559512615203857
0,,2024-07-30 15:27:15,sub_115,3,distance,cathedral,localisation_accuracy,3,45,babble,,,babble-reversed_n13_p307-one-p318-five-p229-four-p268-eight-p284-two-p245-three.wav,91.89199944051917,30,0.21322743213383188,7,RX81,8,0.0,0.0,9.0,0,0,11.035190615835777,1.6716899871826172
0,,2024-07-30 15:27:20,sub_115,3,distance,cathedral,localisation_accuracy,3,46,babble,,,babble-reversed_n13_p256-five-p229-one-p318-three-p248-nine-p284-eight-p268-two.wav,86.22745526738015,30,0.03454757046944934,1,RX81,2,0.0,0.0,3.0,0,0,5.0527859237536665,3.7541987895965576
0,,2024-07-30 15:27:23,sub_115,3,distance,cathedral,localisation_accuracy,3,47,babble,,,babble-reversed_n13_p229-three-p256-one-p307-two-p284-eight-p268-five-p248-nine.wav,84.69780918897067,30,0.4448077792882086,0,RX81,1,0.0,0.0,2.0,0,0,3.029325513196481,2.0013835430145264
0,,2024-07-30 15:27:26,sub_115,3,distance,cathedral,localisation_accuracy,3,48,babble,,,babble-reversed_n13_p229-one-p318-eight-p256-three-p268-two-p245-five-p248-nine.wav,87.47009881881257,30,-0.14500591438540533,2,RX81,3,0.0,0.0,4.0,0,0,7.545454545454547,2.407245635986328
0,,2024-07-30 15:27:29,sub_115,3,distance,cathedral,localisation_accuracy,3,49,babble,,,babble-reversed_n13_p307-nine-p318-two-p256-one-p245-three-p268-four-p248-eight.wav,89.37921700454497,30,0.3295486096374215,3,RX81,4,0.0,0.0,5.0,0,0,9.495601173020528,1.9372973442077637
0,,2024-07-30 15:27:33,sub_115,3,distance,cathedral,localisation_accuracy,3,50,babble,,,babble-reversed_n13_p307-two-p256-four-p318-three-p284-eight-p248-five-p245-nine.wav,91.73602275026568,30,-0.39188465392571603,8,RX81,9,0.0,0.0,10.0,0,0,11.167155425219942,2.3758232593536377
0,,2024-07-30 15:27:37,sub_115,3,distance,cathedral,localisation_accuracy,3,51,babble,,,babble-reversed_n13_p256-four-p229-eight-p307-five-p248-three-p245-one-p284-two.wav,89.48374010286528,30,0.2279363521840444,4,RX81,5,0.0,0.0,6.0,0,0,12.076246334310852,3.3131747245788574
0,,2024-07-30 15:27:46,sub_115,3,distance,cathedral,localisation_accuracy,3,52,babble,,,babble-reversed_n13_p318-five-p229-four-p256-eight-p284-one-p245-three-p248-two.wav,92.78628923047296,30,-0.29899221897713557,10,RX81,11,0.0,0.0,12.0,0,0,12.736070381231672,7.906637668609619
0,,2024-07-30 15:27:50,sub_115,3,distance,cathedral,localisation_accuracy,3,53,babble,,,babble-reversed_n13_p256-nine-p307-four-p229-one-p284-three-p248-two-p245-five.wav,91.95559225529601,30,-0.07093209820025459,9,RX81,10,0.0,0.0,11.0,0,0,11.870967741935484,2.109182357788086
0,,2024-07-30 15:27:53,sub_115,3,distance,cathedral,localisation_accuracy,3,54,babble,,,babble-reversed_n13_p229-nine-p318-one-p307-two-p248-eight-p245-five-p284-four.wav,90.51938831990587,30,0.255421532987688,5,RX81,6,0.0,0.0,7.0,0,0,10.580645161290324,2.1858069896698
0,,2024-07-30 15:29:33,sub_115,3,distance,cathedral,localisation_accuracy,4,0,babble,,,babble-reversed_n13_p318-nine-p256-five-p307-eight-p268-three-p248-one-p245-four.wav,93.26649757554789,30,0.3769571115170437,10,RX81,11,0.0,0.0,12.0,0,0,10.038123167155426,2.672848701477051
0,,2024-07-30 15:29:36,sub_115,3,distance,cathedral,localisation_accuracy,4,1,babble,,,babble-reversed_n13_p229-three-p256-one-p307-two-p284-eight-p268-five-p248-nine.wav,91.61613047563705,30,0.03880128438089292,6,RX81,7,0.0,0.0,8.0,0,0,11.299120234604107,1.8001298904418945
0,,2024-07-30 15:29:39,sub_115,3,distance,cathedral,localisation_accuracy,4,2,babble,,,babble-reversed_n13_p318-one-p307-two-p256-eight-p284-three-p248-five-p245-four.wav,91.46028417018115,30,-0.3814932867558273,7,RX81,8,0.0,0.0,9.0,0,0,10.80058651026393,1.9060497283935547
0,,2024-07-30 15:29:44,sub_115,3,distance,cathedral,localisation_accuracy,4,3,babble,,,babble-reversed_n13_p229-nine-p256-four-p318-three-p268-eight-p248-two-p284-five.wav,87.58480642630224,30,0.020730602916431584,2,RX81,3,0.0,0.0,4.0,0,0,6.10850439882698,3.5292510986328125
0,,2024-07-30 15:29:47,sub_115,3,distance,cathedral,localisation_accuracy,4,4,babble,,,babble-reversed_n13_p229-eight-p256-nine-p318-four-p245-three-p268-five-p284-two.wav,89.01014622076953,30,-0.1972926709774775,3,RX81,4,0.0,0.0,5.0,0,0,7.208211143695015,2.485034465789795
0,,2024-07-30 15:29:54,sub_115,3,distance,cathedral,localisation_accuracy,4,5,babble,,,babble-reversed_n13_p318-three-p307-one-p256-five-p248-nine-p245-two-p284-eight.wav,84.30060677601139,30,-0.1485430463737869,0,RX81,1,0.0,0.0,2.0,0,0,2.809384164222874,5.124781847000122
0,,2024-07-30 15:29:59,sub_115,3,distance,cathedral,localisation_accuracy,4,6,babble,,,babble-reversed_n13_p229-one-p318-eight-p256-three-p268-two-p245-five-p248-nine.wav,92.04923604459628,30,0.060692199124955826,9,RX81,10,0.0,0.0,11.0,0,0,11.519061583577713,4.01643967628479
0,,2024-07-30 15:30:04,sub_115,3,distance,cathedral,localisation_accuracy,4,7,babble,,,babble-reversed_n13_p307-nine-p229-one-p256-eight-p248-four-p284-two-p268-three.wav,90.1043864420501,30,-0.3370874325039117,5,RX81,6,0.0,0.0,7.0,0,0,9.994134897360704,4.155796051025391
0,,2024-07-30 15:30:07,sub_115,3,distance,cathedral,localisation_accuracy,4,8,babble,,,babble-reversed_n13_p318-one-p307-two-p256-eight-p284-three-p248-five-p245-four.wav,91.67961014113716,30,-0.4704243528324117,8,RX81,9,0.0,0.0,10.0,0,0,11.519061583577713,1.891463279724121
0,,2024-07-30 15:30:10,sub_115,3,distance,cathedral,localisation_accuracy,4,9,babble,,,babble-reversed_n13_p229-five-p256-three-p318-nine-p248-two-p284-four-p268-one.wav,89.12613974647847,30,-0.24938201515735403,4,RX81,5,0.0,0.0,6.0,0,0,10.19941348973607,2.2810871601104736
0,,2024-07-30 15:30:16,sub_115,3,distance,cathedral,localisation_accuracy,4,10,babble,,,babble-reversed_n13_p229-five-p318-three-p307-two-p245-four-p284-nine-p248-eight.wav,85.97119858003475,30,-0.33849921099580127,1,RX81,2,0.0,0.0,3.0,0,0,4.2463343108504406,4.382821559906006
0,,2024-07-30 15:30:21,sub_115,3,distance,cathedral,localisation_accuracy,4,11,babble,,,babble-reversed_n13_p318-five-p256-nine-p307-eight-p248-two-p245-four-p284-three.wav,91.49355362180412,30,-0.1356315005370603,6,RX81,7,0.0,0.0,8.0,0,0,11.328445747800588,3.8184947967529297
0,,2024-07-30 15:30:25,sub_115,3,distance,cathedral,localisation_accuracy,4,12,babble,,,babble-reversed_n13_p256-five-p307-nine-p318-three-p284-eight-p268-one-p248-two.wav,89.31174765848695,30,-0.0025843708076603855,4,RX81,5,0.0,0.0,6.0,0,0,8.674486803519063,3.015368700027466
0,,2024-07-30 15:30:29,sub_115,3,distance,cathedral,localisation_accuracy,4,13,babble,,,babble-reversed_n13_p318-three-p307-one-p256-five-p248-nine-p245-two-p284-eight.wav,88.96974815352662,30,-0.25440154657434055,3,RX81,4,0.0,0.0,5.0,0,0,5.0527859237536665,2.232874631881714
0,,2024-07-30 15:30:34,sub_115,3,distance,cathedral,localisation_accuracy,4,14,babble,,,babble-reversed_n13_p256-three-p318-one-p307-two-p284-nine-p268-four-p245-eight.wav,91.74971143103193,30,-0.37279529882939555,8,RX81,9,0.0,0.0,10.0,0,0,8.821114369501467,4.12593150138855
0,,2024-07-30 15:30:39,sub_115,3,distance,cathedral,localisation_accuracy,4,15,babble,,,babble-reversed_n13_p229-nine-p256-four-p318-three-p268-eight-p248-two-p284-five.wav,84.20989617444025,30,-0.28241857180571395,0,RX81,1,0.0,0.0,2.0,0,0,2.648093841642229,4.233690500259399
0,,2024-07-30 15:30:44,sub_115,3,distance,cathedral,localisation_accuracy,4,16,babble,,,babble-reversed_n13_p229-three-p256-nine-p318-five-p248-one-p245-eight-p284-two.wav,93.00170329567628,30,0.0023476965216118195,10,RX81,11,0.0,0.0,12.0,0,0,9.173020527859238,3.438492774963379
0,,2024-07-30 15:30:47,sub_115,3,distance,cathedral,localisation_accuracy,4,17,babble,,,babble-reversed_n13_p307-nine-p229-one-p256-eight-p248-four-p284-two-p268-three.wav,90.09676302924511,30,-0.34786234186303455,5,RX81,6,0.0,0.0,7.0,0,0,10.521994134897362,2.5465683937072754
0,,2024-07-30 15:30:52,sub_115,3,distance,cathedral,localisation_accuracy,4,18,babble,,,babble-reversed_n13_p256-three-p318-two-p229-nine-p248-four-p284-one-p268-eight.wav,86.18853689141196,30,-0.022408739337015704,1,RX81,2,0.0,0.0,3.0,0,0,5.126099706744869,3.6724467277526855
0,,2024-07-30 15:30:55,sub_115,3,distance,cathedral,localisation_accuracy,4,19,babble,,,babble-reversed_n13_p256-nine-p307-four-p229-one-p284-three-p248-two-p245-five.wav,91.9317994870712,30,0.2686526121428092,7,RX81,8,0.0,0.0,9.0,0,0,8.615835777126101,2.124785900115967
0,,2024-07-30 15:31:00,sub_115,3,distance,cathedral,localisation_accuracy,4,20,babble,,,babble-reversed_n13_p229-five-p318-three-p307-two-p245-four-p284-nine-p248-eight.wav,91.82779580471617,30,-0.24963140427522712,9,RX81,10,0.0,0.0,11.0,0,0,11.38709677419355,3.454988479614258
0,,2024-07-30 15:31:06,sub_115,3,distance,cathedral,localisation_accuracy,4,21,babble,,,babble-reversed_n13_p318-five-p229-three-p256-four-p268-eight-p248-one-p245-nine.wav,87.86829947153053,30,0.4342961629585591,2,RX81,3,0.0,0.0,4.0,0,0,5.419354838709678,5.25751805305481
0,,2024-07-30 15:31:12,sub_115,3,distance,cathedral,localisation_accuracy,4,22,babble,,,babble-reversed_n13_p307-nine-p229-one-p256-eight-p248-four-p284-two-p268-three.wav,84.14073666958797,30,-0.3840843243348019,0,RX81,1,0.0,0.0,2.0,0,0,2.164222873900293,4.151687860488892
0,,2024-07-30 15:31:15,sub_115,3,distance,cathedral,localisation_accuracy,4,23,babble,,,babble-reversed_n13_p229-two-p256-three-p318-eight-p284-five-p268-four-p245-one.wav,86.50207127228596,30,0.4395305474252469,1,RX81,2,0.0,0.0,3.0,0,0,4.730205278592376,2.1716771125793457
0,,2024-07-30 15:31:22,sub_115,3,distance,cathedral,localisation_accuracy,4,24,babble,,,babble-reversed_n13_p256-eight-p318-five-p307-four-p245-three-p268-one-p284-nine.wav,89.423530246067,30,0.39342791082522455,3,RX81,4,0.0,0.0,5.0,0,0,8.337243401759531,5.575126886367798
0,,2024-07-30 15:31:26,sub_115,3,distance,cathedral,localisation_accuracy,4,25,babble,,,babble-reversed_n13_p318-five-p256-nine-p307-eight-p248-two-p245-four-p284-three.wav,91.76803464956609,30,0.256382557722331,6,RX81,7,0.0,0.0,8.0,0,0,9.891495601173022,3.0858144760131836
0,,2024-07-30 15:31:32,sub_115,3,distance,cathedral,localisation_accuracy,4,26,babble,,,babble-reversed_n13_p256-eight-p318-five-p307-four-p245-three-p268-one-p284-nine.wav,92.25539683873473,30,0.35251231915241477,9,RX81,10,0.0,0.0,11.0,0,0,11.914956011730206,5.373300075531006
0,,2024-07-30 15:31:36,sub_115,3,distance,cathedral,localisation_accuracy,4,27,babble,,,babble-reversed_n13_p229-three-p256-nine-p318-five-p248-one-p245-eight-p284-two.wav,87.41625759649195,30,-0.22248314280089176,2,RX81,3,0.0,0.0,4.0,0,0,8.366568914956012,2.73364520072937
0,,2024-07-30 15:31:39,sub_115,3,distance,cathedral,localisation_accuracy,4,28,babble,,,babble-reversed_n13_p229-two-p307-five-p318-four-p284-one-p248-nine-p268-eight.wav,89.33958130108817,30,0.034601358570692686,4,RX81,5,0.0,0.0,6.0,0,0,10.008797653958945,1.7654376029968262
0,,2024-07-30 15:31:44,sub_115,3,distance,cathedral,localisation_accuracy,4,29,babble,,,babble-reversed_n13_p229-three-p256-nine-p318-five-p248-one-p245-eight-p284-two.wav,91.49586178584438,30,-0.33292819926076844,7,RX81,8,0.0,0.0,9.0,0,0,8.850439882697948,4.248375415802002
0,,2024-07-30 15:31:48,sub_115,3,distance,cathedral,localisation_accuracy,4,30,babble,,,babble-reversed_n13_p229-five-p318-three-p307-two-p245-four-p284-nine-p248-eight.wav,92.78818947672968,30,-0.29634726599063976,10,RX81,11,0.0,0.0,12.0,0,0,11.563049853372435,2.563281536102295
0,,2024-07-30 15:31:52,sub_115,3,distance,cathedral,localisation_accuracy,4,31,babble,,,babble-reversed_n13_p229-nine-p307-five-p256-two-p248-three-p245-one-p268-eight.wav,91.79974227898822,30,-0.3029207358138165,8,RX81,9,0.0,0.0,10.0,0,0,12.325513196480939,3.0153186321258545
0,,2024-07-30 15:31:56,sub_115,3,distance,cathedral,localisation_accuracy,4,32,babble,,,babble-reversed_n13_p256-two-p307-five-p318-nine-p248-eight-p245-four-p284-one.wav,90.06936803529754,30,-0.3865500526242076,5,RX81,6,0.0,0.0,7.0,0,0,8.498533724340177,2.9040637016296387
0,,2024-07-30 15:32:00,sub_115,3,distance,cathedral,localisation_accuracy,4,33,babble,,,babble-reversed_n13_p307-four-p318-three-p256-eight-p284-two-p245-nine-p248-five.wav,91.9531091711958,30,-0.08769544686126729,8,RX81,9,0.0,0.0,10.0,0,0,11.0791788856305,2.8278825283050537
0,,2024-07-30 15:32:04,sub_115,3,distance,cathedral,localisation_accuracy,4,34,babble,,,babble-reversed_n13_p307-two-p229-one-p256-five-p248-nine-p284-three-p268-eight.wav,85.87117051604042,30,-0.48285499317434344,1,RX81,2,0.0,0.0,3.0,0,0,3.6011730205278596,3.030761957168579
0,,2024-07-30 15:32:10,sub_115,3,distance,cathedral,localisation_accuracy,4,35,babble,,,babble-reversed_n13_p229-five-p318-three-p307-two-p245-four-p284-nine-p248-eight.wav,89.22437675425489,30,0.1073925675114632,3,RX81,4,0.0,0.0,5.0,0,0,8.366568914956012,4.141323089599609
0,,2024-07-30 15:32:13,sub_115,3,distance,cathedral,localisation_accuracy,4,36,babble,,,babble-reversed_n13_p229-nine-p256-four-p318-three-p268-eight-p248-two-p284-five.wav,84.27610753627116,30,-0.18475965971481367,0,RX81,1,0.0,0.0,2.0,0,0,2.868035190615836,2.280963659286499
0,,2024-07-30 15:32:18,sub_115,3,distance,cathedral,localisation_accuracy,4,37,babble,,,babble-reversed_n13_p318-three-p229-one-p256-eight-p245-five-p248-four-p284-nine.wav,90.33847089899379,30,-0.004320345330029007,5,RX81,6,0.0,0.0,7.0,0,0,11.621700879765397,4.109917640686035
0,,2024-07-30 15:32:23,sub_115,3,distance,cathedral,localisation_accuracy,4,38,babble,,,babble-reversed_n13_p229-nine-p256-four-p318-three-p268-eight-p248-two-p284-five.wav,87.9029988386307,30,0.48530610436224464,2,RX81,3,0.0,0.0,4.0,0,0,10.47800586510264,3.4374215602874756
0,,2024-07-30 15:32:27,sub_115,3,distance,cathedral,localisation_accuracy,4,39,babble,,,babble-reversed_n13_p256-three-p318-two-p229-nine-p248-four-p284-one-p268-eight.wav,89.53266503397137,30,0.293833261737383,4,RX81,5,0.0,0.0,6.0,0,0,12.325513196480939,2.9223945140838623
0,,2024-07-30 15:32:31,sub_115,3,distance,cathedral,localisation_accuracy,4,40,babble,,,babble-reversed_n13_p307-nine-p229-one-p256-eight-p248-four-p284-two-p268-three.wav,91.31028834346546,30,-0.3945393431958649,6,RX81,7,0.0,0.0,8.0,0,0,12.66275659824047,3.00114369392395
0,,2024-07-30 15:32:36,sub_115,3,distance,cathedral,localisation_accuracy,4,41,babble,,,babble-reversed_n13_p229-five-p318-two-p307-eight-p268-three-p248-four-p245-one.wav,92.91975118962144,30,-0.11265267404208201,10,RX81,11,0.0,0.0,12.0,0,0,12.838709677419356,4.3844194412231445
0,,2024-07-30 15:32:42,sub_115,3,distance,cathedral,localisation_accuracy,4,42,babble,,,babble-reversed_n13_p229-nine-p256-four-p318-three-p268-eight-p248-two-p284-five.wav,92.01463029960101,30,0.3843282534785285,7,RX81,8,0.0,0.0,9.0,0,0,10.272727272727273,4.264991044998169
0,,2024-07-30 15:32:45,sub_115,3,distance,cathedral,localisation_accuracy,4,43,babble,,,babble-reversed_n13_p307-nine-p229-one-p256-eight-p248-four-p284-two-p268-three.wav,92.1902114060118,30,0.2599375343208383,9,RX81,10,0.0,0.0,11.0,0,0,12.237536656891496,2.4841551780700684
0,,2024-07-30 15:32:50,sub_115,3,distance,cathedral,localisation_accuracy,4,44,babble,,,babble-reversed_n13_p318-five-p256-nine-p307-eight-p248-two-p245-four-p284-three.wav,84.33195730890421,30,-0.10213416394380992,0,RX81,1,0.0,0.0,2.0,0,0,3.1466275659824046,3.276310443878174
0,,2024-07-30 15:32:55,sub_115,3,distance,cathedral,localisation_accuracy,4,45,babble,,,babble-reversed_n13_p229-two-p318-eight-p256-three-p268-one-p248-nine-p284-five.wav,89.10638999122725,30,-0.27552289575398514,4,RX81,5,0.0,0.0,6.0,0,0,8.454545454545455,4.138678312301636
0,,2024-07-30 15:32:58,sub_115,3,distance,cathedral,localisation_accuracy,4,46,babble,,,babble-reversed_n13_p229-five-p318-two-p307-eight-p268-three-p248-four-p245-one.wav,86.36899429725501,30,0.24260122596614586,1,RX81,2,0.0,0.0,3.0,0,0,4.173020527859238,2.107722282409668
0,,2024-07-30 15:33:05,sub_115,3,distance,cathedral,localisation_accuracy,4,47,babble,,,babble-reversed_n13_p229-two-p307-five-p318-four-p284-one-p248-nine-p268-eight.wav,89.40020129167755,30,0.3597815420675923,3,RX81,4,0.0,0.0,5.0,0,0,10.932551319648095,5.42158317565918
0,,2024-07-30 15:33:10,sub_115,3,distance,cathedral,localisation_accuracy,4,48,babble,,,babble-reversed_n13_p256-three-p318-one-p307-two-p284-nine-p268-four-p245-eight.wav,87.25242171756028,30,-0.45700749093273907,2,RX81,3,0.0,0.0,4.0,0,0,8.60117302052786,4.032302141189575
0,,2024-07-30 15:33:14,sub_115,3,distance,cathedral,localisation_accuracy,4,49,babble,,,babble-reversed_n13_p229-two-p307-five-p318-four-p284-one-p248-nine-p268-eight.wav,92.19253622482448,30,0.2514236911544103,8,RX81,9,0.0,0.0,10.0,0,0,11.988269794721408,2.938528537750244
0,,2024-07-30 15:33:18,sub_115,3,distance,cathedral,localisation_accuracy,4,50,babble,,,babble-reversed_n13_p256-eight-p318-five-p307-four-p245-three-p268-one-p284-nine.wav,91.86445625123108,30,-0.1984780808800939,9,RX81,10,0.0,0.0,11.0,0,0,12.648093841642229,2.251046657562256
0,,2024-07-30 15:33:21,sub_115,3,distance,cathedral,localisation_accuracy,4,51,babble,,,babble-reversed_n13_p318-three-p229-one-p256-eight-p245-five-p248-four-p284-nine.wav,91.61872238435419,30,0.04250067426955517,6,RX81,7,0.0,0.0,8.0,0,0,11.72434017595308,2.338238000869751
0,,2024-07-30 15:33:24,sub_115,3,distance,cathedral,localisation_accuracy,4,52,babble,,,babble-reversed_n13_p318-nine-p307-eight-p229-two-p284-one-p248-three-p245-five.wav,92.98457321752184,30,-0.021726834247038695,10,RX81,11,0.0,0.0,12.0,0,0,12.721407624633432,2.1404612064361572
0,,2024-07-30 15:33:28,sub_115,3,distance,cathedral,localisation_accuracy,4,53,babble,,,babble-reversed_n13_p318-nine-p256-five-p307-eight-p268-three-p248-one-p245-four.wav,90.60568874026357,30,0.38011359420816526,5,RX81,6,0.0,0.0,7.0,0,0,9.52492668621701,3.0620534420013428
0,,2024-07-30 15:33:32,sub_115,3,distance,cathedral,localisation_accuracy,4,54,babble,,,babble-reversed_n13_p307-nine-p229-one-p256-eight-p248-four-p284-two-p268-three.wav,91.6785452307118,30,-0.08229979762185158,7,RX81,8,0.0,0.0,9.0,0,0,11.196480938416423,2.1165153980255127
