,event_id,subject_id,timestamp,session_index,plane,setup,task,block,trial_index,stim_number,stim_type,stim_country_ids,stim_sexes,stim_talker_ids,speaker_ids,stim_level,resp_number,is_correct,speaker_distance_mean,speaker_distance_st_dev,reaction_time,spectral_coverage
0,,sub_104,2024-06-27 16:30:00,3,distance,cathedral,numerosity_judgement,1,0,2,countries_forward,"['_Cuba_', '_Peru_']","['f', 'm']","['p245', 'p307']","[1, 10]","[86.2038576498559, 93.00003341222717]",3.0,False,7.5,6.363961030678928,5.249638080596924,0.7805924412665985
0,,sub_104,2024-06-27 16:30:06,3,distance,cathedral,numerosity_judgement,1,1,6,countries_forward,"['_Congo_', '_Syria_', '_Sudan_', '_Yemen_', '_Peru_', '_Belgium_']","['f', 'm', 'm', 'f', 'f', 'f']","['p248', 'p307', 'p318', 'p245', 'p268', 'p284']","[3, 7, 2, 6, 0, 1]","[89.14911522239515, 91.73820004985969, 87.57049330475357, 91.58892582949886, 84.40078082039426, 86.2038576498559]",5.0,False,5.166666666666667,2.786873995477131,3.499821901321411,0.8466348882079219
0,,sub_104,2024-06-27 16:30:13,3,distance,cathedral,numerosity_judgement,1,2,5,countries_forward,"['_Tonga_', '_Cuba_', '_Oman_', '_Belgium_', '_Japan_']","['m', 'm', 'f', 'm', 'f']","['p318', 'p307', 'p248', 'p229', 'p284']","[3, 2, 10, 5, 9]","[89.14911522239515, 87.57049330475357, 93.00003341222717, 90.34149293193902, 92.00610777531934]",5.0,True,7.8,3.5637059362410923,5.499621868133545,0.8292588809442742
0,,sub_104,2024-06-27 16:30:17,3,distance,cathedral,numerosity_judgement,1,3,4,countries_forward,"['_Tonga_', '_Sudan_', '_Syria_', '_Togo_']","['f', 'm', 'm', 'f']","['p248', 'p318', 'p229', 'p284']","[6, 8, 4, 2]","[91.58892582949886, 92.0152836843556, 89.31368318402099, 87.57049330475357]",4.0,True,7.0,2.581988897471611,2.0623576641082764,0.9157757348768584
0,,sub_104,2024-06-27 16:30:21,3,distance,cathedral,numerosity_judgement,1,4,3,countries_forward,"['_Cuba_', '_Togo_', '_Japan_']","['m', 'f', 'm']","['p256', 'p284', 'p318']","[4, 10, 6]","[89.31368318402099, 93.00003341222717, 91.58892582949886]",3.0,True,8.666666666666666,3.055050463303893,2.5623228549957275,0.9017364657814096
0,,sub_104,2024-06-27 16:30:27,3,distance,cathedral,numerosity_judgement,1,5,6,countries_forward,"['_Cuba_', '_Syria_', '_Peru_', '_Belgium_', '_Tonga_', '_Japan_']","['f', 'f', 'f', 'm', 'f', 'm']","['p248', 'p268', 'p245', 'p318', 'p284', 'p307']","[2, 8, 4, 1, 3, 0]","[87.57049330475357, 92.0152836843556, 89.31368318402099, 86.2038576498559, 89.14911522239515, 84.40078082039426]",5.0,False,5.0,2.8284271247461903,3.8747334480285645,0.9398365679264556
0,,sub_104,2024-06-27 16:30:30,3,distance,cathedral,numerosity_judgement,1,6,3,countries_forward,"['_Britain_', '_Tonga_', '_Yemen_']","['m', 'm', 'm']","['p229', 'p256', 'p318']","[3, 4, 8]","[89.14911522239515, 89.31368318402099, 92.0152836843556]",2.0,False,7.0,2.6457513110645907,1.8748714923858643,0.802508228350925
0,,sub_104,2024-06-27 16:30:33,3,distance,cathedral,numerosity_judgement,1,7,2,countries_forward,"['_Oman_', '_Japan_']","['m', 'm']","['p256', 'p229']","[10, 6]","[93.00003341222717, 91.58892582949886]",2.0,True,10.0,2.8284271247461903,1.5623939037322998,0.8241970264442174
0,,sub_104,2024-06-27 16:30:37,3,distance,cathedral,numerosity_judgement,1,8,4,countries_forward,"['_Oman_', '_Yemen_', '_Peru_', '_Cuba_']","['f', 'm', 'f', 'm']","['p284', 'p229', 'p245', 'p307']","[4, 10, 8, 7]","[89.31368318402099, 93.00003341222717, 92.0152836843556, 91.73820004985969]",3.0,False,9.25,2.5,1.6248853206634521,0.7273862217682442
0,,sub_104,2024-06-27 16:30:41,3,distance,cathedral,numerosity_judgement,1,9,5,countries_forward,"['_Tonga_', '_Britain_', '_Oman_', '_Sudan_', '_Yemen_']","['f', 'f', 'f', 'm', 'm']","['p284', 'p245', 'p268', 'p256', 'p307']","[8, 7, 3, 5, 2]","[92.0152836843556, 91.73820004985969, 89.14911522239515, 90.34149293193902, 87.57049330475357]",4.0,False,7.0,2.5495097567963922,2.6248204708099365,0.7775280898876404
0,,sub_104,2024-06-27 16:30:44,3,distance,cathedral,numerosity_judgement,1,10,2,countries_forward,"['_Mali_', '_Sudan_']","['m', 'f']","['p318', 'p245']","[4, 1]","[89.31368318402099, 86.2038576498559]",2.0,True,4.5,2.1213203435596424,1.1874186992645264,0.9387470207694928
0,,sub_104,2024-06-27 16:30:49,3,distance,cathedral,numerosity_judgement,1,11,4,countries_forward,"['_Congo_', '_Japan_', '_Peru_', '_Belgium_']","['f', 'f', 'f', 'm']","['p268', 'p245', 'p284', 'p229']","[10, 0, 2, 5]","[93.00003341222717, 84.40078082039426, 87.57049330475357, 90.34149293193902]",4.0,True,6.25,4.349329450233296,2.8748013973236084,0.8882987175122007
0,,sub_104,2024-06-27 16:30:53,3,distance,cathedral,numerosity_judgement,1,12,5,countries_forward,"['_Congo_', '_Cuba_', '_Yemen_', '_Tonga_', '_Oman_']","['m', 'm', 'f', 'm', 'm']","['p256', 'p307', 'p245', 'p229', 'p318']","[6, 9, 4, 2, 8]","[91.58892582949886, 92.00610777531934, 89.31368318402099, 87.57049330475357, 92.0152836843556]",5.0,True,7.8,2.863564212655271,2.6248252391815186,0.7028487118374759
0,,sub_104,2024-06-27 16:30:57,3,distance,cathedral,numerosity_judgement,1,13,3,countries_forward,"['_Oman_', '_Yemen_', '_Britain_']","['f', 'f', 'm']","['p245', 'p268', 'p318']","[6, 10, 5]","[91.58892582949886, 93.00003341222717, 90.34149293193902]",2.0,False,9.0,2.6457513110645907,2.374835968017578,0.6508001361933946
0,,sub_104,2024-06-27 16:31:01,3,distance,cathedral,numerosity_judgement,1,14,6,countries_forward,"['_Togo_', '_Congo_', '_Oman_', '_Mali_', '_Yemen_', '_Cuba_']","['f', 'm', 'f', 'm', 'f', 'm']","['p268', 'p318', 'p284', 'p307', 'p248', 'p229']","[3, 10, 5, 8, 4, 9]","[89.14911522239515, 93.00003341222717, 90.34149293193902, 92.0152836843556, 89.31368318402099, 92.00610777531934]",4.0,False,8.5,2.8809720581775866,1.7498805522918701,0.7531608217001475
0,,sub_104,2024-06-27 16:31:04,3,distance,cathedral,numerosity_judgement,1,15,2,countries_forward,"['_Oman_', '_Yemen_']","['m', 'f']","['p307', 'p245']","[6, 10]","[91.58892582949886, 93.00003341222717]",2.0,True,10.0,2.8284271247461903,1.2499141693115234,0.5938372488934287
0,,sub_104,2024-06-27 16:31:09,3,distance,cathedral,numerosity_judgement,1,16,5,countries_forward,"['_Mali_', '_Peru_', '_Togo_', '_Congo_', '_Sudan_']","['m', 'm', 'f', 'm', 'f']","['p318', 'p307', 'p284', 'p229', 'p268']","[5, 3, 7, 9, 10]","[90.34149293193902, 89.14911522239515, 91.73820004985969, 92.00610777531934, 93.00003341222717]",3.0,False,8.8,2.8635642126552705,3.874671697616577,0.95404607876518
0,,sub_104,2024-06-27 16:31:14,3,distance,cathedral,numerosity_judgement,1,17,6,countries_forward,"['_Tonga_', '_Peru_', '_Britain_', '_Oman_', '_Yemen_', '_Mali_']","['f', 'f', 'm', 'f', 'm', 'f']","['p245', 'p268', 'p318', 'p248', 'p307', 'p284']","[10, 8, 6, 9, 2, 7]","[93.00003341222717, 92.0152836843556, 91.58892582949886, 92.00610777531934, 87.57049330475357, 91.73820004985969]",4.0,False,9.0,2.8284271247461903,2.4373316764831543,0.7124843945068664
0,,sub_104,2024-06-27 16:31:17,3,distance,cathedral,numerosity_judgement,1,18,4,countries_forward,"['_Yemen_', '_Syria_', '_Britain_', '_Belgium_']","['f', 'm', 'f', 'f']","['p284', 'p318', 'p268', 'p245']","[1, 4, 6, 7]","[86.2038576498559, 89.31368318402099, 91.58892582949886, 91.73820004985969]",2.0,False,6.5,2.6457513110645907,1.3749043941497803,0.940120304165248
0,,sub_104,2024-06-27 16:31:20,3,distance,cathedral,numerosity_judgement,1,19,3,countries_forward,"['_Syria_', '_Togo_', '_Congo_']","['m', 'f', 'm']","['p307', 'p268', 'p318']","[7, 9, 1]","[91.73820004985969, 92.00610777531934, 86.2038576498559]",3.0,True,7.666666666666667,4.163331998932266,1.7498788833618164,0.8750539098853706
0,,sub_104,2024-06-27 16:31:24,3,distance,cathedral,numerosity_judgement,1,20,5,countries_forward,"['_Syria_', '_Cuba_', '_Togo_', '_Tonga_', '_Oman_']","['f', 'f', 'm', 'f', 'm']","['p248', 'p268', 'p318', 'p245', 'p229']","[0, 3, 4, 6, 10]","[84.40078082039426, 89.14911522239515, 89.31368318402099, 91.58892582949886, 93.00003341222717]",3.0,False,6.6,3.714835124201342,1.9373669624328613,0.696220633299285
0,,sub_104,2024-06-27 16:31:31,3,distance,cathedral,numerosity_judgement,1,21,4,countries_forward,"['_Peru_', '_Sudan_', '_Oman_', '_Japan_']","['f', 'm', 'f', 'm']","['p268', 'p318', 'p248', 'p256']","[8, 0, 9, 7]","[92.0152836843556, 84.40078082039426, 92.00610777531934, 91.73820004985969]",3.0,False,8.0,4.08248290463863,4.437191009521484,0.7767790262172285
0,,sub_104,2024-06-27 16:31:33,3,distance,cathedral,numerosity_judgement,1,22,2,countries_forward,"['_Britain_', '_Togo_']","['m', 'm']","['p307', 'p256']","[8, 10]","[92.0152836843556, 93.00003341222717]",2.0,True,11.0,1.4142135623730951,1.499896764755249,0.7385881284757689
0,,sub_104,2024-06-27 16:31:38,3,distance,cathedral,numerosity_judgement,1,23,6,countries_forward,"['_Togo_', '_Belgium_', '_Yemen_', '_Tonga_', '_Mali_', '_Cuba_']","['m', 'f', 'f', 'f', 'm', 'f']","['p318', 'p284', 'p245', 'p268', 'p256', 'p248']","[5, 8, 10, 3, 2, 9]","[90.34149293193902, 92.0152836843556, 93.00003341222717, 89.14911522239515, 87.57049330475357, 92.00610777531934]",4.0,False,8.166666666666666,3.3115957885386114,2.1249067783355713,0.837986607649529
0,,sub_104,2024-06-27 16:31:41,3,distance,cathedral,numerosity_judgement,1,24,3,countries_forward,"['_Sudan_', '_Congo_', '_Tonga_']","['m', 'm', 'f']","['p256', 'p229', 'p245']","[0, 2, 1]","[84.40078082039426, 87.57049330475357, 86.2038576498559]",2.0,False,3.0,1.0,1.2499144077301025,0.8461695607763023
0,,sub_104,2024-06-27 16:31:44,3,distance,cathedral,numerosity_judgement,1,25,4,countries_forward,"['_Yemen_', '_Oman_', '_Peru_', '_Togo_']","['m', 'm', 'f', 'm']","['p229', 'p307', 'p268', 'p256']","[9, 5, 3, 10]","[92.00610777531934, 90.34149293193902, 89.14911522239515, 93.00003341222717]",3.0,False,8.75,3.304037933599835,1.8123750686645508,0.6414935875610033
0,,sub_104,2024-06-27 16:31:48,3,distance,cathedral,numerosity_judgement,1,26,3,countries_forward,"['_Peru_', '_Yemen_', '_Belgium_']","['f', 'm', 'm']","['p245', 'p256', 'p318']","[1, 6, 0]","[86.2038576498559, 91.58892582949886, 84.40078082039426]",3.0,True,4.333333333333333,3.2145502536643185,2.187357187271118,0.8182839632277834
0,,sub_104,2024-06-27 16:31:53,3,distance,cathedral,numerosity_judgement,1,27,6,countries_forward,"['_Oman_', '_Cuba_', '_Syria_', '_Mali_', '_Japan_', '_Belgium_']","['m', 'f', 'f', 'm', 'm', 'f']","['p229', 'p245', 'p284', 'p307', 'p318', 'p248']","[0, 9, 7, 4, 6, 1]","[84.40078082039426, 92.00610777531934, 91.73820004985969, 89.31368318402099, 91.58892582949886, 86.2038576498559]",4.0,False,6.5,3.5071355833500366,2.8123066425323486,0.8996481670638974
0,,sub_104,2024-06-27 16:31:56,3,distance,cathedral,numerosity_judgement,1,28,5,countries_forward,"['_Sudan_', '_Yemen_', '_Peru_', '_Oman_', '_Togo_']","['m', 'm', 'm', 'm', 'f']","['p256', 'p307', 'p318', 'p229', 'p284']","[9, 10, 2, 8, 3]","[92.00610777531934, 93.00003341222717, 87.57049330475357, 92.0152836843556, 89.14911522239515]",5.0,True,8.4,3.6469165057620936,1.8123767375946045,0.759471115650891
0,,sub_104,2024-06-27 16:31:59,3,distance,cathedral,numerosity_judgement,1,29,2,countries_forward,"['_Syria_', '_Belgium_']","['f', 'm']","['p245', 'p318']","[1, 2]","[86.2038576498559, 87.57049330475357]",2.0,True,3.5,0.7071067811865476,0.9999864101409912,0.9564521620701396
0,,sub_104,2024-06-27 16:32:05,3,distance,cathedral,numerosity_judgement,1,30,6,countries_forward,"['_Mali_', '_Syria_', '_Peru_', '_Tonga_', '_Yemen_', '_Oman_']","['m', 'f', 'm', 'f', 'm', 'f']","['p318', 'p248', 'p229', 'p268', 'p256', 'p245']","[7, 6, 10, 4, 3, 1]","[91.73820004985969, 91.58892582949886, 93.00003341222717, 89.31368318402099, 89.14911522239515, 86.2038576498559]",5.0,False,7.166666666666667,3.1885210782848317,3.8747308254241943,0.8865622517307911
0,,sub_104,2024-06-27 16:32:08,3,distance,cathedral,numerosity_judgement,1,31,2,countries_forward,"['_Yemen_', '_Peru_']","['m', 'm']","['p256', 'p307']","[5, 10]","[90.34149293193902, 93.00003341222717]",2.0,True,9.5,3.5355339059327378,1.437401294708252,0.6123141527635909
0,,sub_104,2024-06-27 16:32:12,3,distance,cathedral,numerosity_judgement,1,32,5,countries_forward,"['_Oman_', '_Congo_', '_Belgium_', '_Britain_', '_Tonga_']","['f', 'm', 'f', 'm', 'f']","['p245', 'p229', 'p268', 'p318', 'p284']","[10, 4, 9, 3, 5]","[93.00003341222717, 89.31368318402099, 92.00610777531934, 89.14911522239515, 90.34149293193902]",5.0,True,8.2,3.1144823004794873,1.8123185634613037,0.8138009306548633
0,,sub_104,2024-06-27 16:32:15,3,distance,cathedral,numerosity_judgement,1,33,4,countries_forward,"['_Sudan_', '_Peru_', '_Yemen_', '_Oman_']","['f', 'f', 'm', 'm']","['p268', 'p248', 'p256', 'p307']","[3, 4, 10, 5]","[89.14911522239515, 89.31368318402099, 93.00003341222717, 90.34149293193902]",4.0,True,7.5,3.1091263510296048,1.6248881816864014,0.8043014413800931
0,,sub_104,2024-06-27 16:32:18,3,distance,cathedral,numerosity_judgement,1,34,3,countries_forward,"['_Oman_', '_Cuba_', '_Togo_']","['m', 'm', 'f']","['p256', 'p307', 'p268']","[10, 5, 8]","[93.00003341222717, 90.34149293193902, 92.0152836843556]",3.0,True,9.666666666666666,2.516611478423583,1.6248886585235596,0.681023720349563
0,,sub_104,2024-06-27 16:32:21,3,distance,cathedral,numerosity_judgement,1,35,4,countries_forward,"['_Syria_', '_Sudan_', '_Yemen_', '_Britain_']","['f', 'f', 'f', 'f']","['p245', 'p284', 'p268', 'p248']","[9, 3, 0, 4]","[92.00610777531934, 89.14911522239515, 84.40078082039426, 89.31368318402099]",4.0,True,6.0,3.7416573867739413,1.499896764755249,0.9573033707865168
0,,sub_104,2024-06-27 16:32:27,3,distance,cathedral,numerosity_judgement,1,36,6,countries_forward,"['_Togo_', '_Peru_', '_Yemen_', '_Oman_', '_Sudan_', '_Mali_']","['m', 'f', 'f', 'm', 'm', 'f']","['p318', 'p284', 'p268', 'p256', 'p307', 'p245']","[7, 10, 9, 3, 1, 0]","[91.73820004985969, 93.00003341222717, 92.00610777531934, 89.14911522239515, 86.2038576498559, 84.40078082039426]",6.0,True,7.0,4.242640687119285,3.312272310256958,0.7916468051299512
0,,sub_104,2024-06-27 16:32:30,3,distance,cathedral,numerosity_judgement,1,37,3,countries_forward,"['_Britain_', '_Oman_', '_Cuba_']","['m', 'm', 'm']","['p256', 'p229', 'p318']","[4, 10, 6]","[89.31368318402099, 93.00003341222717, 91.58892582949886]",4.0,False,8.666666666666666,3.055050463303893,1.9373669624328613,0.7245488593803201
0,,sub_104,2024-06-27 16:32:34,3,distance,cathedral,numerosity_judgement,1,38,5,countries_forward,"['_Yemen_', '_Tonga_', '_Cuba_', '_Mali_', '_Belgium_']","['f', 'm', 'm', 'f', 'm']","['p245', 'p307', 'p256', 'p268', 'p229']","[6, 9, 10, 3, 1]","[91.58892582949886, 92.00610777531934, 93.00003341222717, 89.14911522239515, 86.2038576498559]",6.0,False,7.8,3.8340579025361627,1.6248619556427002,0.7308705027806152
0,,sub_104,2024-06-27 16:32:38,3,distance,cathedral,numerosity_judgement,1,39,2,countries_forward,"['_Japan_', '_Sudan_']","['m', 'm']","['p229', 'p256']","[3, 1]","[89.14911522239515, 86.2038576498559]",3.0,False,4.0,1.4142135623730951,2.2498464584350586,0.8969242991714902
0,,sub_104,2024-06-27 16:32:42,3,distance,cathedral,numerosity_judgement,1,40,6,countries_forward,"['_Oman_', '_Tonga_', '_Japan_', '_Congo_', '_Yemen_', '_Mali_']","['m', 'm', 'f', 'f', 'm', 'f']","['p229', 'p318', 'p248', 'p284', 'p307', 'p245']","[3, 5, 6, 0, 10, 7]","[89.14911522239515, 90.34149293193902, 91.58892582949886, 84.40078082039426, 93.00003341222717, 91.73820004985969]",5.0,False,7.166666666666667,3.4302575219167823,2.374873399734497,0.7383497900351833
0,,sub_104,2024-06-27 16:32:46,3,distance,cathedral,numerosity_judgement,1,41,3,countries_forward,"['_Oman_', '_Yemen_', '_Britain_']","['m', 'f', 'f']","['p307', 'p268', 'p245']","[4, 8, 1]","[89.31368318402099, 92.0152836843556, 86.2038576498559]",3.0,True,6.333333333333333,3.5118845842842465,1.9373745918273926,0.6117807286346613
0,,sub_104,2024-06-27 16:32:48,3,distance,cathedral,numerosity_judgement,1,42,2,countries_forward,"['_Yemen_', '_Peru_']","['m', 'm']","['p229', 'p318']","[6, 7]","[91.58892582949886, 91.73820004985969]",2.0,True,8.5,0.7071067811865476,1.2499139308929443,0.7546816479400749
0,,sub_104,2024-06-27 16:32:51,3,distance,cathedral,numerosity_judgement,1,43,5,countries_forward,"['_Britain_', '_Japan_', '_Tonga_', '_Togo_', '_Yemen_']","['f', 'f', 'm', 'f', 'm']","['p268', 'p245', 'p307', 'p248', 'p256']","[5, 4, 8, 3, 2]","[90.34149293193902, 89.31368318402099, 92.0152836843556, 89.14911522239515, 87.57049330475357]",4.0,False,6.4,2.3021728866442674,1.062427282333374,0.8825445465894904
0,,sub_104,2024-06-27 16:32:56,3,distance,cathedral,numerosity_judgement,1,44,4,countries_forward,"['_Mali_', '_Belgium_', '_Cuba_', '_Tonga_']","['m', 'm', 'm', 'f']","['p307', 'p256', 'p229', 'p268']","[9, 0, 3, 6]","[92.00610777531934, 84.40078082039426, 89.14911522239515, 91.58892582949886]",6.0,False,6.5,3.872983346207417,2.8747408390045166,0.7660991941890818
0,,sub_104,2024-06-27 16:32:59,3,distance,cathedral,numerosity_judgement,1,45,5,countries_forward,"['_Belgium_', '_Peru_', '_Japan_', '_Yemen_', '_Syria_']","['f', 'm', 'm', 'f', 'm']","['p245', 'p256', 'p229', 'p268', 'p318']","[10, 4, 0, 3, 5]","[93.00003341222717, 89.31368318402099, 84.40078082039426, 89.14911522239515, 90.34149293193902]",6.0,False,6.4,3.646916505762094,1.187417984008789,0.92267620020429
0,,sub_104,2024-06-27 16:33:02,3,distance,cathedral,numerosity_judgement,1,46,2,countries_forward,"['_Britain_', '_Tonga_']","['m', 'f']","['p318', 'p248']","[7, 6]","[91.73820004985969, 91.58892582949886]",2.0,True,8.5,0.7071067811865476,1.3749048709869385,0.8731699012597889
0,,sub_104,2024-06-27 16:33:05,3,distance,cathedral,numerosity_judgement,1,47,4,countries_forward,"['_Oman_', '_Mali_', '_Yemen_', '_Belgium_']","['m', 'm', 'f', 'f']","['p229', 'p318', 'p248', 'p284']","[3, 10, 4, 8]","[89.14911522239515, 93.00003341222717, 89.31368318402099, 92.0152836843556]",4.0,True,8.25,3.304037933599835,1.5623915195465088,0.8357280671887414
0,,sub_104,2024-06-27 16:33:08,3,distance,cathedral,numerosity_judgement,1,48,6,countries_forward,"['_Congo_', '_Belgium_', '_Sudan_', '_Togo_', '_Mali_', '_Cuba_']","['f', 'f', 'm', 'f', 'm', 'm']","['p284', 'p245', 'p256', 'p268', 'p307', 'p229']","[3, 9, 2, 5, 8, 6]","[89.14911522239515, 92.00610777531934, 87.57049330475357, 90.34149293193902, 92.0152836843556, 91.58892582949886]",5.0,False,7.5,2.7386127875258306,0.9374351501464844,0.819237316990126
0,,sub_104,2024-06-27 16:33:12,3,distance,cathedral,numerosity_judgement,1,49,3,countries_forward,"['_Oman_', '_Britain_', '_Togo_']","['m', 'f', 'm']","['p229', 'p284', 'p307']","[3, 1, 7]","[89.14911522239515, 86.2038576498559, 91.73820004985969]",3.0,True,5.666666666666667,3.0550504633038935,1.8748712539672852,0.76414708886619
0,,sub_104,2024-06-27 16:33:15,3,distance,cathedral,numerosity_judgement,1,50,5,countries_forward,"['_Sudan_', '_Yemen_', '_Syria_', '_Cuba_', '_Britain_']","['m', 'm', 'f', 'f', 'm']","['p229', 'p256', 'p245', 'p268', 'p307']","[1, 7, 3, 2, 10]","[86.2038576498559, 91.73820004985969, 89.14911522239515, 87.57049330475357, 93.00003341222717]",4.0,False,6.6,3.7815340802378072,1.1248645782470703,0.8447849279309954
0,,sub_104,2024-06-27 16:33:18,3,distance,cathedral,numerosity_judgement,1,51,3,countries_forward,"['_Syria_', '_Togo_', '_Oman_']","['m', 'f', 'm']","['p229', 'p248', 'p318']","[2, 8, 1]","[87.57049330475357, 92.0152836843556, 86.2038576498559]",2.0,False,5.666666666666667,3.7859388972001824,1.9373691082000732,0.922982635342186
0,,sub_104,2024-06-27 16:33:21,3,distance,cathedral,numerosity_judgement,1,52,4,countries_forward,"['_Congo_', '_Oman_', '_Peru_', '_Yemen_']","['m', 'm', 'f', 'f']","['p307', 'p229', 'p284', 'p248']","[3, 10, 2, 6]","[89.14911522239515, 93.00003341222717, 87.57049330475357, 91.58892582949886]",5.0,False,7.25,3.593976442141304,1.562392234802246,0.672829417773238
0,,sub_104,2024-06-27 16:33:27,3,distance,cathedral,numerosity_judgement,1,53,6,countries_forward,"['_Cuba_', '_Belgium_', '_Oman_', '_Peru_', '_Syria_', '_Britain_']","['m', 'm', 'f', 'm', 'm', 'f']","['p256', 'p229', 'p245', 'p318', 'p307', 'p284']","[10, 8, 7, 6, 4, 9]","[93.00003341222717, 92.0152836843556, 91.73820004985969, 91.58892582949886, 89.31368318402099, 92.00610777531934]",6.0,True,9.333333333333334,2.160246899469287,3.312270402908325,0.7811939620928385
0,,sub_104,2024-06-27 16:33:31,3,distance,cathedral,numerosity_judgement,1,54,2,countries_forward,"['_Yemen_', '_Japan_']","['f', 'm']","['p248', 'p256']","[10, 4]","[93.00003341222717, 89.31368318402099]",2.0,True,9.0,4.242640687119285,2.812239408493042,0.7033934854159574
0,,sub_104,2024-06-27 16:33:34,3,distance,cathedral,numerosity_judgement,1,55,3,countries_forward,"['_Britain_', '_Mali_', '_Oman_']","['f', 'm', 'm']","['p268', 'p307', 'p229']","[9, 2, 10]","[92.00610777531934, 87.57049330475357, 93.00003341222717]",2.0,False,9.0,4.358898943540674,1.562391996383667,0.7572239246396549
0,,sub_104,2024-06-27 16:33:37,3,distance,cathedral,numerosity_judgement,1,56,2,countries_forward,"['_Peru_', '_Togo_']","['f', 'f']","['p268', 'p248']","[1, 5]","[86.2038576498559, 90.34149293193902]",2.0,True,5.0,2.8284271247461903,1.7498791217803955,0.8433321983883781
0,,sub_104,2024-06-27 16:33:41,3,distance,cathedral,numerosity_judgement,1,57,5,countries_forward,"['_Japan_', '_Tonga_', '_Yemen_', '_Oman_', '_Belgium_']","['f', 'f', 'm', 'm', 'f']","['p284', 'p248', 'p307', 'p256', 'p245']","[1, 6, 0, 10, 9]","[86.2038576498559, 91.58892582949886, 84.40078082039426, 93.00003341222717, 92.00610777531934]",4.0,False,7.2,4.54972526643093,1.9998621940612793,0.866655317217115
0,,sub_104,2024-06-27 16:33:45,3,distance,cathedral,numerosity_judgement,1,58,4,countries_forward,"['_Togo_', '_Yemen_', '_Peru_', '_Mali_']","['m', 'f', 'f', 'f']","['p256', 'p268', 'p248', 'p284']","[0, 6, 3, 8]","[84.40078082039426, 91.58892582949886, 89.14911522239515, 92.0152836843556]",3.0,False,6.25,3.5,1.9373667240142822,0.8499943252752241
0,,sub_104,2024-06-27 16:33:49,3,distance,cathedral,numerosity_judgement,1,59,6,countries_forward,"['_Japan_', '_Togo_', '_Yemen_', '_Belgium_', '_Congo_', '_Tonga_']","['f', 'f', 'm', 'm', 'f', 'm']","['p284', 'p248', 'p307', 'p318', 'p268', 'p256']","[6, 4, 2, 10, 1, 8]","[91.58892582949886, 89.31368318402099, 87.57049330475357, 93.00003341222717, 86.2038576498559, 92.0152836843556]",6.0,True,7.166666666666667,3.488074922742725,1.4998974800109863,0.958608557484962
0,,sub_104,2024-06-27 16:33:52,3,distance,cathedral,numerosity_judgement,1,60,2,countries_forward,"['_Oman_', '_Peru_']","['m', 'm']","['p229', 'p318']","[10, 9]","[93.00003341222717, 92.00610777531934]",2.0,True,11.5,0.7071067811865476,1.687316656112671,0.6570196345477244
0,,sub_104,2024-06-27 16:33:56,3,distance,cathedral,numerosity_judgement,1,61,4,countries_forward,"['_Tonga_', '_Cuba_', '_Congo_', '_Japan_']","['m', 'f', 'm', 'm']","['p318', 'p268', 'p307', 'p229']","[1, 8, 2, 7]","[86.2038576498559, 92.0152836843556, 87.57049330475357, 91.73820004985969]",3.0,False,6.5,3.5118845842842465,2.8123061656951904,0.871183747588242
0,,sub_104,2024-06-27 16:34:00,3,distance,cathedral,numerosity_judgement,1,62,3,countries_forward,"['_Mali_', '_Togo_', '_Yemen_']","['m', 'f', 'f']","['p307', 'p268', 'p248']","[9, 3, 5]","[92.00610777531934, 89.14911522239515, 90.34149293193902]",3.0,True,7.666666666666667,3.0550504633038935,2.562323808670044,0.6935308137555328
0,,sub_104,2024-06-27 16:34:05,3,distance,cathedral,numerosity_judgement,1,63,6,countries_forward,"['_Sudan_', '_Peru_', '_Mali_', '_Oman_', '_Tonga_', '_Cuba_']","['m', 'm', 'f', 'm', 'f', 'f']","['p256', 'p229', 'p248', 'p307', 'p245', 'p268']","[4, 6, 5, 8, 7, 3]","[89.31368318402099, 91.58892582949886, 90.34149293193902, 92.0152836843556, 91.73820004985969, 89.14911522239515]",5.0,False,7.5,1.8708286933869707,2.499781370162964,0.7172625127681308
0,,sub_104,2024-06-27 16:34:09,3,distance,cathedral,numerosity_judgement,1,64,5,countries_forward,"['_Yemen_', '_Sudan_', '_Cuba_', '_Peru_', '_Togo_']","['f', 'm', 'f', 'm', 'm']","['p268', 'p256', 'p248', 'p229', 'p307']","[4, 8, 10, 5, 7]","[89.31368318402099, 92.0152836843556, 93.00003341222717, 90.34149293193902, 91.73820004985969]",5.0,True,8.8,2.3874672772626644,1.6873764991760254,0.7535694018840087
0,,sub_104,2024-06-27 16:34:12,3,distance,cathedral,numerosity_judgement,1,65,2,countries_forward,"['_Mali_', '_Oman_']","['m', 'f']","['p256', 'p245']","[10, 5]","[93.00003341222717, 90.34149293193902]",4.0,False,9.5,3.5355339059327378,1.6873836517333984,0.6747247758483713
0,,sub_104,2024-06-27 16:34:15,3,distance,cathedral,numerosity_judgement,1,66,6,countries_forward,"['_Cuba_', '_Japan_', '_Oman_', '_Congo_', '_Sudan_', '_Peru_']","['f', 'm', 'm', 'f', 'f', 'm']","['p248', 'p307', 'p318', 'p268', 'p245', 'p256']","[5, 7, 9, 3, 2, 6]","[90.34149293193902, 91.73820004985969, 92.00610777531934, 89.14911522239515, 87.57049330475357, 91.58892582949886]",6.0,True,7.333333333333333,2.581988897471611,1.3124420642852783,0.8664737260242878
0,,sub_104,2024-06-27 16:34:18,3,distance,cathedral,numerosity_judgement,1,67,3,countries_forward,"['_Tonga_', '_Syria_', '_Belgium_']","['m', 'f', 'f']","['p256', 'p268', 'p245']","[10, 9, 3]","[93.00003341222717, 92.00610777531934, 89.14911522239515]",6.0,False,9.333333333333334,3.7859388972001824,1.6248884201049805,0.9322891839745772
0,,sub_104,2024-06-27 16:34:22,3,distance,cathedral,numerosity_judgement,1,68,4,countries_forward,"['_Yemen_', '_Belgium_', '_Oman_', '_Mali_']","['f', 'm', 'm', 'm']","['p284', 'p229', 'p256', 'p307']","[8, 0, 3, 9]","[92.0152836843556, 84.40078082039426, 89.14911522239515, 92.00610777531934]",3.0,False,7.0,4.242640687119285,2.3123161792755127,0.7163432073544433
0,,sub_104,2024-06-27 16:34:26,3,distance,cathedral,numerosity_judgement,1,69,5,countries_forward,"['_Togo_', '_Syria_', '_Peru_', '_Sudan_', '_Britain_']","['f', 'm', 'm', 'f', 'f']","['p248', 'p256', 'p229', 'p268', 'p245']","[9, 2, 0, 10, 1]","[92.00610777531934, 87.57049330475357, 84.40078082039426, 93.00003341222717, 86.2038576498559]",4.0,False,6.4,4.722287581247038,1.3749051094055176,0.9470888661899898
0,,sub_104,2024-06-27 16:34:29,3,distance,cathedral,numerosity_judgement,1,70,3,countries_forward,"['_Sudan_', '_Belgium_', '_Tonga_']","['f', 'f', 'f']","['p248', 'p268', 'p284']","[10, 2, 1]","[93.00003341222717, 87.57049330475357, 86.2038576498559]",3.0,True,6.333333333333333,4.932882862316247,1.8748703002929688,0.9550788786743843
0,,sub_104,2024-06-27 16:34:33,3,distance,cathedral,numerosity_judgement,1,71,6,countries_forward,"['_Mali_', '_Cuba_', '_Belgium_', '_Congo_', '_Syria_', '_Togo_']","['f', 'm', 'f', 'm', 'f', 'm']","['p245', 'p318', 'p248', 'p256', 'p268', 'p229']","[5, 0, 10, 2, 9, 4]","[90.34149293193902, 84.40078082039426, 93.00003341222717, 87.57049330475357, 92.00610777531934, 89.31368318402099]",5.0,False,7.0,3.8987177379235853,1.6873631477355957,0.9191919191919192
0,,sub_104,2024-06-27 16:34:36,3,distance,cathedral,numerosity_judgement,1,72,4,countries_forward,"['_Yemen_', '_Oman_', '_Mali_', '_Britain_']","['m', 'f', 'm', 'm']","['p318', 'p268', 'p256', 'p307']","[5, 3, 2, 8]","[90.34149293193902, 89.14911522239515, 87.57049330475357, 92.0152836843556]",4.0,True,6.5,2.6457513110645907,1.6249184608459473,0.6913517194416071
0,,sub_104,2024-06-27 16:34:39,3,distance,cathedral,numerosity_judgement,1,73,5,countries_forward,"['_Mali_', '_Togo_', '_Peru_', '_Congo_', '_Belgium_']","['f', 'm', 'f', 'm', 'm']","['p248', 'p256', 'p245', 'p307', 'p318']","[1, 7, 8, 2, 0]","[86.2038576498559, 91.73820004985969, 92.0152836843556, 87.57049330475357, 84.40078082039426]",5.0,True,5.6,3.6469165057620936,1.499845266342163,0.895210532289184
0,,sub_104,2024-06-27 16:34:43,3,distance,cathedral,numerosity_judgement,1,74,2,countries_forward,"['_Mali_', '_Oman_']","['m', 'm']","['p307', 'p256']","[5, 7]","[90.34149293193902, 91.73820004985969]",3.0,False,8.0,1.4142135623730951,1.6873455047607422,0.5621949835432981
0,,sub_104,2024-06-27 16:35:28,3,distance,cathedral,numerosity_judgement,2,0,6,countries_forward,"['_Oman_', '_Congo_', '_Sudan_', '_Cuba_', '_Japan_', '_Britain_']","['m', 'm', 'm', 'f', 'f', 'f']","['p256', 'p307', 'p229', 'p245', 'p268', 'p248']","[0, 1, 7, 5, 8, 4]","[84.40078082039426, 86.2038576498559, 91.73820004985969, 90.34149293193902, 92.0152836843556, 89.31368318402099]",5.0,False,6.166666666666667,3.188521078284832,4.062196493148804,0.8651117920780842
0,,sub_104,2024-06-27 16:35:32,3,distance,cathedral,numerosity_judgement,2,1,2,countries_forward,"['_Yemen_', '_Congo_']","['f', 'm']","['p248', 'p318']","[2, 6]","[87.57049330475357, 91.58892582949886]",2.0,True,6.0,2.8284271247461903,2.624844789505005,0.8885938032005448
0,,sub_104,2024-06-27 16:35:36,3,distance,cathedral,numerosity_judgement,2,2,3,countries_forward,"['_Belgium_', '_Syria_', '_Peru_']","['m', 'f', 'm']","['p318', 'p284', 'p256']","[8, 1, 4]","[92.0152836843556, 86.2038576498559, 89.31368318402099]",4.0,False,6.333333333333333,3.5118845842842465,2.3123414516448975,0.9327431619566452
0,,sub_104,2024-06-27 16:35:40,3,distance,cathedral,numerosity_judgement,2,3,4,countries_forward,"['_Oman_', '_Syria_', '_Mali_', '_Congo_']","['m', 'm', 'm', 'f']","['p307', 'p318', 'p229', 'p245']","[5, 3, 10, 4]","[90.34149293193902, 89.14911522239515, 93.00003341222717, 89.31368318402099]",5.0,False,7.5,3.1091263510296048,1.7498791217803955,0.8028033140392691
0,,sub_104,2024-06-27 16:35:44,3,distance,cathedral,numerosity_judgement,2,4,5,countries_forward,"['_Togo_', '_Sudan_', '_Syria_', '_Tonga_', '_Peru_']","['m', 'f', 'f', 'm', 'f']","['p229', 'p284', 'p248', 'p307', 'p268']","[0, 8, 3, 7, 9]","[84.40078082039426, 92.0152836843556, 89.14911522239515, 91.73820004985969, 92.00610777531934]",6.0,False,7.4,3.7815340802378072,1.6873841285705566,0.9507093405969812
0,,sub_104,2024-06-27 16:35:48,3,distance,cathedral,numerosity_judgement,2,5,4,countries_forward,"['_Britain_', '_Togo_', '_Syria_', '_Cuba_']","['f', 'f', 'm', 'f']","['p284', 'p245', 'p256', 'p248']","[6, 10, 7, 3]","[91.58892582949886, 93.00003341222717, 91.73820004985969, 89.14911522239515]",6.0,False,8.5,2.886751345948129,2.2498373985290527,0.8236636023152877
0,,sub_104,2024-06-27 16:35:53,3,distance,cathedral,numerosity_judgement,2,6,6,countries_forward,"['_Cuba_', '_Syria_', '_Sudan_', '_Mali_', '_Tonga_', '_Belgium_']","['m', 'f', 'm', 'f', 'f', 'm']","['p307', 'p248', 'p256', 'p268', 'p245', 'p229']","[10, 7, 9, 2, 3, 8]","[93.00003341222717, 91.73820004985969, 92.00610777531934, 87.57049330475357, 89.14911522239515, 92.0152836843556]",5.0,False,8.5,3.271085446759225,3.062288999557495,0.8055044830325729
0,,sub_104,2024-06-27 16:35:57,3,distance,cathedral,numerosity_judgement,2,7,2,countries_forward,"['_Syria_', '_Oman_']","['m', 'f']","['p307', 'p284']","[8, 9]","[92.0152836843556, 92.00610777531934]",3.0,False,10.5,0.7071067811865476,2.562323570251465,0.9107479287254568
0,,sub_104,2024-06-27 16:36:01,3,distance,cathedral,numerosity_judgement,2,8,5,countries_forward,"['_Cuba_', '_Japan_', '_Yemen_', '_Peru_', '_Britain_']","['m', 'f', 'm', 'f', 'f']","['p307', 'p284', 'p229', 'p245', 'p268']","[7, 0, 5, 6, 10]","[91.73820004985969, 84.40078082039426, 90.34149293193902, 91.58892582949886, 93.00003341222717]",4.0,False,7.6,3.646916505762094,2.0623576641082764,0.7025309272500284
0,,sub_104,2024-06-27 16:36:04,3,distance,cathedral,numerosity_judgement,2,9,3,countries_forward,"['_Cuba_', '_Yemen_', '_Oman_']","['f', 'm', 'm']","['p268', 'p307', 'p229']","[7, 4, 0]","[91.73820004985969, 89.31368318402099, 84.40078082039426]",2.0,False,5.666666666666667,3.5118845842842465,1.5623767375946045,0.6952786289864942
0,,sub_104,2024-06-27 16:36:07,3,distance,cathedral,numerosity_judgement,2,10,2,countries_forward,"['_Syria_', '_Oman_']","['f', 'm']","['p248', 'p229']","[2, 3]","[87.57049330475357, 89.14911522239515]",2.0,True,4.5,0.7071067811865476,1.8123750686645508,0.7853705595278629
0,,sub_104,2024-06-27 16:36:10,3,distance,cathedral,numerosity_judgement,2,11,3,countries_forward,"['_Cuba_', '_Peru_', '_Yemen_']","['m', 'm', 'f']","['p318', 'p256', 'p268']","[0, 1, 5]","[84.40078082039426, 86.2038576498559, 90.34149293193902]",3.0,True,4.0,2.6457513110645907,1.6248884201049805,0.8898422426512315
0,,sub_104,2024-06-27 16:36:14,3,distance,cathedral,numerosity_judgement,2,12,4,countries_forward,"['_Congo_', '_Oman_', '_Yemen_', '_Tonga_']","['m', 'm', 'f', 'f']","['p318', 'p229', 'p248', 'p245']","[4, 1, 5, 3]","[89.31368318402099, 86.2038576498559, 90.34149293193902, 89.14911522239515]",3.0,False,5.25,1.707825127659933,1.874894618988037,0.6943593235728067
0,,sub_104,2024-06-27 16:36:18,3,distance,cathedral,numerosity_judgement,2,13,6,countries_forward,"['_Sudan_', '_Belgium_', '_Japan_', '_Mali_', '_Britain_', '_Togo_']","['m', 'f', 'm', 'f', 'f', 'm']","['p318', 'p284', 'p229', 'p245', 'p248', 'p256']","[7, 5, 0, 4, 6, 9]","[91.73820004985969, 90.34149293193902, 84.40078082039426, 89.31368318402099, 91.58892582949886, 92.00610777531934]",4.0,False,7.166666666666667,3.0605010483034745,2.187349557876587,0.8968448530246284
0,,sub_104,2024-06-27 16:36:23,3,distance,cathedral,numerosity_judgement,2,14,5,countries_forward,"['_Congo_', '_Tonga_', '_Britain_', '_Mali_', '_Oman_']","['m', 'm', 'f', 'm', 'f']","['p229', 'p318', 'p245', 'p256', 'p248']","[9, 0, 2, 6, 5]","[92.00610777531934, 84.40078082039426, 87.57049330475357, 91.58892582949886, 90.34149293193902]",4.0,False,6.4,3.5071355833500366,3.2497756481170654,0.7456701849960277
0,,sub_104,2024-06-27 16:36:28,3,distance,cathedral,numerosity_judgement,2,15,6,countries_forward,"['_Britain_', '_Peru_', '_Mali_', '_Syria_', '_Belgium_', '_Congo_']","['f', 'm', 'f', 'f', 'm', 'm']","['p248', 'p318', 'p284', 'p268', 'p256', 'p307']","[6, 5, 4, 1, 8, 3]","[91.58892582949886, 90.34149293193902, 89.31368318402099, 86.2038576498559, 92.0152836843556, 89.14911522239515]",6.0,True,6.5,2.4289915602982237,2.249844789505005,0.9193281125865396
0,,sub_104,2024-06-27 16:36:31,3,distance,cathedral,numerosity_judgement,2,16,5,countries_forward,"['_Peru_', '_Belgium_', '_Japan_', '_Congo_', '_Togo_']","['f', 'm', 'm', 'm', 'm']","['p248', 'p256', 'p307', 'p318', 'p229']","[6, 8, 10, 5, 3]","[91.58892582949886, 92.0152836843556, 93.00003341222717, 90.34149293193902, 89.14911522239515]",6.0,False,8.4,2.701851217221259,1.5624487400054932,0.8813755532856656
0,,sub_104,2024-06-27 16:36:34,3,distance,cathedral,numerosity_judgement,2,17,2,countries_forward,"['_Sudan_', '_Mali_']","['f', 'm']","['p268', 'p229']","[5, 6]","[90.34149293193902, 91.58892582949886]",2.0,True,7.5,0.7071067811865476,1.3749055862426758,0.922415162864601
0,,sub_104,2024-06-27 16:36:37,3,distance,cathedral,numerosity_judgement,2,18,3,countries_forward,"['_Syria_', '_Britain_', '_Congo_']","['m', 'f', 'm']","['p229', 'p245', 'p256']","[9, 6, 0]","[92.00610777531934, 91.58892582949886, 84.40078082039426]",3.0,True,7.0,4.58257569495584,1.5624456405639648,0.9198274883668142
0,,sub_104,2024-06-27 16:36:40,3,distance,cathedral,numerosity_judgement,2,19,4,countries_forward,"['_Peru_', '_Oman_', '_Sudan_', '_Cuba_']","['m', 'f', 'm', 'f']","['p307', 'p268', 'p256', 'p248']","[2, 4, 1, 0]","[87.57049330475357, 89.31368318402099, 86.2038576498559, 84.40078082039426]",3.0,False,3.75,1.707825127659933,1.562366008758545,0.8867211440245149
0,,sub_104,2024-06-27 16:36:46,3,distance,cathedral,numerosity_judgement,2,20,5,countries_forward,"['_Syria_', '_Japan_', '_Congo_', '_Britain_', '_Belgium_']","['f', 'm', 'f', 'f', 'm']","['p248', 'p318', 'p284', 'p268', 'p256']","[1, 3, 2, 0, 7]","[86.2038576498559, 89.14911522239515, 87.57049330475357, 84.40078082039426, 91.73820004985969]",4.0,False,4.6,2.701851217221259,3.5622541904449463,0.9391556009533536
0,,sub_104,2024-06-27 16:36:49,3,distance,cathedral,numerosity_judgement,2,21,2,countries_forward,"['_Yemen_', '_Peru_']","['m', 'm']","['p256', 'p307']","[5, 10]","[90.34149293193902, 93.00003341222717]",2.0,True,9.5,3.5355339059327378,1.3124098777770996,0.6123141527635909
0,,sub_104,2024-06-27 16:36:52,3,distance,cathedral,numerosity_judgement,2,22,3,countries_forward,"['_Congo_', '_Peru_', '_Oman_']","['f', 'm', 'm']","['p248', 'p318', 'p229']","[6, 0, 10]","[91.58892582949886, 84.40078082039426, 93.00003341222717]",3.0,True,7.333333333333333,5.033222956847167,1.7498791217803955,0.6567585972080354
0,,sub_104,2024-06-27 16:36:56,3,distance,cathedral,numerosity_judgement,2,23,6,countries_forward,"['_Syria_', '_Sudan_', '_Belgium_', '_Britain_', '_Tonga_', '_Togo_']","['m', 'f', 'm', 'f', 'm', 'm']","['p229', 'p245', 'p318', 'p248', 'p256', 'p307']","[4, 1, 7, 0, 8, 6]","[89.31368318402099, 86.2038576498559, 91.73820004985969, 84.40078082039426, 92.0152836843556, 91.58892582949886]",5.0,False,6.333333333333333,3.265986323710904,1.624887466430664,0.9334468278288504
0,,sub_104,2024-06-27 16:36:59,3,distance,cathedral,numerosity_judgement,2,24,4,countries_forward,"['_Yemen_', '_Syria_', '_Cuba_', '_Tonga_']","['f', 'm', 'm', 'f']","['p245', 'p307', 'p229', 'p268']","[2, 1, 4, 10]","[87.57049330475357, 86.2038576498559, 89.31368318402099, 93.00003341222717]",4.0,True,6.25,4.031128874149275,1.9374291896820068,0.7814663488820792
0,,sub_104,2024-06-27 16:37:04,3,distance,cathedral,numerosity_judgement,2,25,5,countries_forward,"['_Oman_', '_Cuba_', '_Mali_', '_Yemen_', '_Tonga_']","['m', 'f', 'm', 'm', 'm']","['p307', 'p245', 'p229', 'p318', 'p256']","[1, 7, 9, 5, 3]","[86.2038576498559, 91.73820004985969, 92.00610777531934, 90.34149293193902, 89.14911522239515]",3.0,False,7.0,3.1622776601683795,2.9372758865356445,0.6779593689706049
0,,sub_104,2024-06-27 16:37:08,3,distance,cathedral,numerosity_judgement,2,26,4,countries_forward,"['_Oman_', '_Mali_', '_Yemen_', '_Britain_']","['f', 'f', 'm', 'f']","['p248', 'p268', 'p256', 'p245']","[3, 6, 9, 7]","[89.14911522239515, 91.58892582949886, 92.00610777531934, 91.73820004985969]",5.0,False,8.25,2.5,1.9373877048492432,0.6700034048348655
0,,sub_104,2024-06-27 16:37:11,3,distance,cathedral,numerosity_judgement,2,27,6,countries_forward,"['_Tonga_', '_Congo_', '_Belgium_', '_Sudan_', '_Britain_', '_Cuba_']","['f', 'm', 'f', 'm', 'f', 'f']","['p268', 'p229', 'p245', 'p307', 'p284', 'p248']","[1, 4, 5, 9, 2, 0]","[86.2038576498559, 89.31368318402099, 90.34149293193902, 92.00610777531934, 87.57049330475357, 84.40078082039426]",6.0,True,5.5,3.271085446759225,1.3123903274536133,0.951798887753944
0,,sub_104,2024-06-27 16:37:15,3,distance,cathedral,numerosity_judgement,2,28,3,countries_forward,"['_Peru_', '_Oman_', '_Yemen_']","['f', 'm', 'm']","['p248', 'p318', 'p256']","[6, 10, 5]","[91.58892582949886, 93.00003341222717, 90.34149293193902]",2.0,False,9.0,2.6457513110645907,1.874870777130127,0.6773918964930201
0,,sub_104,2024-06-27 16:37:18,3,distance,cathedral,numerosity_judgement,2,29,2,countries_forward,"['_Oman_', '_Yemen_']","['m', 'm']","['p229', 'p256']","[3, 6]","[89.14911522239515, 91.58892582949886]",2.0,True,6.5,2.1213203435596424,2.187371253967285,0.5410623084780388
0,,sub_104,2024-06-27 16:37:23,3,distance,cathedral,numerosity_judgement,2,30,5,countries_forward,"['_Togo_', '_Oman_', '_Mali_', '_Syria_', '_Britain_']","['f', 'm', 'f', 'f', 'm']","['p245', 'p256', 'p284', 'p248', 'p229']","[0, 1, 6, 7, 10]","[84.40078082039426, 86.2038576498559, 91.58892582949886, 91.73820004985969, 93.00003341222717]",4.0,False,6.8,4.207136793592526,2.8748011589050293,0.9139371240494836
0,,sub_104,2024-06-27 16:37:26,3,distance,cathedral,numerosity_judgement,2,31,3,countries_forward,"['_Yemen_', '_Oman_', '_Britain_']","['f', 'm', 'm']","['p248', 'p229', 'p307']","[10, 3, 6]","[93.00003341222717, 89.14911522239515, 91.58892582949886]",3.0,True,8.333333333333334,3.511884584284246,1.6248886585235596,0.6105209397344229
0,,sub_104,2024-06-27 16:37:29,3,distance,cathedral,numerosity_judgement,2,32,2,countries_forward,"['_Tonga_', '_Oman_']","['m', 'm']","['p229', 'p307']","[3, 6]","[89.14911522239515, 91.58892582949886]",2.0,True,6.5,2.1213203435596424,1.0624265670776367,0.6298944501191692
0,,sub_104,2024-06-27 16:37:33,3,distance,cathedral,numerosity_judgement,2,33,6,countries_forward,"['_Yemen_', '_Tonga_', '_Mali_', '_Cuba_', '_Togo_', '_Congo_']","['m', 'f', 'f', 'm', 'm', 'f']","['p318', 'p268', 'p248', 'p307', 'p256', 'p245']","[5, 3, 10, 7, 2, 4]","[90.34149293193902, 89.14911522239515, 93.00003341222717, 91.73820004985969, 87.57049330475357, 89.31368318402099]",5.0,False,7.166666666666667,2.9268868558020253,1.9998621940612793,0.6946544092611509
0,,sub_104,2024-06-27 16:37:36,3,distance,cathedral,numerosity_judgement,2,34,4,countries_forward,"['_Congo_', '_Peru_', '_Japan_', '_Yemen_']","['m', 'f', 'm', 'm']","['p229', 'p284', 'p307', 'p256']","[4, 3, 7, 5]","[89.31368318402099, 89.14911522239515, 91.73820004985969, 90.34149293193902]",4.0,True,6.75,1.707825127659933,1.3124098777770996,0.7096129837702871
0,,sub_104,2024-06-27 16:37:39,3,distance,cathedral,numerosity_judgement,2,35,5,countries_forward,"['_Britain_', '_Congo_', '_Oman_', '_Tonga_', '_Togo_']","['f', 'm', 'f', 'f', 'm']","['p248', 'p229', 'p268', 'p245', 'p318']","[4, 0, 8, 5, 6]","[89.31368318402099, 84.40078082039426, 92.0152836843556, 90.34149293193902, 91.58892582949886]",6.0,False,6.6,2.9664793948382653,1.4374005794525146,0.8279990920440359
0,,sub_104,2024-06-27 16:37:42,3,distance,cathedral,numerosity_judgement,2,36,4,countries_forward,"['_Togo_', '_Cuba_', '_Japan_', '_Yemen_']","['f', 'm', 'f', 'm']","['p268', 'p307', 'p248', 'p229']","[3, 4, 2, 10]","[89.14911522239515, 89.31368318402099, 87.57049330475357, 93.00003341222717]",5.0,False,6.75,3.593976442141304,0.9999310970306396,0.7628646010668483
0,,sub_104,2024-06-27 16:37:46,3,distance,cathedral,numerosity_judgement,2,37,6,countries_forward,"['_Congo_', '_Belgium_', '_Japan_', '_Cuba_', '_Yemen_', '_Oman_']","['f', 'f', 'f', 'm', 'f', 'm']","['p284', 'p268', 'p245', 'p307', 'p248', 'p256']","[6, 4, 8, 5, 9, 3]","[91.58892582949886, 89.31368318402099, 92.0152836843556, 90.34149293193902, 92.00610777531934, 89.14911522239515]",5.0,False,7.833333333333333,2.316606713852541,1.62483549118042,0.7347520145272954
0,,sub_104,2024-06-27 16:37:49,3,distance,cathedral,numerosity_judgement,2,38,2,countries_forward,"['_Mali_', '_Oman_']","['m', 'm']","['p256', 'p229']","[7, 1]","[91.73820004985969, 86.2038576498559]",3.0,False,6.0,4.242640687119285,1.4373960494995117,0.7195210532289184
0,,sub_104,2024-06-27 16:37:52,3,distance,cathedral,numerosity_judgement,2,39,3,countries_forward,"['_Cuba_', '_Japan_', '_Sudan_']","['m', 'f', 'm']","['p229', 'p248', 'p307']","[9, 1, 5]","[92.00610777531934, 86.2038576498559, 90.34149293193902]",3.0,True,7.0,4.0,2.0623583793640137,0.8366473726024288
0,,sub_104,2024-06-27 16:37:56,3,distance,cathedral,numerosity_judgement,2,40,4,countries_forward,"['_Togo_', '_Belgium_', '_Britain_', '_Mali_']","['m', 'f', 'm', 'm']","['p318', 'p284', 'p229', 'p307']","[4, 9, 2, 3]","[89.31368318402099, 92.00610777531934, 87.57049330475357, 89.14911522239515]",4.0,True,6.5,3.1091263510296048,2.2498438358306885,0.9100102145045964
0,,sub_104,2024-06-27 16:38:00,3,distance,cathedral,numerosity_judgement,2,41,5,countries_forward,"['_Britain_', '_Japan_', '_Tonga_', '_Peru_', '_Yemen_']","['m', 'f', 'm', 'f', 'm']","['p229', 'p248', 'p307', 'p268', 'p256']","[6, 10, 2, 7, 3]","[91.58892582949886, 93.00003341222717, 87.57049330475357, 91.73820004985969, 89.14911522239515]",5.0,True,7.6,3.2093613071762426,1.5623912811279297,0.8018045624787198
0,,sub_104,2024-06-27 16:38:03,3,distance,cathedral,numerosity_judgement,2,42,3,countries_forward,"['_Tonga_', '_Mali_', '_Cuba_']","['f', 'f', 'm']","['p248', 'p245', 'p256']","[6, 5, 0]","[91.58892582949886, 90.34149293193902, 84.40078082039426]",3.0,True,5.666666666666667,3.2145502536643185,1.6873831748962402,0.8630575417092271
0,,sub_104,2024-06-27 16:38:06,3,distance,cathedral,numerosity_judgement,2,43,2,countries_forward,"['_Yemen_', '_Peru_']","['m', 'f']","['p256', 'p245']","[7, 5]","[91.73820004985969, 90.34149293193902]",2.0,True,8.0,1.4142135623730951,1.4373772144317627,0.5815457950289411
0,,sub_104,2024-06-27 16:38:10,3,distance,cathedral,numerosity_judgement,2,44,6,countries_forward,"['_Sudan_', '_Congo_', '_Cuba_', '_Togo_', '_Oman_', '_Britain_']","['m', 'f', 'm', 'f', 'm', 'm']","['p307', 'p248', 'p318', 'p284', 'p229', 'p256']","[10, 9, 3, 7, 2, 4]","[93.00003341222717, 92.00610777531934, 89.14911522239515, 91.73820004985969, 87.57049330475357, 89.31368318402099]",6.0,True,7.833333333333333,3.3115957885386114,2.249845266342163,0.7825558960390421
0,,sub_104,2024-06-27 16:38:15,3,distance,cathedral,numerosity_judgement,2,45,4,countries_forward,"['_Cuba_', '_Peru_', '_Mali_', '_Yemen_']","['f', 'm', 'm', 'f']","['p284', 'p256', 'p229', 'p245']","[10, 8, 0, 7]","[93.00003341222717, 92.0152836843556, 84.40078082039426, 91.73820004985969]",5.0,False,8.25,4.349329450233296,2.8123056888580322,0.8615594143684031
0,,sub_104,2024-06-27 16:38:18,3,distance,cathedral,numerosity_judgement,2,46,5,countries_forward,"['_Tonga_', '_Japan_', '_Oman_', '_Mali_', '_Cuba_']","['f', 'm', 'm', 'f', 'm']","['p245', 'p229', 'p256', 'p248', 'p307']","[9, 10, 7, 8, 4]","[92.00610777531934, 93.00003341222717, 91.73820004985969, 92.0152836843556, 89.31368318402099]",4.0,False,9.6,2.3021728866442674,1.8123745918273926,0.7297582567245489
0,,sub_104,2024-06-27 16:38:21,3,distance,cathedral,numerosity_judgement,2,47,2,countries_forward,"['_Cuba_', '_Togo_']","['m', 'f']","['p307', 'p245']","[5, 2]","[90.34149293193902, 87.57049330475357]",2.0,True,5.5,2.1213203435596424,1.499896764755249,0.6952786289864942
0,,sub_104,2024-06-27 16:38:25,3,distance,cathedral,numerosity_judgement,2,48,3,countries_forward,"['_Tonga_', '_Congo_', '_Sudan_']","['m', 'm', 'f']","['p318', 'p229', 'p284']","[9, 1, 8]","[92.00610777531934, 86.2038576498559, 92.0152836843556]",3.0,True,8.0,4.358898943540674,1.562391996383667,0.9573941663829304
0,,sub_104,2024-06-27 16:38:29,3,distance,cathedral,numerosity_judgement,2,49,6,countries_forward,"['_Cuba_', '_Belgium_', '_Tonga_', '_Yemen_', '_Britain_', '_Oman_']","['m', 'm', 'f', 'm', 'f', 'm']","['p229', 'p318', 'p245', 'p307', 'p248', 'p256']","[2, 1, 4, 5, 6, 7]","[87.57049330475357, 86.2038576498559, 89.31368318402099, 90.34149293193902, 91.58892582949886, 91.73820004985969]",5.0,False,6.166666666666667,2.316606713852541,2.0623629093170166,0.7964362728407672
0,,sub_104,2024-06-27 16:38:34,3,distance,cathedral,numerosity_judgement,2,50,4,countries_forward,"['_Syria_', '_Peru_', '_Togo_', '_Yemen_']","['f', 'm', 'm', 'm']","['p245', 'p256', 'p229', 'p318']","[7, 5, 2, 3]","[91.73820004985969, 90.34149293193902, 87.57049330475357, 89.14911522239515]",4.0,True,6.25,2.217355782608345,3.874732255935669,0.8484961979344002
0,,sub_104,2024-06-27 16:38:40,3,distance,cathedral,numerosity_judgement,2,51,6,countries_forward,"['_Britain_', '_Tonga_', '_Yemen_', '_Congo_', '_Cuba_', '_Sudan_']","['m', 'f', 'f', 'm', 'm', 'f']","['p318', 'p245', 'p268', 'p256', 'p307', 'p248']","[0, 5, 6, 1, 8, 7]","[84.40078082039426, 90.34149293193902, 91.58892582949886, 86.2038576498559, 92.0152836843556, 91.73820004985969]",6.0,True,6.5,3.271085446759225,3.1872801780700684,0.7589263420724095
0,,sub_104,2024-06-27 16:38:42,3,distance,cathedral,numerosity_judgement,2,52,2,countries_forward,"['_Cuba_', '_Tonga_']","['m', 'f']","['p307', 'p245']","[10, 7]","[93.00003341222717, 91.73820004985969]",2.0,True,10.5,2.1213203435596424,1.4373853206634521,0.662126886845988
0,,sub_104,2024-06-27 16:38:46,3,distance,cathedral,numerosity_judgement,2,53,3,countries_forward,"['_Mali_', '_Oman_', '_Cuba_']","['m', 'm', 'f']","['p307', 'p256', 'p248']","[7, 3, 6]","[91.73820004985969, 89.14911522239515, 91.58892582949886]",2.0,False,7.333333333333333,2.0816659994661326,1.5623972415924072,0.7359323572806719
0,,sub_104,2024-06-27 16:38:50,3,distance,cathedral,numerosity_judgement,2,54,5,countries_forward,"['_Cuba_', '_Congo_', '_Britain_', '_Yemen_', '_Japan_']","['m', 'm', 'f', 'f', 'f']","['p307', 'p256', 'p268', 'p284', 'p248']","[7, 5, 8, 4, 9]","[91.73820004985969, 90.34149293193902, 92.0152836843556, 89.31368318402099, 92.00610777531934]",5.0,True,8.6,2.073644135332772,2.562377691268921,0.7586880036318239
0,,sub_104,2024-06-27 16:38:55,3,distance,cathedral,numerosity_judgement,2,55,4,countries_forward,"['_Yemen_', '_Oman_', '_Peru_', '_Togo_']","['m', 'm', 'f', 'm']","['p229', 'p307', 'p268', 'p256']","[9, 5, 3, 10]","[92.00610777531934, 90.34149293193902, 89.14911522239515, 93.00003341222717]",4.0,True,8.75,3.304037933599835,3.4372634887695312,0.6414935875610033
0,,sub_104,2024-06-27 16:39:00,3,distance,cathedral,numerosity_judgement,2,56,5,countries_forward,"['_Yemen_', '_Mali_', '_Tonga_', '_Belgium_', '_Cuba_']","['f', 'm', 'm', 'f', 'm']","['p284', 'p256', 'p318', 'p268', 'p229']","[10, 3, 7, 9, 0]","[93.00003341222717, 89.14911522239515, 91.73820004985969, 92.00610777531934, 84.40078082039426]",3.0,False,7.8,4.207136793592526,3.124784469604492,0.7881965724662354
0,,sub_104,2024-06-27 16:39:04,3,distance,cathedral,numerosity_judgement,2,57,6,countries_forward,"['_Sudan_', '_Britain_', '_Oman_', '_Cuba_', '_Peru_', '_Japan_']","['m', 'f', 'm', 'f', 'm', 'f']","['p229', 'p248', 'p307', 'p245', 'p318', 'p284']","[9, 2, 6, 8, 10, 0]","[92.00610777531934, 87.57049330475357, 91.58892582949886, 92.0152836843556, 93.00003341222717, 84.40078082039426]",6.0,True,7.833333333333333,4.02077936060494,1.7498798370361328,0.8488934286687095
0,,sub_104,2024-06-27 16:39:08,3,distance,cathedral,numerosity_judgement,2,58,3,countries_forward,"['_Tonga_', '_Cuba_', '_Britain_']","['m', 'm', 'f']","['p318', 'p229', 'p245']","[8, 5, 9]","[92.0152836843556, 90.34149293193902, 92.00610777531934]",3.0,True,9.333333333333334,2.0816659994661326,2.0623576641082764,0.7727726705254795
0,,sub_104,2024-06-27 16:39:11,3,distance,cathedral,numerosity_judgement,2,59,2,countries_forward,"['_Congo_', '_Britain_']","['m', 'm']","['p318', 'p256']","[8, 9]","[92.0152836843556, 92.00610777531934]",2.0,True,10.5,0.7071067811865476,1.4374001026153564,0.8332425377369198
0,,sub_104,2024-06-27 16:39:15,3,distance,cathedral,numerosity_judgement,2,60,5,countries_forward,"['_Congo_', '_Britain_', '_Cuba_', '_Japan_', '_Syria_']","['m', 'm', 'f', 'm', 'f']","['p256', 'p229', 'p268', 'p318', 'p284']","[10, 2, 8, 5, 9]","[93.00003341222717, 87.57049330475357, 92.0152836843556, 90.34149293193902, 92.00610777531934]",5.0,True,8.8,3.271085446759225,2.499856472015381,0.8457042333446828
0,,sub_104,2024-06-27 16:39:19,3,distance,cathedral,numerosity_judgement,2,61,3,countries_forward,"['_Peru_', '_Britain_', '_Yemen_']","['f', 'm', 'f']","['p268', 'p307', 'p248']","[0, 9, 4]","[84.40078082039426, 92.00610777531934, 89.31368318402099]",2.0,False,6.333333333333333,4.509249752822894,2.7498106956481934,0.7882760186130973
0,,sub_104,2024-06-27 16:39:23,3,distance,cathedral,numerosity_judgement,2,62,4,countries_forward,"['_Belgium_', '_Peru_', '_Mali_', '_Cuba_']","['f', 'm', 'm', 'm']","['p245', 'p318', 'p229', 'p307']","[1, 7, 4, 5]","[86.2038576498559, 91.73820004985969, 89.31368318402099, 90.34149293193902]",2.0,False,6.25,2.5,1.6248877048492432,0.7433321983883782
0,,sub_104,2024-06-27 16:39:28,3,distance,cathedral,numerosity_judgement,2,63,6,countries_forward,"['_Togo_', '_Britain_', '_Peru_', '_Cuba_', '_Sudan_', '_Tonga_']","['f', 'm', 'm', 'f', 'm', 'f']","['p268', 'p318', 'p307', 'p284', 'p229', 'p245']","[1, 10, 7, 3, 5, 9]","[86.2038576498559, 93.00003341222717, 91.73820004985969, 89.14911522239515, 90.34149293193902, 92.00610777531934]",4.0,False,7.833333333333333,3.488074922742725,2.8748021125793457,0.8854500056747248
0,,sub_104,2024-06-27 16:39:31,3,distance,cathedral,numerosity_judgement,2,64,2,countries_forward,"['_Peru_', '_Britain_']","['f', 'f']","['p245', 'p268']","[6, 2]","[91.58892582949886, 87.57049330475357]",3.0,False,6.0,2.8284271247461903,1.4373931884765625,0.8475882419702644
0,,sub_104,2024-06-27 16:39:34,3,distance,cathedral,numerosity_judgement,2,65,3,countries_forward,"['_Congo_', '_Yemen_', '_Oman_']","['m', 'f', 'm']","['p256', 'p248', 'p318']","[7, 5, 1]","[91.73820004985969, 90.34149293193902, 86.2038576498559]",3.0,True,6.333333333333333,3.0550504633038935,1.624887466430664,0.7124162978095563
0,,sub_104,2024-06-27 16:39:37,3,distance,cathedral,numerosity_judgement,2,66,2,countries_forward,"['_Cuba_', '_Oman_']","['f', 'f']","['p248', 'p268']","[8, 4]","[92.0152836843556, 89.31368318402099]",2.0,True,8.0,2.8284271247461903,1.5623934268951416,0.7626716604244694
0,,sub_104,2024-06-27 16:39:41,3,distance,cathedral,numerosity_judgement,2,67,4,countries_forward,"['_Yemen_', '_Japan_', '_Britain_', '_Tonga_']","['m', 'm', 'f', 'm']","['p318', 'p229', 'p284', 'p256']","[1, 5, 6, 4]","[86.2038576498559, 90.34149293193902, 91.58892582949886, 89.31368318402099]",3.0,False,6.0,2.160246899469287,2.874807834625244,0.9314152763590966
0,,sub_104,2024-06-27 16:39:47,3,distance,cathedral,numerosity_judgement,2,68,6,countries_forward,"['_Belgium_', '_Congo_', '_Cuba_', '_Togo_', '_Britain_', '_Oman_']","['f', 'm', 'f', 'm', 'm', 'f']","['p248', 'p256', 'p284', 'p307', 'p318', 'p268']","[0, 10, 2, 3, 4, 7]","[84.40078082039426, 93.00003341222717, 87.57049330475357, 89.14911522239515, 89.31368318402099, 91.73820004985969]",5.0,False,6.333333333333333,3.6147844564602556,3.1247851848602295,0.8377028714107366
0,,sub_104,2024-06-27 16:39:51,3,distance,cathedral,numerosity_judgement,2,69,5,countries_forward,"['_Oman_', '_Yemen_', '_Cuba_', '_Belgium_', '_Tonga_']","['m', 'f', 'm', 'f', 'm']","['p229', 'p245', 'p307', 'p248', 'p318']","[5, 4, 6, 1, 9]","[90.34149293193902, 89.31368318402099, 91.58892582949886, 86.2038576498559, 92.00610777531934]",4.0,False,7.0,2.9154759474226504,3.0622873306274414,0.899625468164794
0,,sub_104,2024-06-27 16:39:56,3,distance,cathedral,numerosity_judgement,2,70,2,countries_forward,"['_Syria_', '_Sudan_']","['f', 'm']","['p268', 'p229']","[6, 9]","[91.58892582949886, 92.00610777531934]",2.0,True,9.5,2.1213203435596424,2.749810218811035,0.9664850754738395
0,,sub_104,2024-06-27 16:39:59,3,distance,cathedral,numerosity_judgement,2,71,6,countries_forward,"['_Togo_', '_Congo_', '_Peru_', '_Yemen_', '_Britain_', '_Oman_']","['m', 'f', 'f', 'm', 'm', 'f']","['p229', 'p245', 'p248', 'p307', 'p256', 'p268']","[0, 6, 1, 10, 7, 3]","[84.40078082039426, 91.58892582949886, 86.2038576498559, 93.00003341222717, 91.73820004985969, 89.14911522239515]",6.0,True,6.5,3.8340579025361627,1.5623924732208252,0.7283282260810351
0,,sub_104,2024-06-27 16:40:04,3,distance,cathedral,numerosity_judgement,2,72,3,countries_forward,"['_Syria_', '_Cuba_', '_Sudan_']","['m', 'f', 'm']","['p229', 'p245', 'p256']","[0, 7, 9]","[84.40078082039426, 91.73820004985969, 92.00610777531934]",4.0,False,7.333333333333333,4.725815626252608,2.6873154640197754,0.8132561570763818
0,,sub_104,2024-06-27 16:40:09,3,distance,cathedral,numerosity_judgement,2,73,4,countries_forward,"['_Togo_', '_Japan_', '_Mali_', '_Syria_']","['m', 'm', 'f', 'f']","['p318', 'p307', 'p248', 'p268']","[2, 4, 1, 9]","[87.57049330475357, 89.31368318402099, 86.2038576498559, 92.00610777531934]",4.0,True,6.0,3.559026084010437,3.343519687652588,0.9561230280331404
0,,sub_104,2024-06-27 16:40:13,3,distance,cathedral,numerosity_judgement,2,74,5,countries_forward,"['_Oman_', '_Syria_', '_Cuba_', '_Yemen_', '_Japan_']","['f', 'm', 'm', 'm', 'm']","['p245', 'p229', 'p256', 'p307', 'p318']","[3, 2, 8, 1, 7]","[89.14911522239515, 87.57049330475357, 92.0152836843556, 86.2038576498559, 91.73820004985969]",5.0,True,6.2,3.1144823004794877,2.749810218811035,0.8694699807059357
0,,sub_104,2024-06-27 16:40:54,3,distance,cathedral,numerosity_judgement,3,0,2,countries_reversed,"['_Yemen_reversed', '_Cuba_reversed']","['m', 'f']","['p256', 'p245']","[5, 8]","[90.34149293193902, 92.0152836843556]",3.0,False,8.5,2.1213203435596424,3.9997243881225586,0.6732833957553058
0,,sub_104,2024-06-27 16:40:58,3,distance,cathedral,numerosity_judgement,3,1,3,countries_reversed,"['_Belgium_reversed', '_Cuba_reversed', '_Togo_reversed']","['f', 'm', 'f']","['p245', 'p256', 'p284']","[7, 10, 0]","[91.73820004985969, 93.00003341222717, 84.40078082039426]",4.0,False,7.666666666666667,5.131601439446884,2.4998273849487305,0.7774032459425718
0,,sub_104,2024-06-27 16:41:02,3,distance,cathedral,numerosity_judgement,3,2,5,countries_reversed,"['_Oman_reversed', '_Congo_reversed', '_Belgium_reversed', '_Yemen_reversed', '_Tonga_reversed']","['f', 'f', 'm', 'f', 'm']","['p248', 'p268', 'p307', 'p245', 'p256']","[10, 8, 6, 2, 5]","[93.00003341222717, 92.0152836843556, 91.58892582949886, 87.57049330475357, 90.34149293193902]",6.0,False,8.2,3.03315017762062,3.1872808933258057,0.7688344115310407
0,,sub_104,2024-06-27 16:41:07,3,distance,cathedral,numerosity_judgement,3,3,6,countries_reversed,"['_Tonga_reversed', '_Peru_reversed', '_Belgium_reversed', '_Congo_reversed', '_Oman_reversed', '_Cuba_reversed']","['f', 'f', 'm', 'm', 'm', 'm']","['p245', 'p248', 'p318', 'p256', 'p229', 'p307']","[8, 10, 6, 9, 5, 2]","[92.0152836843556, 93.00003341222717, 91.58892582949886, 92.00610777531934, 90.34149293193902, 87.57049330475357]",5.0,False,8.666666666666666,2.943920288775949,3.4997646808624268,0.763171036204744
0,,sub_104,2024-06-27 16:41:11,3,distance,cathedral,numerosity_judgement,3,4,4,countries_reversed,"['_Yemen_reversed', '_Mali_reversed', '_Belgium_reversed', '_Japan_reversed']","['f', 'm', 'm', 'm']","['p245', 'p318', 'p256', 'p229']","[1, 7, 8, 0]","[86.2038576498559, 91.73820004985969, 92.0152836843556, 84.40078082039426]",4.0,True,6.0,4.08248290463863,2.3122754096984863,0.8197366927704006
0,,sub_104,2024-06-27 16:41:14,3,distance,cathedral,numerosity_judgement,3,5,3,countries_reversed,"['_Britain_reversed', '_Cuba_reversed', '_Peru_reversed']","['m', 'm', 'f']","['p229', 'p318', 'p268']","[9, 1, 4]","[92.00610777531934, 86.2038576498559, 89.31368318402099]",3.0,True,6.666666666666667,4.041451884327381,1.8748712539672852,0.904267393031438
0,,sub_104,2024-06-27 16:41:16,3,distance,cathedral,numerosity_judgement,3,6,2,countries_reversed,"['_Oman_reversed', '_Tonga_reversed']","['m', 'f']","['p229', 'p245']","[6, 5]","[91.58892582949886, 90.34149293193902]",2.0,True,7.5,0.7071067811865476,1.4374008178710938,0.6289183974577233
0,,sub_104,2024-06-27 16:41:19,3,distance,cathedral,numerosity_judgement,3,7,4,countries_reversed,"['_Congo_reversed', '_Yemen_reversed', '_Belgium_reversed', '_Britain_reversed']","['m', 'f', 'm', 'm']","['p307', 'p245', 'p318', 'p256']","[1, 6, 5, 10]","[86.2038576498559, 91.58892582949886, 90.34149293193902, 93.00003341222717]",3.0,False,7.5,3.696845502136472,1.6248884201049805,0.7258540460787651
0,,sub_104,2024-06-27 16:41:22,3,distance,cathedral,numerosity_judgement,3,8,5,countries_reversed,"['_Japan_reversed', '_Congo_reversed', '_Oman_reversed', '_Peru_reversed', '_Tonga_reversed']","['m', 'f', 'f', 'f', 'm']","['p256', 'p268', 'p284', 'p248', 'p229']","[9, 1, 4, 5, 6]","[92.00610777531934, 86.2038576498559, 89.31368318402099, 90.34149293193902, 91.58892582949886]",4.0,False,7.0,2.9154759474226504,1.5623936653137207,0.8400862558165929
0,,sub_104,2024-06-27 16:41:26,3,distance,cathedral,numerosity_judgement,3,9,6,countries_reversed,"['_Britain_reversed', '_Peru_reversed', '_Mali_reversed', '_Japan_reversed', '_Belgium_reversed', '_Congo_reversed']","['f', 'm', 'm', 'f', 'm', 'f']","['p284', 'p318', 'p229', 'p268', 'p307', 'p248']","[8, 2, 6, 10, 3, 4]","[92.0152836843556, 87.57049330475357, 91.58892582949886, 93.00003341222717, 89.14911522239515, 89.31368318402099]",6.0,True,7.5,3.082207001484488,1.9373657703399658,0.9068550675292248
0,,sub_104,2024-06-27 16:41:29,3,distance,cathedral,numerosity_judgement,3,10,3,countries_reversed,"['_Britain_reversed', '_Sudan_reversed', '_Syria_reversed']","['m', 'f', 'm']","['p318', 'p248', 'p229']","[9, 1, 8]","[92.00610777531934, 86.2038576498559, 92.0152836843556]",2.0,False,8.0,4.358898943540674,2.187350034713745,0.9242197253433208
0,,sub_104,2024-06-27 16:41:32,3,distance,cathedral,numerosity_judgement,3,11,4,countries_reversed,"['_Sudan_reversed', '_Tonga_reversed', '_Mali_reversed', '_Togo_reversed']","['f', 'f', 'm', 'f']","['p268', 'p245', 'p318', 'p284']","[2, 3, 5, 8]","[87.57049330475357, 89.14911522239515, 90.34149293193902, 92.0152836843556]",4.0,True,6.5,2.6457513110645907,1.6873836517333984,0.8546702984905232
0,,sub_104,2024-06-27 16:41:35,3,distance,cathedral,numerosity_judgement,3,12,6,countries_reversed,"['_Yemen_reversed', '_Congo_reversed', '_Tonga_reversed', '_Togo_reversed', '_Britain_reversed', '_Syria_reversed']","['m', 'm', 'f', 'f', 'f', 'm']","['p307', 'p256', 'p245', 'p268', 'p284', 'p318']","[5, 8, 6, 4, 10, 1]","[90.34149293193902, 92.0152836843556, 91.58892582949886, 89.31368318402099, 93.00003341222717, 86.2038576498559]",6.0,True,7.666666666666667,3.141125063837266,2.1248538494110107,0.7191578708432641
0,,sub_104,2024-06-27 16:41:38,3,distance,cathedral,numerosity_judgement,3,13,2,countries_reversed,"['_Peru_reversed', '_Syria_reversed']","['m', 'f']","['p256', 'p268']","[3, 6]","[89.14911522239515, 91.58892582949886]",2.0,True,6.5,2.1213203435596424,1.49989652633667,0.8585177618885484
0,,sub_104,2024-06-27 16:41:41,3,distance,cathedral,numerosity_judgement,3,14,5,countries_reversed,"['_Britain_reversed', '_Togo_reversed', '_Oman_reversed', '_Cuba_reversed', '_Syria_reversed']","['m', 'm', 'm', 'f', 'f']","['p256', 'p229', 'p307', 'p268', 'p248']","[0, 1, 9, 6, 2]","[84.40078082039426, 86.2038576498559, 92.00610777531934, 91.58892582949886, 87.57049330475357]",4.0,False,5.6,3.7815340802378072,1.5623893737792969,0.6839859266825559
0,,sub_104,2024-06-27 16:41:44,3,distance,cathedral,numerosity_judgement,3,15,6,countries_reversed,"['_Tonga_reversed', '_Peru_reversed', '_Congo_reversed', '_Belgium_reversed', '_Cuba_reversed', '_Togo_reversed']","['f', 'm', 'f', 'm', 'f', 'f']","['p268', 'p318', 'p245', 'p256', 'p248', 'p284']","[10, 5, 4, 3, 8, 9]","[93.00003341222717, 90.34149293193902, 89.31368318402099, 89.14911522239515, 92.0152836843556, 92.00610777531934]",5.0,False,8.5,2.8809720581775866,1.6248867511749268,0.7926342072409488
0,,sub_104,2024-06-27 16:41:47,3,distance,cathedral,numerosity_judgement,3,16,3,countries_reversed,"['_Japan_reversed', '_Oman_reversed', '_Congo_reversed']","['f', 'f', 'm']","['p248', 'p245', 'p318']","[10, 0, 5]","[93.00003341222717, 84.40078082039426, 90.34149293193902]",3.0,True,7.0,5.0,2.1873490810394287,0.8342412892974691
0,,sub_104,2024-06-27 16:41:50,3,distance,cathedral,numerosity_judgement,3,17,5,countries_reversed,"['_Japan_reversed', '_Cuba_reversed', '_Sudan_reversed', '_Togo_reversed', '_Oman_reversed']","['f', 'f', 'm', 'm', 'm']","['p284', 'p245', 'p318', 'p307', 'p256']","[2, 0, 4, 7, 10]","[87.57049330475357, 84.40078082039426, 89.31368318402099, 91.73820004985969, 93.00003341222717]",4.0,False,6.6,3.9749213828703582,1.7498812675476074,0.7196685960730904
0,,sub_104,2024-06-27 16:41:54,3,distance,cathedral,numerosity_judgement,3,18,4,countries_reversed,"['_Peru_reversed', '_Yemen_reversed', '_Cuba_reversed', '_Britain_reversed']","['m', 'f', 'm', 'f']","['p318', 'p248', 'p307', 'p284']","[5, 4, 7, 0]","[90.34149293193902, 89.31368318402099, 91.73820004985969, 84.40078082039426]",3.0,False,6.0,2.943920288775949,1.9998698234558105,0.6810123709000113
0,,sub_104,2024-06-27 16:41:56,3,distance,cathedral,numerosity_judgement,3,19,2,countries_reversed,"['_Britain_reversed', '_Syria_reversed']","['f', 'm']","['p268', 'p256']","[5, 2]","[90.34149293193902, 87.57049330475357]",2.0,True,5.5,2.1213203435596424,1.3749055862426758,0.8689933038247645
0,,sub_104,2024-06-27 16:42:00,3,distance,cathedral,numerosity_judgement,3,20,6,countries_reversed,"['_Mali_reversed', '_Cuba_reversed', '_Peru_reversed', '_Oman_reversed', '_Syria_reversed', '_Yemen_reversed']","['f', 'm', 'f', 'm', 'f', 'f']","['p284', 'p307', 'p268', 'p229', 'p248', 'p245']","[4, 7, 10, 6, 9, 0]","[89.31368318402099, 91.73820004985969, 93.00003341222717, 91.58892582949886, 92.00610777531934, 84.40078082039426]",5.0,False,8.0,3.63318042491699,1.9998538494110107,0.6868346385200318
0,,sub_104,2024-06-27 16:42:03,3,distance,cathedral,numerosity_judgement,3,21,3,countries_reversed,"['_Belgium_reversed', '_Mali_reversed', '_Cuba_reversed']","['f', 'm', 'f']","['p284', 'p307', 'p248']","[4, 10, 8]","[89.31368318402099, 93.00003341222717, 92.0152836843556]",3.0,True,9.333333333333334,3.055050463303893,2.31234073638916,0.7116445352400409
0,,sub_104,2024-06-27 16:42:06,3,distance,cathedral,numerosity_judgement,3,22,2,countries_reversed,"['_Togo_reversed', '_Japan_reversed']","['f', 'm']","['p248', 'p256']","[3, 7]","[89.14911522239515, 91.73820004985969]",4.0,False,7.0,2.8284271247461903,1.6873829364776611,0.7529224832595619
0,,sub_104,2024-06-27 16:42:10,3,distance,cathedral,numerosity_judgement,3,23,5,countries_reversed,"['_Cuba_reversed', '_Tonga_reversed', '_Syria_reversed', '_Japan_reversed', '_Yemen_reversed']","['m', 'f', 'm', 'f', 'm']","['p307', 'p245', 'p229', 'p268', 'p256']","[8, 6, 10, 4, 3]","[92.0152836843556, 91.58892582949886, 93.00003341222717, 89.31368318402099, 89.14911522239515]",5.0,True,8.2,2.8635642126552705,2.187349557876587,0.788548405402338
0,,sub_104,2024-06-27 16:42:13,3,distance,cathedral,numerosity_judgement,3,24,4,countries_reversed,"['_Cuba_reversed', '_Japan_reversed', '_Yemen_reversed', '_Syria_reversed']","['f', 'f', 'm', 'f']","['p268', 'p248', 'p229', 'p245']","[10, 5, 3, 9]","[93.00003341222717, 90.34149293193902, 89.14911522239515, 92.00610777531934]",4.0,True,8.75,3.304037933599835,2.1248531341552734,0.7997616615594144
0,,sub_104,2024-06-27 16:42:17,3,distance,cathedral,numerosity_judgement,3,25,6,countries_reversed,"['_Oman_reversed', '_Syria_reversed', '_Belgium_reversed', '_Yemen_reversed', '_Peru_reversed', '_Congo_reversed']","['f', 'm', 'f', 'f', 'm', 'm']","['p248', 'p318', 'p245', 'p268', 'p229', 'p256']","[2, 1, 0, 3, 9, 8]","[87.57049330475357, 86.2038576498559, 84.40078082039426, 89.14911522239515, 92.00610777531934, 92.0152836843556]",5.0,False,5.833333333333333,3.763863263545405,2.8748013973236084,0.8712177959368971
0,,sub_104,2024-06-27 16:42:21,3,distance,cathedral,numerosity_judgement,3,26,4,countries_reversed,"['_Oman_reversed', '_Yemen_reversed', '_Britain_reversed', '_Mali_reversed']","['m', 'm', 'm', 'm']","['p229', 'p318', 'p307', 'p256']","[5, 7, 9, 6]","[90.34149293193902, 91.73820004985969, 92.00610777531934, 91.58892582949886]",3.0,False,8.75,1.707825127659933,2.0623579025268555,0.6135966405629327
0,,sub_104,2024-06-27 16:42:25,3,distance,cathedral,numerosity_judgement,3,27,3,countries_reversed,"['_Cuba_reversed', '_Yemen_reversed', '_Japan_reversed']","['f', 'f', 'f']","['p245', 'p268', 'p284']","[6, 2, 1]","[91.58892582949886, 87.57049330475357, 86.2038576498559]",3.0,True,5.0,2.6457513110645907,2.9372713565826416,0.8134490977187606
0,,sub_104,2024-06-27 16:42:28,3,distance,cathedral,numerosity_judgement,3,28,2,countries_reversed,"['_Cuba_reversed', '_Britain_reversed']","['f', 'm']","['p248', 'p256']","[8, 10]","[92.0152836843556, 93.00003341222717]",2.0,True,11.0,1.4142135623730951,1.562392234802246,0.5812280104414936
0,,sub_104,2024-06-27 16:42:31,3,distance,cathedral,numerosity_judgement,3,29,5,countries_reversed,"['_Mali_reversed', '_Oman_reversed', '_Britain_reversed', '_Peru_reversed', '_Yemen_reversed']","['f', 'm', 'm', 'm', 'f']","['p268', 'p256', 'p318', 'p307', 'p245']","[1, 6, 10, 9, 5]","[86.2038576498559, 91.58892582949886, 93.00003341222717, 92.00610777531934, 90.34149293193902]",4.0,False,8.2,3.5637059362410923,1.6248643398284912,0.6607536034502327
0,,sub_104,2024-06-27 16:42:34,3,distance,cathedral,numerosity_judgement,3,30,4,countries_reversed,"['_Tonga_reversed', '_Mali_reversed', '_Belgium_reversed', '_Britain_reversed']","['m', 'f', 'f', 'm']","['p256', 'p268', 'p245', 'p318']","[7, 4, 8, 0]","[91.73820004985969, 89.31368318402099, 92.0152836843556, 84.40078082039426]",4.0,True,6.75,3.593976442141304,1.624913215637207,0.9223357167177392
0,,sub_104,2024-06-27 16:42:36,3,distance,cathedral,numerosity_judgement,3,31,2,countries_reversed,"['_Tonga_reversed', '_Peru_reversed']","['f', 'm']","['p284', 'p318']","[4, 7]","[89.31368318402099, 91.73820004985969]",2.0,True,7.5,2.1213203435596424,1.624887228012085,0.7735784814436499
0,,sub_104,2024-06-27 16:42:39,3,distance,cathedral,numerosity_judgement,3,32,3,countries_reversed,"['_Oman_reversed', '_Yemen_reversed', '_Cuba_reversed']","['f', 'm', 'f']","['p284', 'p307', 'p268']","[9, 7, 3]","[92.00610777531934, 91.73820004985969, 89.14911522239515]",3.0,True,8.333333333333334,3.055050463303893,1.6248884201049805,0.5765633866757462
0,,sub_104,2024-06-27 16:42:44,3,distance,cathedral,numerosity_judgement,3,33,6,countries_reversed,"['_Syria_reversed', '_Yemen_reversed', '_Togo_reversed', '_Oman_reversed', '_Belgium_reversed', '_Tonga_reversed']","['m', 'm', 'f', 'm', 'f', 'f']","['p229', 'p307', 'p268', 'p318', 'p245', 'p284']","[3, 1, 5, 6, 10, 4]","[89.14911522239515, 86.2038576498559, 90.34149293193902, 91.58892582949886, 93.00003341222717, 89.31368318402099]",6.0,True,6.833333333333333,3.0605010483034745,2.99979305267334,0.9029735557825446
0,,sub_104,2024-06-27 16:42:47,3,distance,cathedral,numerosity_judgement,3,34,5,countries_reversed,"['_Tonga_reversed', '_Togo_reversed', '_Syria_reversed', '_Yemen_reversed', '_Oman_reversed']","['f', 'm', 'm', 'f', 'm']","['p245', 'p256', 'p318', 'p248', 'p307']","[4, 9, 2, 5, 1]","[89.31368318402099, 92.00610777531934, 87.57049330475357, 90.34149293193902, 86.2038576498559]",5.0,True,6.2,3.1144823004794877,1.624859094619751,0.7037793667007151
0,,sub_104,2024-06-27 16:42:51,3,distance,cathedral,numerosity_judgement,3,35,4,countries_reversed,"['_Yemen_reversed', '_Mali_reversed', '_Togo_reversed', '_Japan_reversed']","['m', 'm', 'f', 'm']","['p307', 'p318', 'p268', 'p256']","[2, 3, 9, 1]","[87.57049330475357, 89.14911522239515, 92.00610777531934, 86.2038576498559]",4.0,True,5.75,3.593976442141304,2.874800205230713,0.9411758029735556
0,,sub_104,2024-06-27 16:42:53,3,distance,cathedral,numerosity_judgement,3,36,2,countries_reversed,"['_Congo_reversed', '_Peru_reversed']","['m', 'm']","['p256', 'p307']","[7, 2]","[91.73820004985969, 87.57049330475357]",2.0,True,6.5,3.5355339059327378,1.5623924732208252,0.7114402451481103
0,,sub_104,2024-06-27 16:42:57,3,distance,cathedral,numerosity_judgement,3,37,5,countries_reversed,"['_Mali_reversed', '_Japan_reversed', '_Britain_reversed', '_Togo_reversed', '_Sudan_reversed']","['f', 'm', 'f', 'm', 'f']","['p284', 'p318', 'p245', 'p307', 'p268']","[10, 3, 0, 9, 1]","[93.00003341222717, 89.14911522239515, 84.40078082039426, 92.00610777531934, 86.2038576498559]",3.0,False,6.6,4.61519230368573,2.12485408782959,0.9521166723413914
0,,sub_104,2024-06-27 16:43:00,3,distance,cathedral,numerosity_judgement,3,38,3,countries_reversed,"['_Peru_reversed', '_Cuba_reversed', '_Mali_reversed']","['f', 'f', 'm']","['p248', 'p268', 'p307']","[1, 4, 2]","[86.2038576498559, 89.31368318402099, 87.57049330475357]",2.0,False,4.333333333333333,1.5275252316519465,1.5623915195465088,0.877766428328226
0,,sub_104,2024-06-27 16:43:03,3,distance,cathedral,numerosity_judgement,3,39,6,countries_reversed,"['_Congo_reversed', '_Peru_reversed', '_Tonga_reversed', '_Cuba_reversed', '_Oman_reversed', '_Britain_reversed']","['f', 'f', 'm', 'm', 'm', 'f']","['p284', 'p268', 'p256', 'p307', 'p318', 'p245']","[6, 10, 4, 7, 8, 0]","[91.58892582949886, 93.00003341222717, 89.31368318402099, 91.73820004985969, 92.0152836843556, 84.40078082039426]",4.0,False,7.833333333333333,3.488074922742725,1.4998393058776855,0.7310066961752355
0,,sub_104,2024-06-27 16:43:05,3,distance,cathedral,numerosity_judgement,3,40,2,countries_reversed,"['_Togo_reversed', '_Cuba_reversed']","['f', 'm']","['p248', 'p307']","[4, 7]","[89.31368318402099, 91.73820004985969]",2.0,True,7.5,2.1213203435596424,1.4998972415924072,0.65785949381455
0,,sub_104,2024-06-27 16:43:08,3,distance,cathedral,numerosity_judgement,3,41,5,countries_reversed,"['_Syria_reversed', '_Tonga_reversed', '_Japan_reversed', '_Togo_reversed', '_Cuba_reversed']","['m', 'f', 'f', 'm', 'f']","['p307', 'p268', 'p284', 'p318', 'p248']","[5, 0, 8, 3, 6]","[90.34149293193902, 84.40078082039426, 92.0152836843556, 89.14911522239515, 91.58892582949886]",5.0,True,6.4,3.0495901363953815,1.4374034404754639,0.94086936783566
0,,sub_104,2024-06-27 16:43:12,3,distance,cathedral,numerosity_judgement,3,42,4,countries_reversed,"['_Britain_reversed', '_Peru_reversed', '_Oman_reversed', '_Syria_reversed']","['m', 'f', 'm', 'm']","['p318', 'p245', 'p229', 'p256']","[6, 9, 7, 5]","[91.58892582949886, 92.00610777531934, 91.73820004985969, 90.34149293193902]",4.0,True,8.75,1.707825127659933,2.249840497970581,0.6560549313358303
0,,sub_104,2024-06-27 16:43:15,3,distance,cathedral,numerosity_judgement,3,43,6,countries_reversed,"['_Peru_reversed', '_Syria_reversed', '_Tonga_reversed', '_Togo_reversed', '_Britain_reversed', '_Yemen_reversed']","['f', 'm', 'f', 'm', 'm', 'f']","['p245', 'p256', 'p284', 'p318', 'p229', 'p248']","[6, 0, 1, 3, 9, 5]","[91.58892582949886, 84.40078082039426, 86.2038576498559, 89.14911522239515, 92.00610777531934, 90.34149293193902]",3.0,False,6.0,3.3466401061363023,2.0623581409454346,0.846521393712405
0,,sub_104,2024-06-27 16:43:18,3,distance,cathedral,numerosity_judgement,3,44,3,countries_reversed,"['_Cuba_reversed', '_Britain_reversed', '_Yemen_reversed']","['f', 'm', 'f']","['p245', 'p318', 'p268']","[7, 0, 9]","[91.73820004985969, 84.40078082039426, 92.00610777531934]",3.0,True,7.333333333333333,4.725815626252608,1.8123490810394287,0.6158778799228237
0,,sub_104,2024-06-27 16:43:21,3,distance,cathedral,numerosity_judgement,3,45,5,countries_reversed,"['_Cuba_reversed', '_Japan_reversed', '_Congo_reversed', '_Togo_reversed', '_Belgium_reversed']","['f', 'f', 'm', 'f', 'f']","['p268', 'p284', 'p318', 'p245', 'p248']","[10, 0, 6, 7, 4]","[93.00003341222717, 84.40078082039426, 91.58892582949886, 91.73820004985969, 89.31368318402099]",4.0,False,7.4,3.714835124201342,1.874870777130127,0.8718647145613437
0,,sub_104,2024-06-27 16:43:25,3,distance,cathedral,numerosity_judgement,3,46,4,countries_reversed,"['_Syria_reversed', '_Britain_reversed', '_Yemen_reversed', '_Cuba_reversed']","['m', 'm', 'f', 'f']","['p256', 'p229', 'p284', 'p268']","[10, 6, 2, 4]","[93.00003341222717, 91.58892582949886, 87.57049330475357, 89.31368318402099]",4.0,True,7.5,3.415650255319866,2.7498111724853516,0.7654295766655317
0,,sub_104,2024-06-27 16:43:28,3,distance,cathedral,numerosity_judgement,3,47,2,countries_reversed,"['_Congo_reversed', '_Mali_reversed']","['f', 'm']","['p268', 'p229']","[5, 6]","[90.34149293193902, 91.58892582949886]",2.0,True,7.5,0.7071067811865476,1.3749046325683594,0.818976279650437
0,,sub_104,2024-06-27 16:43:31,3,distance,cathedral,numerosity_judgement,3,48,3,countries_reversed,"['_Oman_reversed', '_Yemen_reversed', '_Congo_reversed']","['f', 'f', 'f']","['p245', 'p284', 'p268']","[5, 7, 10]","[90.34149293193902, 91.73820004985969, 93.00003341222717]",3.0,True,9.333333333333334,2.516611478423583,1.6248841285705566,0.70127113834979
0,,sub_104,2024-06-27 16:43:36,3,distance,cathedral,numerosity_judgement,3,49,6,countries_reversed,"['_Peru_reversed', '_Syria_reversed', '_Sudan_reversed', '_Yemen_reversed', '_Mali_reversed', '_Cuba_reversed']","['m', 'f', 'm', 'f', 'm', 'm']","['p229', 'p248', 'p256', 'p245', 'p318', 'p307']","[3, 1, 5, 4, 8, 2]","[89.14911522239515, 86.2038576498559, 90.34149293193902, 89.31368318402099, 92.0152836843556, 87.57049330475357]",5.0,False,5.833333333333333,2.48327740429189,3.5622496604919434,0.8140846668936557
0,,sub_104,2024-06-27 16:43:40,3,distance,cathedral,numerosity_judgement,3,50,5,countries_reversed,"['_Congo_reversed', '_Syria_reversed', '_Yemen_reversed', '_Tonga_reversed', '_Peru_reversed']","['m', 'f', 'f', 'f', 'm']","['p256', 'p268', 'p284', 'p248', 'p318']","[2, 6, 9, 10, 7]","[87.57049330475357, 91.58892582949886, 92.00610777531934, 93.00003341222717, 91.73820004985969]",5.0,True,8.8,3.1144823004794873,3.2497763633728027,0.8001248439450687
0,,sub_104,2024-06-27 16:43:44,3,distance,cathedral,numerosity_judgement,3,51,4,countries_reversed,"['_Belgium_reversed', '_Britain_reversed', '_Yemen_reversed', '_Oman_reversed']","['f', 'm', 'f', 'f']","['p268', 'p318', 'p245', 'p284']","[9, 5, 0, 10]","[92.00610777531934, 90.34149293193902, 84.40078082039426, 93.00003341222717]",5.0,False,8.0,4.546060565661952,2.312366247177124,0.8895698558619907
0,,sub_104,2024-06-27 16:43:48,3,distance,cathedral,numerosity_judgement,3,52,6,countries_reversed,"['_Cuba_reversed', '_Mali_reversed', '_Japan_reversed', '_Congo_reversed', '_Oman_reversed', '_Tonga_reversed']","['f', 'f', 'm', 'm', 'm', 'm']","['p284', 'p248', 'p307', 'p256', 'p229', 'p318']","[4, 6, 3, 8, 2, 10]","[89.31368318402099, 91.58892582949886, 89.14911522239515, 92.0152836843556, 87.57049330475357, 93.00003341222717]",6.0,True,7.5,3.082207001484488,2.62481951713562,0.7829644762229032
0,,sub_104,2024-06-27 16:43:50,3,distance,cathedral,numerosity_judgement,3,53,2,countries_reversed,"['_Belgium_reversed', '_Peru_reversed']","['f', 'f']","['p268', 'p248']","[10, 6]","[93.00003341222717, 91.58892582949886]",2.0,True,10.0,2.8284271247461903,1.5623927116394043,0.9279650436953808
0,,sub_104,2024-06-27 16:43:54,3,distance,cathedral,numerosity_judgement,3,54,3,countries_reversed,"['_Tonga_reversed', '_Peru_reversed', '_Oman_reversed']","['m', 'f', 'f']","['p307', 'p248', 'p245']","[7, 5, 10]","[91.73820004985969, 90.34149293193902, 93.00003341222717]",3.0,True,9.333333333333334,2.516611478423583,1.8748669624328613,0.7409374645329702
0,,sub_104,2024-06-27 16:43:57,3,distance,cathedral,numerosity_judgement,3,55,6,countries_reversed,"['_Belgium_reversed', '_Yemen_reversed', '_Cuba_reversed', '_Tonga_reversed', '_Peru_reversed', '_Oman_reversed']","['f', 'm', 'm', 'f', 'm', 'm']","['p268', 'p318', 'p229', 'p245', 'p307', 'p256']","[5, 0, 3, 7, 1, 10]","[90.34149293193902, 84.40078082039426, 89.14911522239515, 91.73820004985969, 86.2038576498559, 93.00003341222717]",4.0,False,6.333333333333333,3.777124126457412,2.0623581409454346,0.6814890477811826
0,,sub_104,2024-06-27 16:44:00,3,distance,cathedral,numerosity_judgement,3,56,4,countries_reversed,"['_Belgium_reversed', '_Togo_reversed', '_Oman_reversed', '_Yemen_reversed']","['m', 'm', 'm', 'f']","['p307', 'p318', 'p256', 'p245']","[3, 4, 7, 0]","[89.14911522239515, 89.31368318402099, 91.73820004985969, 84.40078082039426]",3.0,False,5.5,2.886751345948129,1.874870777130127,0.7042106457836795
0,,sub_104,2024-06-27 16:44:03,3,distance,cathedral,numerosity_judgement,3,57,2,countries_reversed,"['_Syria_reversed', '_Belgium_reversed']","['f', 'm']","['p284', 'p307']","[6, 8]","[91.58892582949886, 92.0152836843556]",2.0,True,9.0,1.4142135623730951,1.6873831748962402,0.9230847803881512
0,,sub_104,2024-06-27 16:44:06,3,distance,cathedral,numerosity_judgement,3,58,3,countries_reversed,"['_Tonga_reversed', '_Oman_reversed', '_Syria_reversed']","['f', 'm', 'f']","['p284', 'p318', 'p268']","[7, 0, 8]","[91.73820004985969, 84.40078082039426, 92.0152836843556]",3.0,True,7.0,4.358898943540674,1.4998960494995117,0.9488593803200543
0,,sub_104,2024-06-27 16:44:09,3,distance,cathedral,numerosity_judgement,3,59,5,countries_reversed,"['_Mali_reversed', '_Peru_reversed', '_Japan_reversed', '_Oman_reversed', '_Belgium_reversed']","['f', 'm', 'f', 'f', 'm']","['p248', 'p307', 'p268', 'p245', 'p229']","[0, 2, 9, 6, 1]","[84.40078082039426, 87.57049330475357, 92.00610777531934, 91.58892582949886, 86.2038576498559]",4.0,False,5.6,3.7815340802378072,1.8123753070831299,0.7349903529678811
0,,sub_104,2024-06-27 16:44:12,3,distance,cathedral,numerosity_judgement,3,60,6,countries_reversed,"['_Cuba_reversed', '_Belgium_reversed', '_Britain_reversed', '_Togo_reversed', '_Peru_reversed', '_Oman_reversed']","['m', 'm', 'f', 'f', 'f', 'm']","['p229', 'p307', 'p248', 'p245', 'p284', 'p318']","[1, 4, 3, 8, 10, 0]","[86.2038576498559, 89.31368318402099, 89.14911522239515, 92.0152836843556, 93.00003341222717, 84.40078082039426]",5.0,False,6.333333333333333,3.9327683210007,1.687382698059082,0.9512200658268074
0,,sub_104,2024-06-27 16:44:17,3,distance,cathedral,numerosity_judgement,3,61,5,countries_reversed,"['_Belgium_reversed', '_Mali_reversed', '_Britain_reversed', '_Tonga_reversed', '_Togo_reversed']","['f', 'm', 'm', 'f', 'm']","['p268', 'p307', 'p229', 'p284', 'p318']","[1, 4, 0, 3, 9]","[86.2038576498559, 89.31368318402099, 84.40078082039426, 89.14911522239515, 92.00610777531934]",5.0,True,5.4,3.5071355833500366,3.5622544288635254,0.9210078311201908
0,,sub_104,2024-06-27 16:44:20,3,distance,cathedral,numerosity_judgement,3,62,3,countries_reversed,"['_Syria_reversed', '_Cuba_reversed', '_Britain_reversed']","['f', 'f', 'f']","['p284', 'p248', 'p268']","[5, 4, 7]","[90.34149293193902, 89.31368318402099, 91.73820004985969]",4.0,False,7.333333333333333,1.5275252316519465,2.312340497970581,0.8498921802292588
0,,sub_104,2024-06-27 16:44:25,3,distance,cathedral,numerosity_judgement,3,63,2,countries_reversed,"['_Oman_reversed', '_Tonga_reversed']","['f', 'm']","['p245', 'p256']","[6, 4]","[91.58892582949886, 89.31368318402099]",2.0,True,7.0,1.4142135623730951,2.9997265338897705,0.6078084212915673
0,,sub_104,2024-06-27 16:44:29,3,distance,cathedral,numerosity_judgement,3,64,4,countries_reversed,"['_Syria_reversed', '_Oman_reversed', '_Japan_reversed', '_Congo_reversed']","['m', 'm', 'm', 'f']","['p256', 'p229', 'p307', 'p284']","[3, 2, 9, 5]","[89.14911522239515, 87.57049330475357, 92.00610777531934, 90.34149293193902]",6.0,False,6.75,3.095695936834452,2.8123059272766113,0.8372715923277722
0,,sub_104,2024-06-27 16:44:33,3,distance,cathedral,numerosity_judgement,3,65,6,countries_reversed,"['_Sudan_reversed', '_Cuba_reversed', '_Syria_reversed', '_Japan_reversed', '_Tonga_reversed', '_Yemen_reversed']","['m', 'm', 'f', 'f', 'f', 'm']","['p318', 'p307', 'p248', 'p284', 'p245', 'p229']","[7, 8, 4, 1, 2, 9]","[91.73820004985969, 92.0152836843556, 89.31368318402099, 86.2038576498559, 87.57049330475357, 92.00610777531934]",6.0,True,7.166666666666667,3.3115957885386114,2.749809980392456,0.8310293950743389
0,,sub_104,2024-06-27 16:44:36,3,distance,cathedral,numerosity_judgement,3,66,4,countries_reversed,"['_Tonga_reversed', '_Congo_reversed', '_Cuba_reversed', '_Yemen_reversed']","['m', 'm', 'f', 'm']","['p307', 'p229', 'p245', 'p256']","[1, 4, 0, 6]","[86.2038576498559, 89.31368318402099, 84.40078082039426, 91.58892582949886]",3.0,False,4.75,2.753785273643051,1.8748705387115479,0.7427760753603451
0,,sub_104,2024-06-27 16:44:39,3,distance,cathedral,numerosity_judgement,3,67,5,countries_reversed,"['_Belgium_reversed', '_Japan_reversed', '_Mali_reversed', '_Cuba_reversed', '_Congo_reversed']","['f', 'f', 'f', 'm', 'm']","['p284', 'p268', 'p248', 'p307', 'p229']","[5, 7, 3, 8, 1]","[90.34149293193902, 91.73820004985969, 89.14911522239515, 92.0152836843556, 86.2038576498559]",5.0,True,6.8,2.863564212655271,2.2498457431793213,0.8605266144591988
0,,sub_104,2024-06-27 16:44:42,3,distance,cathedral,numerosity_judgement,3,68,2,countries_reversed,"['_Sudan_reversed', '_Belgium_reversed']","['m', 'f']","['p229', 'p245']","[0, 4]","[84.40078082039426, 89.31368318402099]",2.0,True,4.0,2.8284271247461903,1.3749053478240967,0.9607309045511292
0,,sub_104,2024-06-27 16:44:46,3,distance,cathedral,numerosity_judgement,3,69,3,countries_reversed,"['_Tonga_reversed', '_Yemen_reversed', '_Japan_reversed']","['f', 'm', 'm']","['p245', 'p307', 'p256']","[7, 8, 5]","[91.73820004985969, 92.0152836843556, 90.34149293193902]",4.0,False,8.666666666666666,1.5275252316519468,2.624819040298462,0.6445919872886166
0,,sub_104,2024-06-27 16:44:49,3,distance,cathedral,numerosity_judgement,3,70,2,countries_reversed,"['_Yemen_reversed', '_Congo_reversed']","['f', 'm']","['p268', 'p256']","[6, 0]","[91.58892582949886, 84.40078082039426]",2.0,True,5.0,4.242640687119285,2.1248533725738525,0.8097151288162524
0,,sub_104,2024-06-27 16:44:52,3,distance,cathedral,numerosity_judgement,3,71,5,countries_reversed,"['_Togo_reversed', '_Sudan_reversed', '_Peru_reversed', '_Yemen_reversed', '_Congo_reversed']","['f', 'f', 'f', 'm', 'm']","['p284', 'p268', 'p248', 'p229', 'p256']","[2, 3, 4, 9, 5]","[87.57049330475357, 89.14911522239515, 89.31368318402099, 92.00610777531934, 90.34149293193902]",3.0,False,6.6,2.701851217221259,1.8123748302459717,0.89745772330042
0,,sub_104,2024-06-27 16:44:56,3,distance,cathedral,numerosity_judgement,3,72,6,countries_reversed,"['_Congo_reversed', '_Britain_reversed', '_Japan_reversed', '_Togo_reversed', '_Tonga_reversed', '_Syria_reversed']","['m', 'f', 'm', 'm', 'f', 'f']","['p318', 'p284', 'p307', 'p229', 'p245', 'p248']","[9, 7, 1, 3, 0, 6]","[92.00610777531934, 91.73820004985969, 86.2038576498559, 89.14911522239515, 84.40078082039426, 91.58892582949886]",5.0,False,6.333333333333333,3.559026084010437,2.437330961227417,0.9460447168312336
0,,sub_104,2024-06-27 16:45:01,3,distance,cathedral,numerosity_judgement,3,73,4,countries_reversed,"['_Peru_reversed', '_Japan_reversed', '_Cuba_reversed', '_Sudan_reversed']","['f', 'm', 'f', 'f']","['p245', 'p256', 'p248', 'p284']","[4, 0, 1, 7]","[89.31368318402099, 84.40078082039426, 86.2038576498559, 91.73820004985969]",4.0,True,5.0,3.1622776601683795,3.3122718334198,0.9513903075700828
0,,sub_104,2024-06-27 16:45:06,3,distance,cathedral,numerosity_judgement,3,74,3,countries_reversed,"['_Belgium_reversed', '_Cuba_reversed', '_Peru_reversed']","['m', 'm', 'f']","['p256', 'p307', 'p245']","[6, 7, 5]","[91.58892582949886, 91.73820004985969, 90.34149293193902]",3.0,True,8.0,1.0,4.001244306564331,0.6636704119850187
0,,sub_104,2024-06-27 16:45:52,3,distance,cathedral,numerosity_judgement,4,0,6,countries_reversed,"['_Yemen_reversed', '_Togo_reversed', '_Cuba_reversed', '_Japan_reversed', '_Oman_reversed', '_Peru_reversed']","['m', 'm', 'm', 'f', 'm', 'f']","['p229', 'p307', 'p256', 'p284', 'p318', 'p248']","[0, 2, 5, 4, 1, 8]","[84.40078082039426, 87.57049330475357, 90.34149293193902, 89.31368318402099, 86.2038576498559, 92.0152836843556]",5.0,False,5.333333333333333,2.943920288775949,3.999725103378296,0.937986607649529
0,,sub_104,2024-06-27 16:45:57,3,distance,cathedral,numerosity_judgement,4,1,5,countries_reversed,"['_Togo_reversed', '_Tonga_reversed', '_Syria_reversed', '_Yemen_reversed', '_Peru_reversed']","['m', 'f', 'm', 'm', 'f']","['p307', 'p245', 'p256', 'p318', 'p284']","[5, 3, 8, 2, 7]","[90.34149293193902, 89.14911522239515, 92.0152836843556, 87.57049330475357, 91.73820004985969]",5.0,True,7.0,2.5495097567963922,4.062192440032959,0.675485188968335
0,,sub_104,2024-06-27 16:46:01,3,distance,cathedral,numerosity_judgement,4,2,4,countries_reversed,"['_Mali_reversed', '_Syria_reversed', '_Belgium_reversed', '_Cuba_reversed']","['f', 'm', 'f', 'm']","['p268', 'p256', 'p245', 'p229']","[7, 2, 5, 6]","[91.73820004985969, 87.57049330475357, 90.34149293193902, 91.58892582949886]",4.0,True,7.0,2.160246899469287,2.4998273849487305,0.8455566905005107
0,,sub_104,2024-06-27 16:46:04,3,distance,cathedral,numerosity_judgement,4,3,3,countries_reversed,"['_Oman_reversed', '_Peru_reversed', '_Cuba_reversed']","['f', 'f', 'm']","['p284', 'p248', 'p307']","[6, 10, 7]","[91.58892582949886, 93.00003341222717, 91.73820004985969]",3.0,True,9.666666666666666,2.0816659994661326,2.1248531341552734,0.6376234252638747
0,,sub_104,2024-06-27 16:46:07,3,distance,cathedral,numerosity_judgement,4,4,2,countries_reversed,"['_Yemen_reversed', '_Oman_reversed']","['f', 'f']","['p268', 'p248']","[6, 4]","[91.58892582949886, 89.31368318402099]",2.0,True,7.0,1.4142135623730951,1.3124635219573975,0.6817273862217682
0,,sub_104,2024-06-27 16:46:10,3,distance,cathedral,numerosity_judgement,4,5,3,countries_reversed,"['_Oman_reversed', '_Yemen_reversed', '_Peru_reversed']","['m', 'm', 'm']","['p229', 'p318', 'p256']","[6, 5, 1]","[91.58892582949886, 90.34149293193902, 86.2038576498559]",2.0,False,6.0,2.6457513110645907,2.124854326248169,0.6271819316763138
0,,sub_104,2024-06-27 16:46:14,3,distance,cathedral,numerosity_judgement,4,6,4,countries_reversed,"['_Syria_reversed', '_Tonga_reversed', '_Yemen_reversed', '_Britain_reversed']","['m', 'f', 'm', 'm']","['p256', 'p245', 'p307', 'p229']","[8, 3, 4, 2]","[92.0152836843556, 89.14911522239515, 89.31368318402099, 87.57049330475357]",3.0,False,6.25,2.6299556396765835,2.4998276233673096,0.7042673930314379
0,,sub_104,2024-06-27 16:46:19,3,distance,cathedral,numerosity_judgement,4,7,6,countries_reversed,"['_Sudan_reversed', '_Oman_reversed', '_Mali_reversed', '_Britain_reversed', '_Belgium_reversed', '_Peru_reversed']","['m', 'f', 'f', 'm', 'f', 'f']","['p256', 'p245', 'p284', 'p307', 'p268', 'p248']","[0, 6, 3, 2, 4, 5]","[84.40078082039426, 91.58892582949886, 89.14911522239515, 87.57049330475357, 89.31368318402099, 90.34149293193902]",4.0,False,5.333333333333333,2.160246899469287,3.499758720397949,0.814107365792759
0,,sub_104,2024-06-27 16:46:22,3,distance,cathedral,numerosity_judgement,4,8,2,countries_reversed,"['_Togo_reversed', '_Peru_reversed']","['m', 'f']","['p256', 'p245']","[9, 10]","[92.00610777531934, 93.00003341222717]",3.0,False,11.5,0.7071067811865476,1.8748714923858643,0.8297696061741006
0,,sub_104,2024-06-27 16:46:26,3,distance,cathedral,numerosity_judgement,4,9,5,countries_reversed,"['_Yemen_reversed', '_Peru_reversed', '_Japan_reversed', '_Congo_reversed', '_Tonga_reversed']","['f', 'f', 'f', 'm', 'm']","['p284', 'p268', 'p245', 'p229', 'p307']","[3, 5, 2, 6, 7]","[89.14911522239515, 90.34149293193902, 87.57049330475357, 91.58892582949886, 91.73820004985969]",3.0,False,6.6,2.073644135332772,2.8748018741607666,0.8176710929519918
0,,sub_104,2024-06-27 16:46:30,3,distance,cathedral,numerosity_judgement,4,10,3,countries_reversed,"['_Togo_reversed', '_Sudan_reversed', '_Belgium_reversed']","['m', 'f', 'm']","['p318', 'p284', 'p307']","[6, 1, 8]","[91.58892582949886, 86.2038576498559, 92.0152836843556]",3.0,True,7.0,3.605551275463989,2.999793291091919,0.9408466689365566
0,,sub_104,2024-06-27 16:46:35,3,distance,cathedral,numerosity_judgement,4,11,2,countries_reversed,"['_Peru_reversed', '_Cuba_reversed']","['m', 'f']","['p307', 'p245']","[2, 7]","[87.57049330475357, 91.73820004985969]",2.0,True,6.5,3.5355339059327378,3.1247847080230713,0.575076608784474
0,,sub_104,2024-06-27 16:46:39,3,distance,cathedral,numerosity_judgement,4,12,6,countries_reversed,"['_Japan_reversed', '_Tonga_reversed', '_Yemen_reversed', '_Oman_reversed', '_Cuba_reversed', '_Congo_reversed']","['m', 'f', 'f', 'm', 'm', 'f']","['p229', 'p268', 'p248', 'p256', 'p318', 'p245']","[7, 4, 3, 5, 0, 10]","[91.73820004985969, 89.31368318402099, 89.14911522239515, 90.34149293193902, 84.40078082039426, 93.00003341222717]",4.0,False,6.833333333333333,3.4302575219167823,2.8123056888580322,0.9235160594711156
0,,sub_104,2024-06-27 16:46:42,3,distance,cathedral,numerosity_judgement,4,13,5,countries_reversed,"['_Mali_reversed', '_Congo_reversed', '_Syria_reversed', '_Oman_reversed', '_Sudan_reversed']","['f', 'f', 'f', 'f', 'm']","['p284', 'p268', 'p245', 'p248', 'p307']","[9, 4, 8, 2, 0]","[92.00610777531934, 89.31368318402099, 92.0152836843556, 87.57049330475357, 84.40078082039426]",5.0,True,6.6,3.847076812334269,1.812375545501709,0.9179888775394394
0,,sub_104,2024-06-27 16:46:46,3,distance,cathedral,numerosity_judgement,4,14,4,countries_reversed,"['_Sudan_reversed', '_Oman_reversed', '_Britain_reversed', '_Togo_reversed']","['f', 'm', 'm', 'm']","['p268', 'p318', 'p307', 'p229']","[2, 5, 0, 7]","[87.57049330475357, 90.34149293193902, 84.40078082039426, 91.73820004985969]",3.0,False,5.5,3.1091263510296048,2.749810218811035,0.8837135398933151
0,,sub_104,2024-06-27 16:46:49,3,distance,cathedral,numerosity_judgement,4,15,2,countries_reversed,"['_Peru_reversed', '_Mali_reversed']","['f', 'f']","['p248', 'p268']","[6, 2]","[91.58892582949886, 87.57049330475357]",2.0,True,6.0,2.8284271247461903,1.624889850616455,0.9151288162524116
0,,sub_104,2024-06-27 16:46:52,3,distance,cathedral,numerosity_judgement,4,16,5,countries_reversed,"['_Syria_reversed', '_Japan_reversed', '_Cuba_reversed', '_Yemen_reversed', '_Sudan_reversed']","['f', 'f', 'm', 'm', 'm']","['p268', 'p248', 'p307', 'p256', 'p229']","[0, 3, 9, 5, 7]","[84.40078082039426, 89.14911522239515, 92.00610777531934, 90.34149293193902, 91.73820004985969]",4.0,False,6.8,3.492849839314596,1.874870777130127,0.834956304619226
0,,sub_104,2024-06-27 16:46:58,3,distance,cathedral,numerosity_judgement,4,17,6,countries_reversed,"['_Mali_reversed', '_Oman_reversed', '_Peru_reversed', '_Syria_reversed', '_Yemen_reversed', '_Togo_reversed']","['m', 'm', 'f', 'f', 'f', 'm']","['p318', 'p229', 'p245', 'p284', 'p248', 'p307']","[9, 4, 3, 6, 2, 7]","[92.00610777531934, 89.31368318402099, 89.14911522239515, 91.58892582949886, 87.57049330475357, 91.73820004985969]",5.0,False,7.166666666666667,2.6394443859772205,4.374698638916016,0.7785835886959482
0,,sub_104,2024-06-27 16:47:03,3,distance,cathedral,numerosity_judgement,4,18,4,countries_reversed,"['_Peru_reversed', '_Yemen_reversed', '_Britain_reversed', '_Congo_reversed']","['m', 'm', 'f', 'm']","['p307', 'p229', 'p245', 'p256']","[3, 6, 8, 2]","[89.14911522239515, 91.58892582949886, 92.0152836843556, 87.57049330475357]",4.0,True,6.75,2.753785273643051,3.9372286796569824,0.6608330495970945
0,,sub_104,2024-06-27 16:47:07,3,distance,cathedral,numerosity_judgement,4,19,3,countries_reversed,"['_Togo_reversed', '_Oman_reversed', '_Congo_reversed']","['m', 'f', 'f']","['p318', 'p245', 'p284']","[6, 9, 2]","[91.58892582949886, 92.00610777531934, 87.57049330475357]",4.0,False,7.666666666666667,3.5118845842842465,2.687314987182617,0.9059584610146408
0,,sub_104,2024-06-27 16:47:10,3,distance,cathedral,numerosity_judgement,4,20,6,countries_reversed,"['_Tonga_reversed', '_Yemen_reversed', '_Britain_reversed', '_Syria_reversed', '_Oman_reversed', '_Congo_reversed']","['m', 'f', 'm', 'f', 'm', 'm']","['p318', 'p248', 'p229', 'p284', 'p256', 'p307']","[6, 3, 4, 7, 8, 10]","[91.58892582949886, 89.14911522239515, 89.31368318402099, 91.73820004985969, 92.0152836843556, 93.00003341222717]",6.0,True,8.333333333333334,2.581988897471611,1.4998972415924072,0.7367608670979457
0,,sub_104,2024-06-27 16:47:13,3,distance,cathedral,numerosity_judgement,4,21,5,countries_reversed,"['_Cuba_reversed', '_Tonga_reversed', '_Yemen_reversed', '_Syria_reversed', '_Togo_reversed']","['f', 'm', 'f', 'm', 'f']","['p245', 'p307', 'p284', 'p256', 'p248']","[3, 4, 0, 8, 9]","[89.14911522239515, 89.31368318402099, 84.40078082039426, 92.0152836843556, 92.00610777531934]",6.0,False,6.8,3.7013511046643495,2.0623581409454346,0.7842583134717966
0,,sub_104,2024-06-27 16:47:16,3,distance,cathedral,numerosity_judgement,4,22,2,countries_reversed,"['_Syria_reversed', '_Sudan_reversed']","['m', 'f']","['p256', 'p284']","[0, 3]","[84.40078082039426, 89.14911522239515]",2.0,True,3.5,2.1213203435596424,1.9998626708984375,0.943264101691068
0,,sub_104,2024-06-27 16:47:21,3,distance,cathedral,numerosity_judgement,4,23,3,countries_reversed,"['_Cuba_reversed', '_Sudan_reversed', '_Japan_reversed']","['f', 'f', 'm']","['p284', 'p245', 'p229']","[6, 8, 3]","[91.58892582949886, 92.0152836843556, 89.14911522239515]",5.0,False,7.666666666666667,2.516611478423583,3.7497658729553223,0.8517307910566337
0,,sub_104,2024-06-27 16:47:24,3,distance,cathedral,numerosity_judgement,4,24,4,countries_reversed,"['_Mali_reversed', '_Cuba_reversed', '_Belgium_reversed', '_Oman_reversed']","['m', 'f', 'm', 'f']","['p229', 'p268', 'p307', 'p248']","[1, 6, 3, 0]","[86.2038576498559, 91.58892582949886, 89.14911522239515, 84.40078082039426]",3.0,False,4.5,2.6457513110645907,1.624894618988037,0.76601974804222
0,,sub_104,2024-06-27 16:47:27,3,distance,cathedral,numerosity_judgement,4,25,5,countries_reversed,"['_Britain_reversed', '_Oman_reversed', '_Yemen_reversed', '_Cuba_reversed', '_Syria_reversed']","['f', 'f', 'm', 'm', 'f']","['p248', 'p245', 'p307', 'p229', 'p268']","[8, 4, 2, 0, 9]","[92.0152836843556, 89.31368318402099, 87.57049330475357, 84.40078082039426, 92.00610777531934]",4.0,False,6.6,3.847076812334269,1.5623910427093506,0.9375553285665644
0,,sub_104,2024-06-27 16:47:32,3,distance,cathedral,numerosity_judgement,4,26,6,countries_reversed,"['_Yemen_reversed', '_Sudan_reversed', '_Cuba_reversed', '_Britain_reversed', '_Oman_reversed', '_Congo_reversed']","['m', 'f', 'f', 'm', 'f', 'f']","['p229', 'p248', 'p245', 'p307', 'p284', 'p268']","[6, 10, 5, 7, 0, 3]","[91.58892582949886, 93.00003341222717, 90.34149293193902, 91.73820004985969, 84.40078082039426, 89.14911522239515]",4.0,False,7.166666666666667,3.4302575219167823,3.2497682571411133,0.6710135058449666
0,,sub_104,2024-06-27 16:47:35,3,distance,cathedral,numerosity_judgement,4,27,2,countries_reversed,"['_Cuba_reversed', '_Peru_reversed']","['m', 'm']","['p256', 'p307']","[10, 6]","[93.00003341222717, 91.58892582949886]",2.0,True,10.0,2.8284271247461903,1.9998619556427002,0.6097378277153558
0,,sub_104,2024-06-27 16:47:39,3,distance,cathedral,numerosity_judgement,4,28,3,countries_reversed,"['_Cuba_reversed', '_Yemen_reversed', '_Peru_reversed']","['f', 'm', 'f']","['p245', 'p307', 'p248']","[7, 5, 1]","[91.73820004985969, 90.34149293193902, 86.2038576498559]",3.0,True,6.333333333333333,3.0550504633038935,2.8123061656951904,0.5953013278855975
0,,sub_104,2024-06-27 16:47:43,3,distance,cathedral,numerosity_judgement,4,29,4,countries_reversed,"['_Cuba_reversed', '_Belgium_reversed', '_Tonga_reversed', '_Syria_reversed']","['m', 'f', 'f', 'f']","['p307', 'p284', 'p245', 'p268']","[10, 5, 0, 2]","[93.00003341222717, 90.34149293193902, 84.40078082039426, 87.57049330475357]",4.0,True,6.25,4.349329450233296,3.1873056888580322,0.9365792759051186
0,,sub_104,2024-06-27 16:47:47,3,distance,cathedral,numerosity_judgement,4,30,5,countries_reversed,"['_Syria_reversed', '_Congo_reversed', '_Mali_reversed', '_Japan_reversed', '_Sudan_reversed']","['f', 'f', 'm', 'm', 'm']","['p268', 'p284', 'p256', 'p229', 'p318']","[8, 4, 2, 0, 10]","[92.0152836843556, 89.31368318402099, 87.57049330475357, 84.40078082039426, 93.00003341222717]",5.0,True,6.8,4.147288270665544,1.9373924732208252,0.9603450232663716
0,,sub_104,2024-06-27 16:47:51,3,distance,cathedral,numerosity_judgement,4,31,4,countries_reversed,"['_Syria_reversed', '_Oman_reversed', '_Belgium_reversed', '_Britain_reversed']","['m', 'm', 'f', 'f']","['p229', 'p256', 'p245', 'p248']","[6, 4, 0, 10]","[91.58892582949886, 89.31368318402099, 84.40078082039426, 93.00003341222717]",6.0,False,7.0,4.163331998932265,3.4372634887695312,0.9230620814890478
0,,sub_104,2024-06-27 16:47:54,3,distance,cathedral,numerosity_judgement,4,32,3,countries_reversed,"['_Peru_reversed', '_Yemen_reversed', '_Congo_reversed']","['m', 'f', 'm']","['p256', 'p248', 'p307']","[9, 6, 10]","[92.00610777531934, 91.58892582949886, 93.00003341222717]",2.0,False,10.333333333333334,2.0816659994661326,1.6873838901519775,0.722642151855635
0,,sub_104,2024-06-27 16:47:57,3,distance,cathedral,numerosity_judgement,4,33,6,countries_reversed,"['_Congo_reversed', '_Japan_reversed', '_Syria_reversed', '_Cuba_reversed', '_Belgium_reversed', '_Yemen_reversed']","['f', 'm', 'm', 'f', 'm', 'm']","['p248', 'p256', 'p318', 'p284', 'p229', 'p307']","[10, 3, 6, 4, 5, 8]","[93.00003341222717, 89.14911522239515, 91.58892582949886, 89.31368318402099, 90.34149293193902, 92.0152836843556]",5.0,False,8.0,2.6076809620810595,1.7498793601989746,0.702621722846442
0,,sub_104,2024-06-27 16:48:01,3,distance,cathedral,numerosity_judgement,4,34,2,countries_reversed,"['_Tonga_reversed', '_Peru_reversed']","['m', 'm']","['p256', 'p307']","[5, 10]","[90.34149293193902, 93.00003341222717]",3.0,False,9.5,3.5355339059327378,2.3123397827148438,0.703631823856543
