event_id,timestamp,subject_id,session_index,plane,setup,task,block,trial_index,headpose_offset_azi,headpose_offset_ele,target_number,target_filename,target_talker,target_sex,target_speaker_id,step_number:,distance_masker,distance_target,target_speaker_proc,target_speaker_chan,target_speaker_azi,target_speaker_ele,target_speaker_dist,target_stim_level,masker_filename,masker_speaker_id,masker_speaker_proc,masker_speaker_chan,masker_speaker_azi,masker_speaker_ele,masker_speaker_dist,masker_stim_level,normalisation_method,normalisation_level_masker,normalisation_level_target,played_number,resp_number,is_correct,reaction_time
,2024-07-03 15:41:49,sub_107,3,distance,cathedral,spatial_unmasking,1,0,0,0,_six_,talker-p284_sex-f_text-_six_.wav,p284,f,5,1,7.0,7.0,RX81,6,0.0,0.0,7.0,92.34149293193902,babble-reversed_n13_p229-three-p256-one-p307-two-p284-eight-p268-five-p248-nine.wav,5,RX81,6,0.0,0.0,7.0,90.34149293193904,mgb_normalisation,90.34149293193902,90.34149293193902,6,6.0,True,1.9373431205749512
,2024-07-03 15:41:54,sub_107,3,distance,cathedral,spatial_unmasking,1,1,0,0,_one_,talker-p284_sex-f_text-_one_.wav,p284,f,5,2,7.0,7.0,RX81,6,0.0,0.0,7.0,88.34149293193902,babble-reversed_n13_p307-five-p229-three-p318-nine-p245-four-p268-eight-p284-two.wav,5,RX81,6,0.0,0.0,7.0,90.341492931939,mgb_normalisation,90.34149293193902,90.34149293193902,1,1.0,True,2.562294006347656
,2024-07-03 15:41:59,sub_107,3,distance,cathedral,spatial_unmasking,1,2,0,0,_six_,talker-p284_sex-f_text-_six_.wav,p284,f,5,3,7.0,7.0,RX81,6,0.0,0.0,7.0,84.341492931939,babble-reversed_n13_p229-two-p307-five-p318-four-p284-one-p248-nine-p268-eight.wav,5,RX81,6,0.0,0.0,7.0,90.34149293193904,mgb_normalisation,90.34149293193902,90.34149293193902,6,6.0,True,2.499796867370605
,2024-07-03 15:42:04,sub_107,3,distance,cathedral,spatial_unmasking,1,3,0,0,_nine_,talker-p284_sex-f_text-_nine_.wav,p284,f,5,4,7.0,7.0,RX81,6,0.0,0.0,7.0,80.341492931939,babble-reversed_n13_p318-five-p229-three-p256-four-p268-eight-p248-one-p245-nine.wav,5,RX81,6,0.0,0.0,7.0,90.34149293193904,mgb_normalisation,90.34149293193902,90.34149293193902,9,9.0,True,2.874764919281006
,2024-07-03 15:42:10,sub_107,3,distance,cathedral,spatial_unmasking,1,4,0,0,_four_,talker-p284_sex-f_text-_four_.wav,p284,f,5,5,7.0,7.0,RX81,6,0.0,0.0,7.0,76.34149293193902,babble-reversed_n13_p307-four-p318-three-p256-eight-p284-two-p245-nine-p248-five.wav,5,RX81,6,0.0,0.0,7.0,90.341492931939,mgb_normalisation,90.34149293193902,90.34149293193902,4,9.0,False,3.8162779808044434
,2024-07-03 15:42:15,sub_107,3,distance,cathedral,spatial_unmasking,1,5,0,0,_five_,talker-p284_sex-f_text-_five_.wav,p284,f,5,6,7.0,7.0,RX81,6,0.0,0.0,7.0,78.34149293193902,babble-reversed_n13_p256-eight-p318-five-p307-four-p245-three-p268-one-p284-nine.wav,5,RX81,6,0.0,0.0,7.0,90.341492931939,mgb_normalisation,90.34149293193902,90.34149293193902,5,5.0,True,2.688306331634521
,2024-07-03 15:42:21,sub_107,3,distance,cathedral,spatial_unmasking,1,6,0,0,_one_,talker-p284_sex-f_text-_one_.wav,p284,f,5,7,7.0,7.0,RX81,6,0.0,0.0,7.0,78.34149293193902,babble-reversed_n13_p318-three-p229-one-p256-eight-p245-five-p248-four-p284-nine.wav,5,RX81,6,0.0,0.0,7.0,90.34149293193904,mgb_normalisation,90.34149293193902,90.34149293193902,1,5.0,False,3.875924825668335
,2024-07-03 15:42:27,sub_107,3,distance,cathedral,spatial_unmasking,1,7,0,0,_six_,talker-p284_sex-f_text-_six_.wav,p284,f,5,8,7.0,7.0,RX81,6,0.0,0.0,7.0,80.341492931939,babble-reversed_n13_p256-four-p229-two-p318-five-p268-one-p248-eight-p245-three.wav,5,RX81,6,0.0,0.0,7.0,90.341492931939,mgb_normalisation,90.34149293193902,90.34149293193902,6,6.0,True,2.922102689743042
,2024-07-03 15:42:32,sub_107,3,distance,cathedral,spatial_unmasking,1,8,0,0,_one_,talker-p284_sex-f_text-_one_.wav,p284,f,5,9,7.0,7.0,RX81,6,0.0,0.0,7.0,80.34149293193903,babble-reversed_n13_p318-three-p229-one-p256-eight-p245-five-p248-four-p284-nine.wav,5,RX81,6,0.0,0.0,7.0,90.34149293193904,mgb_normalisation,90.34149293193902,90.34149293193902,1,5.0,False,3.063654661178589
,2024-07-03 15:42:37,sub_107,3,distance,cathedral,spatial_unmasking,1,9,0,0,_nine_,talker-p284_sex-f_text-_nine_.wav,p284,f,5,10,7.0,7.0,RX81,6,0.0,0.0,7.0,82.34149293193902,babble-reversed_n13_p229-five-p318-two-p307-eight-p268-three-p248-four-p245-one.wav,5,RX81,6,0.0,0.0,7.0,90.34149293193904,mgb_normalisation,90.34149293193902,90.34149293193902,9,9.0,True,2.750375986099243
,2024-07-03 15:42:41,sub_107,3,distance,cathedral,spatial_unmasking,1,10,0,0,_six_,talker-p284_sex-f_text-_six_.wav,p284,f,5,11,7.0,7.0,RX81,6,0.0,0.0,7.0,82.34149293193902,babble-reversed_n13_p307-four-p318-three-p256-eight-p284-two-p245-nine-p248-five.wav,5,RX81,6,0.0,0.0,7.0,90.341492931939,mgb_normalisation,90.34149293193902,90.34149293193902,6,6.0,True,1.6263585090637207
,2024-07-03 15:42:45,sub_107,3,distance,cathedral,spatial_unmasking,1,11,0,0,_six_,talker-p284_sex-f_text-_six_.wav,p284,f,5,12,7.0,7.0,RX81,6,0.0,0.0,7.0,80.341492931939,babble-reversed_n13_p256-two-p307-five-p318-nine-p248-eight-p245-four-p284-one.wav,5,RX81,6,0.0,0.0,7.0,90.34149293193904,mgb_normalisation,90.34149293193902,90.34149293193902,6,6.0,True,1.4372196197509766
,2024-07-03 15:42:49,sub_107,3,distance,cathedral,spatial_unmasking,1,12,0,0,_five_,talker-p284_sex-f_text-_five_.wav,p284,f,5,13,7.0,7.0,RX81,6,0.0,0.0,7.0,80.34149293193903,babble-reversed_n13_p307-four-p318-three-p256-eight-p284-two-p245-nine-p248-five.wav,5,RX81,6,0.0,0.0,7.0,90.341492931939,mgb_normalisation,90.34149293193902,90.34149293193902,5,5.0,True,2.375396728515625
,2024-07-03 15:42:55,sub_107,3,distance,cathedral,spatial_unmasking,1,13,0,0,_six_,talker-p284_sex-f_text-_six_.wav,p284,f,5,14,7.0,7.0,RX81,6,0.0,0.0,7.0,78.34149293193902,babble-reversed_n13_p256-five-p229-one-p318-three-p248-nine-p284-eight-p268-two.wav,5,RX81,6,0.0,0.0,7.0,90.34149293193904,mgb_normalisation,90.34149293193902,90.34149293193902,6,6.0,True,2.9366259574890137
,2024-07-03 15:43:00,sub_107,3,distance,cathedral,spatial_unmasking,1,14,0,0,_five_,talker-p284_sex-f_text-_five_.wav,p284,f,5,15,7.0,7.0,RX81,6,0.0,0.0,7.0,78.34149293193902,babble-reversed_n13_p229-two-p256-three-p318-eight-p284-five-p268-four-p245-one.wav,5,RX81,6,0.0,0.0,7.0,90.34149293193904,mgb_normalisation,90.34149293193902,90.34149293193902,5,5.0,True,3.0651023387908936
,2024-07-03 15:43:06,sub_107,3,distance,cathedral,spatial_unmasking,1,15,0,0,_nine_,talker-p284_sex-f_text-_nine_.wav,p284,f,5,16,7.0,7.0,RX81,6,0.0,0.0,7.0,76.34149293193902,babble-reversed_n13_p229-five-p318-two-p307-eight-p268-three-p248-four-p245-one.wav,5,RX81,6,0.0,0.0,7.0,90.34149293193904,mgb_normalisation,90.34149293193902,90.34149293193902,9,9.0,True,3.125784158706665
,2024-07-03 15:43:12,sub_107,3,distance,cathedral,spatial_unmasking,1,16,0,0,_nine_,talker-p284_sex-f_text-_nine_.wav,p284,f,5,17,7.0,7.0,RX81,6,0.0,0.0,7.0,76.34149293193902,babble-reversed_n13_p256-four-p229-two-p318-five-p268-one-p248-eight-p245-three.wav,5,RX81,6,0.0,0.0,7.0,90.341492931939,mgb_normalisation,90.34149293193902,90.34149293193902,9,4.0,False,4.249538421630859
,2024-07-03 15:43:19,sub_107,3,distance,cathedral,spatial_unmasking,1,17,0,0,_four_,talker-p284_sex-f_text-_four_.wav,p284,f,5,18,7.0,7.0,RX81,6,0.0,0.0,7.0,77.341492931939,babble-reversed_n13_p307-two-p256-four-p318-three-p284-eight-p248-five-p245-nine.wav,5,RX81,6,0.0,0.0,7.0,90.34149293193904,mgb_normalisation,90.34149293193902,90.34149293193902,4,8.0,False,4.485018730163574
,2024-07-03 15:43:23,sub_107,3,distance,cathedral,spatial_unmasking,1,18,0,0,_eight_,talker-p284_sex-f_text-_eight_.wav,p284,f,5,19,7.0,7.0,RX81,6,0.0,0.0,7.0,78.341492931939,babble-reversed_n13_p318-nine-p256-five-p307-eight-p268-three-p248-one-p245-four.wav,5,RX81,6,0.0,0.0,7.0,90.34149293193904,mgb_normalisation,90.34149293193902,90.34149293193902,8,8.0,True,2.187321901321411
,2024-07-03 15:43:30,sub_107,3,distance,cathedral,spatial_unmasking,1,19,0,0,_eight_,talker-p284_sex-f_text-_eight_.wav,p284,f,5,20,7.0,7.0,RX81,6,0.0,0.0,7.0,78.341492931939,babble-reversed_n13_p229-three-p256-one-p307-two-p284-eight-p268-five-p248-nine.wav,5,RX81,6,0.0,0.0,7.0,90.34149293193904,mgb_normalisation,90.34149293193902,90.34149293193902,8,1.0,False,4.5647711753845215
,2024-07-03 15:43:36,sub_107,3,distance,cathedral,spatial_unmasking,1,20,0,0,_three_,talker-p284_sex-f_text-_three_.wav,p284,f,5,21,7.0,7.0,RX81,6,0.0,0.0,7.0,79.34149293193903,babble-reversed_n13_p318-one-p307-two-p256-eight-p284-three-p248-five-p245-four.wav,5,RX81,6,0.0,0.0,7.0,90.34149293193904,mgb_normalisation,90.34149293193902,90.34149293193902,3,4.0,False,3.1890101432800293
,2024-07-03 15:43:40,sub_107,3,distance,cathedral,spatial_unmasking,1,21,0,0,_five_,talker-p284_sex-f_text-_five_.wav,p284,f,5,22,7.0,7.0,RX81,6,0.0,0.0,7.0,80.34149293193903,babble-reversed_n13_p318-nine-p307-eight-p229-two-p284-one-p248-three-p245-five.wav,5,RX81,6,0.0,0.0,7.0,90.34149293193904,mgb_normalisation,90.34149293193902,90.34149293193902,5,5.0,True,2.1927361488342285
,2024-07-03 15:43:44,sub_107,3,distance,cathedral,spatial_unmasking,1,22,0,0,_six_,talker-p284_sex-f_text-_six_.wav,p284,f,5,23,7.0,7.0,RX81,6,0.0,0.0,7.0,80.341492931939,babble-reversed_n13_p307-four-p318-three-p256-eight-p284-two-p245-nine-p248-five.wav,5,RX81,6,0.0,0.0,7.0,90.341492931939,mgb_normalisation,90.34149293193902,90.34149293193902,6,6.0,True,1.6248672008514404
,2024-07-03 15:43:48,sub_107,3,distance,cathedral,spatial_unmasking,1,23,0,0,_six_,talker-p284_sex-f_text-_six_.wav,p284,f,5,24,7.0,7.0,RX81,6,0.0,0.0,7.0,79.341492931939,babble-reversed_n13_p318-four-p256-five-p229-three-p284-one-p245-eight-p248-nine.wav,5,RX81,6,0.0,0.0,7.0,90.34149293193904,mgb_normalisation,90.34149293193902,90.34149293193902,6,6.0,True,1.5623738765716553
,2024-07-03 15:43:52,sub_107,3,distance,cathedral,spatial_unmasking,1,24,0,0,_one_,talker-p284_sex-f_text-_one_.wav,p284,f,5,25,7.0,7.0,RX81,6,0.0,0.0,7.0,79.34149293193902,babble-reversed_n13_p256-two-p307-five-p318-nine-p248-eight-p245-four-p284-one.wav,5,RX81,6,0.0,0.0,7.0,90.34149293193904,mgb_normalisation,90.34149293193902,90.34149293193902,1,1.0,True,1.747821807861328
,2024-07-03 15:43:57,sub_107,3,distance,cathedral,spatial_unmasking,1,25,0,0,_eight_,talker-p284_sex-f_text-_eight_.wav,p284,f,5,26,7.0,7.0,RX81,6,0.0,0.0,7.0,78.341492931939,babble-reversed_n13_p318-five-p229-three-p256-four-p268-eight-p248-one-p245-nine.wav,5,RX81,6,0.0,0.0,7.0,90.34149293193904,mgb_normalisation,90.34149293193902,90.34149293193902,8,2.0,False,3.063194751739502
,2024-07-03 15:44:03,sub_107,3,distance,cathedral,spatial_unmasking,1,26,0,0,_eight_,talker-p284_sex-f_text-_eight_.wav,p284,f,5,27,7.0,7.0,RX81,6,0.0,0.0,7.0,79.341492931939,babble-reversed_n13_p307-five-p229-two-p318-four-p248-three-p245-nine-p268-eight.wav,5,RX81,6,0.0,0.0,7.0,90.341492931939,mgb_normalisation,90.34149293193902,90.34149293193902,8,3.0,False,3.3126425743103027
,2024-07-03 15:44:08,sub_107,3,distance,cathedral,spatial_unmasking,1,27,0,0,_nine_,talker-p284_sex-f_text-_nine_.wav,p284,f,5,28,7.0,7.0,RX81,6,0.0,0.0,7.0,80.341492931939,babble-reversed_n13_p229-nine-p318-one-p307-two-p248-eight-p245-five-p284-four.wav,5,RX81,6,0.0,0.0,7.0,90.34149293193904,mgb_normalisation,90.34149293193902,90.34149293193902,9,9.0,True,2.625237226486206
,2024-07-03 15:44:14,sub_107,3,distance,cathedral,spatial_unmasking,1,28,0,0,_three_,talker-p284_sex-f_text-_three_.wav,p284,f,5,29,7.0,7.0,RX81,6,0.0,0.0,7.0,80.34149293193903,babble-reversed_n13_p229-three-p307-one-p318-two-p245-eight-p268-five-p284-four.wav,5,RX81,6,0.0,0.0,7.0,90.34149293193904,mgb_normalisation,90.34149293193902,90.34149293193902,3,8.0,False,3.874028205871582
,2024-07-03 15:44:20,sub_107,3,distance,cathedral,spatial_unmasking,1,29,0,0,_four_,talker-p284_sex-f_text-_four_.wav,p284,f,5,30,7.0,7.0,RX81,6,0.0,0.0,7.0,81.341492931939,babble-reversed_n13_p307-nine-p229-one-p256-eight-p248-four-p284-two-p268-three.wav,5,RX81,6,0.0,0.0,7.0,90.34149293193904,mgb_normalisation,90.34149293193902,90.34149293193902,4,4.0,True,3.314175844192505
,2024-07-03 15:44:24,sub_107,3,distance,cathedral,spatial_unmasking,1,30,0,0,_five_,talker-p284_sex-f_text-_five_.wav,p284,f,5,31,7.0,7.0,RX81,6,0.0,0.0,7.0,81.34149293193902,babble-reversed_n13_p318-five-p229-four-p256-eight-p284-one-p245-three-p248-two.wav,5,RX81,6,0.0,0.0,7.0,90.34149293193904,mgb_normalisation,90.34149293193902,90.34149293193902,5,5.0,True,1.812354326248169
,2024-07-03 15:44:28,sub_107,3,distance,cathedral,spatial_unmasking,1,31,0,0,_nine_,talker-p284_sex-f_text-_nine_.wav,p284,f,5,32,7.0,7.0,RX81,6,0.0,0.0,7.0,80.341492931939,babble-reversed_n13_p229-five-p318-two-p307-eight-p268-three-p248-four-p245-one.wav,5,RX81,6,0.0,0.0,7.0,90.34149293193904,mgb_normalisation,90.34149293193902,90.34149293193902,9,9.0,True,2.109230756759644
,2024-07-03 15:44:32,sub_107,3,distance,cathedral,spatial_unmasking,1,32,0,0,_one_,talker-p284_sex-f_text-_one_.wav,p284,f,5,33,7.0,7.0,RX81,6,0.0,0.0,7.0,80.34149293193903,babble-reversed_n13_p318-five-p256-nine-p307-two-p245-eight-p248-one-p284-four.wav,5,RX81,6,0.0,0.0,7.0,90.34149293193904,mgb_normalisation,90.34149293193902,90.34149293193902,1,1.0,True,1.936079740524292
,2024-07-03 15:44:37,sub_107,3,distance,cathedral,spatial_unmasking,1,33,0,0,_two_,talker-p284_sex-f_text-_two_.wav,p284,f,5,34,7.0,7.0,RX81,6,0.0,0.0,7.0,79.34149293193902,babble-reversed_n13_p256-three-p318-one-p307-two-p284-nine-p268-four-p245-eight.wav,5,RX81,6,0.0,0.0,7.0,90.34149293193904,mgb_normalisation,90.34149293193902,90.34149293193902,2,9.0,False,2.3758366107940674
,2024-07-03 15:44:42,sub_107,3,distance,cathedral,spatial_unmasking,1,34,0,0,_three_,talker-p284_sex-f_text-_three_.wav,p284,f,5,35,7.0,7.0,RX81,6,0.0,0.0,7.0,80.34149293193903,babble-reversed_n13_p318-three-p307-one-p256-five-p248-nine-p245-two-p284-eight.wav,5,RX81,6,0.0,0.0,7.0,90.34149293193904,mgb_normalisation,90.34149293193902,90.34149293193902,3,3.0,True,2.092383861541748
,2024-07-03 15:44:46,sub_107,3,distance,cathedral,spatial_unmasking,1,35,0,0,_nine_,talker-p284_sex-f_text-_nine_.wav,p284,f,5,36,7.0,7.0,RX81,6,0.0,0.0,7.0,80.341492931939,babble-reversed_n13_p307-five-p229-two-p318-four-p248-three-p245-nine-p268-eight.wav,5,RX81,6,0.0,0.0,7.0,90.341492931939,mgb_normalisation,90.34149293193902,90.34149293193902,9,2.0,False,2.43938946723938
,2024-07-03 15:44:51,sub_107,3,distance,cathedral,spatial_unmasking,1,36,0,0,_six_,talker-p284_sex-f_text-_six_.wav,p284,f,5,37,7.0,7.0,RX81,6,0.0,0.0,7.0,81.341492931939,babble-reversed_n13_p307-four-p318-three-p256-eight-p284-two-p245-nine-p248-five.wav,5,RX81,6,0.0,0.0,7.0,90.341492931939,mgb_normalisation,90.34149293193902,90.34149293193902,6,6.0,True,2.002362012863159
,2024-07-03 15:44:55,sub_107,3,distance,cathedral,spatial_unmasking,1,37,0,0,_five_,talker-p284_sex-f_text-_five_.wav,p284,f,5,38,7.0,7.0,RX81,6,0.0,0.0,7.0,81.34149293193902,babble-reversed_n13_p256-eight-p318-two-p307-five-p245-four-p268-nine-p284-one.wav,5,RX81,6,0.0,0.0,7.0,90.34149293193904,mgb_normalisation,90.34149293193902,90.34149293193902,5,5.0,True,1.873507022857666
,2024-07-03 15:44:59,sub_107,3,distance,cathedral,spatial_unmasking,1,38,0,0,_one_,talker-p284_sex-f_text-_one_.wav,p284,f,5,39,7.0,7.0,RX81,6,0.0,0.0,7.0,80.34149293193903,babble-reversed_n13_p229-five-p318-two-p307-eight-p268-three-p248-four-p245-one.wav,5,RX81,6,0.0,0.0,7.0,90.34149293193904,mgb_normalisation,90.34149293193902,90.34149293193902,1,1.0,True,1.874823808670044
,2024-07-03 15:45:04,sub_107,3,distance,cathedral,spatial_unmasking,1,39,0,0,_five_,talker-p284_sex-f_text-_five_.wav,p284,f,5,40,7.0,7.0,RX81,6,0.0,0.0,7.0,80.34149293193903,babble-reversed_n13_p229-five-p318-three-p307-two-p245-four-p284-nine-p248-eight.wav,5,RX81,6,0.0,0.0,7.0,90.34149293193904,mgb_normalisation,90.34149293193902,90.34149293193902,5,5.0,True,2.3123128414154053
,2024-07-03 15:45:09,sub_107,3,distance,cathedral,spatial_unmasking,1,40,0,0,_one_,talker-p284_sex-f_text-_one_.wav,p284,f,5,41,7.0,7.0,RX81,6,0.0,0.0,7.0,79.34149293193902,babble-reversed_n13_p229-five-p256-three-p318-nine-p248-two-p284-four-p268-one.wav,5,RX81,6,0.0,0.0,7.0,90.34149293193904,mgb_normalisation,90.34149293193902,90.34149293193902,1,1.0,True,3.4997150897979736
,2024-07-03 15:45:16,sub_107,3,distance,cathedral,spatial_unmasking,1,41,0,0,_five_,talker-p284_sex-f_text-_five_.wav,p284,f,5,42,7.0,7.0,RX81,6,0.0,0.0,7.0,79.34149293193902,babble-reversed_n13_p318-nine-p307-eight-p229-two-p284-one-p248-three-p245-five.wav,5,RX81,6,0.0,0.0,7.0,90.34149293193904,mgb_normalisation,90.34149293193902,90.34149293193902,5,5.0,True,4.3137571811676025
,2024-07-03 15:45:24,sub_107,3,distance,cathedral,spatial_unmasking,1,42,0,0,_three_,talker-p284_sex-f_text-_three_.wav,p284,f,5,43,7.0,7.0,RX81,6,0.0,0.0,7.0,78.34149293193902,babble-reversed_n13_p318-one-p307-two-p256-eight-p284-three-p248-five-p245-four.wav,5,RX81,6,0.0,0.0,7.0,90.34149293193904,mgb_normalisation,90.34149293193902,90.34149293193902,3,2.0,False,5.561755895614624
,2024-07-03 15:45:31,sub_107,3,distance,cathedral,spatial_unmasking,1,43,0,0,_eight_,talker-p284_sex-f_text-_eight_.wav,p284,f,5,44,7.0,7.0,RX81,6,0.0,0.0,7.0,79.341492931939,babble-reversed_n13_p318-nine-p307-eight-p229-two-p284-one-p248-three-p245-five.wav,5,RX81,6,0.0,0.0,7.0,90.34149293193904,mgb_normalisation,90.34149293193902,90.34149293193902,8,2.0,False,5.126574516296387
,2024-07-03 15:45:39,sub_107,3,distance,cathedral,spatial_unmasking,1,44,0,0,_three_,talker-p284_sex-f_text-_three_.wav,p284,f,5,45,7.0,7.0,RX81,6,0.0,0.0,7.0,80.34149293193903,babble-reversed_n13_p229-five-p318-three-p307-two-p245-four-p284-nine-p248-eight.wav,5,RX81,6,0.0,0.0,7.0,90.34149293193904,mgb_normalisation,90.34149293193902,90.34149293193902,3,3.0,True,5.4985032081604
,2024-07-03 15:45:44,sub_107,3,distance,cathedral,spatial_unmasking,1,45,0,0,_four_,talker-p284_sex-f_text-_four_.wav,p284,f,5,46,7.0,7.0,RX81,6,0.0,0.0,7.0,80.341492931939,babble-reversed_n13_p229-nine-p307-five-p256-two-p248-three-p245-one-p268-eight.wav,5,RX81,6,0.0,0.0,7.0,90.34149293193904,mgb_normalisation,90.34149293193902,90.34149293193902,4,2.0,False,2.8122713565826416
,2024-07-03 15:45:48,sub_107,3,distance,cathedral,spatial_unmasking,1,46,0,0,_two_,talker-p284_sex-f_text-_two_.wav,p284,f,5,47,7.0,7.0,RX81,6,0.0,0.0,7.0,81.34149293193902,babble-reversed_n13_p256-eight-p229-three-p307-nine-p245-five-p248-four-p268-two.wav,5,RX81,6,0.0,0.0,7.0,90.341492931939,mgb_normalisation,90.34149293193902,90.34149293193902,2,2.0,True,1.624860763549805
,2024-07-03 15:45:53,sub_107,3,distance,cathedral,spatial_unmasking,1,47,0,0,_one_,talker-p284_sex-f_text-_one_.wav,p284,f,5,48,7.0,7.0,RX81,6,0.0,0.0,7.0,81.34149293193902,babble-reversed_n13_p256-three-p318-one-p307-two-p284-nine-p268-four-p245-eight.wav,5,RX81,6,0.0,0.0,7.0,90.34149293193904,mgb_normalisation,90.34149293193902,90.34149293193902,1,9.0,False,2.562951803207397
,2024-07-03 15:45:57,sub_107,3,distance,cathedral,spatial_unmasking,1,48,0,0,_one_,talker-p284_sex-f_text-_one_.wav,p284,f,5,49,7.0,7.0,RX81,6,0.0,0.0,7.0,82.34149293193902,babble-reversed_n13_p256-two-p307-five-p318-nine-p248-eight-p245-four-p284-one.wav,5,RX81,6,0.0,0.0,7.0,90.34149293193904,mgb_normalisation,90.34149293193902,90.34149293193902,1,1.0,True,1.3128728866577148
,2024-07-03 15:46:00,sub_107,3,distance,cathedral,spatial_unmasking,1,49,0,0,_six_,talker-p284_sex-f_text-_six_.wav,p284,f,5,50,7.0,7.0,RX81,6,0.0,0.0,7.0,82.34149293193902,babble-reversed_n13_p318-five-p256-nine-p307-two-p245-eight-p248-one-p284-four.wav,5,RX81,6,0.0,0.0,7.0,90.34149293193904,mgb_normalisation,90.34149293193902,90.34149293193902,6,6.0,True,1.0620620250701904
,2024-07-03 15:46:04,sub_107,3,distance,cathedral,spatial_unmasking,1,50,0,0,_eight_,talker-p284_sex-f_text-_eight_.wav,p284,f,5,51,7.0,7.0,RX81,6,0.0,0.0,7.0,81.341492931939,babble-reversed_n13_p318-one-p307-two-p256-eight-p284-three-p248-five-p245-four.wav,5,RX81,6,0.0,0.0,7.0,90.34149293193904,mgb_normalisation,90.34149293193902,90.34149293193902,8,8.0,True,1.9998400211334229
,2024-07-03 15:46:08,sub_107,3,distance,cathedral,spatial_unmasking,1,51,0,0,_three_,talker-p284_sex-f_text-_three_.wav,p284,f,5,52,7.0,7.0,RX81,6,0.0,0.0,7.0,81.34149293193902,babble-reversed_n13_p229-three-p256-nine-p318-five-p248-one-p245-eight-p284-two.wav,5,RX81,6,0.0,0.0,7.0,90.34149293193904,mgb_normalisation,90.34149293193902,90.34149293193902,3,3.0,True,1.7498643398284912
,2024-07-03 15:46:12,sub_107,3,distance,cathedral,spatial_unmasking,1,52,0,0,_nine_,talker-p284_sex-f_text-_nine_.wav,p284,f,5,53,7.0,7.0,RX81,6,0.0,0.0,7.0,80.341492931939,babble-reversed_n13_p229-three-p256-one-p307-two-p284-eight-p268-five-p248-nine.wav,5,RX81,6,0.0,0.0,7.0,90.34149293193904,mgb_normalisation,90.34149293193902,90.34149293193902,9,9.0,True,1.9319987297058103
,2024-07-03 15:46:17,sub_107,3,distance,cathedral,spatial_unmasking,1,53,0,0,_two_,talker-p284_sex-f_text-_two_.wav,p284,f,5,54,7.0,7.0,RX81,6,0.0,0.0,7.0,80.34149293193903,babble-reversed_n13_p229-two-p318-eight-p256-three-p268-one-p248-nine-p284-five.wav,5,RX81,6,0.0,0.0,7.0,90.341492931939,mgb_normalisation,90.34149293193902,90.34149293193902,2,2.0,True,2.2512354850769043
,2024-07-03 15:46:21,sub_107,3,distance,cathedral,spatial_unmasking,1,54,0,0,_five_,talker-p284_sex-f_text-_five_.wav,p284,f,5,55,7.0,7.0,RX81,6,0.0,0.0,7.0,79.34149293193902,babble-reversed_n13_p229-three-p256-one-p307-two-p284-eight-p268-five-p248-nine.wav,5,RX81,6,0.0,0.0,7.0,90.34149293193904,mgb_normalisation,90.34149293193902,90.34149293193902,5,5.0,True,2.062385320663452
,2024-07-03 15:46:26,sub_107,3,distance,cathedral,spatial_unmasking,1,55,0,0,_five_,talker-p284_sex-f_text-_five_.wav,p284,f,5,56,7.0,7.0,RX81,6,0.0,0.0,7.0,79.34149293193902,babble-reversed_n13_p256-four-p229-two-p318-five-p268-one-p248-eight-p245-three.wav,5,RX81,6,0.0,0.0,7.0,90.341492931939,mgb_normalisation,90.34149293193902,90.34149293193902,5,5.0,True,2.2973437309265137
,2024-07-03 15:46:31,sub_107,3,distance,cathedral,spatial_unmasking,1,56,0,0,_six_,talker-p284_sex-f_text-_six_.wav,p284,f,5,57,7.0,7.0,RX81,6,0.0,0.0,7.0,78.34149293193902,babble-reversed_n13_p256-eight-p318-two-p307-five-p245-four-p268-nine-p284-one.wav,5,RX81,6,0.0,0.0,7.0,90.34149293193904,mgb_normalisation,90.34149293193902,90.34149293193902,6,6.0,True,2.501456022262573
,2024-07-03 15:46:35,sub_107,3,distance,cathedral,spatial_unmasking,1,57,0,0,_two_,talker-p284_sex-f_text-_two_.wav,p284,f,5,58,7.0,7.0,RX81,6,0.0,0.0,7.0,78.34149293193902,babble-reversed_n13_p256-nine-p307-four-p229-one-p284-three-p248-two-p245-five.wav,5,RX81,6,0.0,0.0,7.0,90.34149293193904,mgb_normalisation,90.34149293193902,90.34149293193902,2,2.0,True,2.4377806186676025
,2024-07-03 15:46:39,sub_107,3,distance,cathedral,spatial_unmasking,1,58,0,0,_three_,talker-p284_sex-f_text-_three_.wav,p284,f,5,59,7.0,7.0,RX81,6,0.0,0.0,7.0,77.34149293193903,babble-reversed_n13_p307-nine-p229-one-p256-eight-p248-four-p284-two-p268-three.wav,5,RX81,6,0.0,0.0,7.0,90.34149293193904,mgb_normalisation,90.34149293193902,90.34149293193902,3,3.0,True,1.687398910522461
,2024-07-03 15:46:43,sub_107,3,distance,cathedral,spatial_unmasking,1,59,0,0,_nine_,talker-p284_sex-f_text-_nine_.wav,p284,f,5,60,7.0,7.0,RX81,6,0.0,0.0,7.0,77.341492931939,babble-reversed_n13_p256-two-p307-five-p318-nine-p248-eight-p245-four-p284-one.wav,5,RX81,6,0.0,0.0,7.0,90.34149293193904,mgb_normalisation,90.34149293193902,90.34149293193902,9,9.0,True,1.6873624324798584
,2024-07-03 15:46:48,sub_107,3,distance,cathedral,spatial_unmasking,1,60,0,0,_two_,talker-p284_sex-f_text-_two_.wav,p284,f,5,61,7.0,7.0,RX81,6,0.0,0.0,7.0,76.34149293193902,babble-reversed_n13_p229-eight-p256-nine-p318-four-p245-three-p268-five-p284-two.wav,5,RX81,6,0.0,0.0,7.0,90.341492931939,mgb_normalisation,90.34149293193902,90.34149293193902,2,2.0,True,2.062263965606689
,2024-07-03 15:46:52,sub_107,3,distance,cathedral,spatial_unmasking,1,61,0,0,_one_,talker-p284_sex-f_text-_one_.wav,p284,f,5,62,7.0,7.0,RX81,6,0.0,0.0,7.0,76.34149293193902,babble-reversed_n13_p256-eight-p229-three-p307-nine-p245-five-p248-four-p268-two.wav,5,RX81,6,0.0,0.0,7.0,90.341492931939,mgb_normalisation,90.34149293193902,90.34149293193902,1,4.0,False,2.2505552768707275
,2024-07-03 15:46:56,sub_107,3,distance,cathedral,spatial_unmasking,1,62,0,0,_one_,talker-p284_sex-f_text-_one_.wav,p284,f,5,63,7.0,7.0,RX81,6,0.0,0.0,7.0,77.34149293193902,babble-reversed_n13_p256-eight-p318-five-p307-four-p245-three-p268-one-p284-nine.wav,5,RX81,6,0.0,0.0,7.0,90.341492931939,mgb_normalisation,90.34149293193902,90.34149293193902,1,1.0,True,1.8133838176727293
,2024-07-03 15:47:00,sub_107,3,distance,cathedral,spatial_unmasking,1,63,0,0,_three_,talker-p284_sex-f_text-_three_.wav,p284,f,5,64,7.0,7.0,RX81,6,0.0,0.0,7.0,77.34149293193903,babble-reversed_n13_p318-nine-p256-five-p307-eight-p268-three-p248-one-p245-four.wav,5,RX81,6,0.0,0.0,7.0,90.34149293193904,mgb_normalisation,90.34149293193902,90.34149293193902,3,3.0,True,1.6239686012268066
,2024-07-03 15:48:46,sub_107,3,distance,cathedral,spatial_unmasking,2,64,0,0,_six_,talker-p284_sex-f_text-_six_.wav,p284,f,5,1,12.0,7.0,RX81,6,0.0,0.0,7.0,92.34149293193902,babble-reversed_n13_p256-four-p229-two-p318-five-p268-one-p248-eight-p245-three.wav,10,RX81,11,0.0,0.0,12.0,93.00003341222715,mgb_normalisation,93.00003341222715,90.34149293193902,6,6.0,True,2.375864028930664
,2024-07-03 15:48:52,sub_107,3,distance,cathedral,spatial_unmasking,2,65,0,0,_four_,talker-p284_sex-f_text-_four_.wav,p284,f,5,2,12.0,7.0,RX81,6,0.0,0.0,7.0,88.34149293193902,babble-reversed_n13_p229-nine-p256-four-p318-three-p268-eight-p248-two-p284-five.wav,10,RX81,11,0.0,0.0,12.0,93.00003341222718,mgb_normalisation,93.00003341222715,90.34149293193902,4,4.0,True,2.937215566635132
,2024-07-03 15:48:56,sub_107,3,distance,cathedral,spatial_unmasking,2,66,0,0,_five_,talker-p284_sex-f_text-_five_.wav,p284,f,5,3,12.0,7.0,RX81,6,0.0,0.0,7.0,84.341492931939,babble-reversed_n13_p229-two-p256-three-p318-eight-p284-five-p268-four-p245-one.wav,10,RX81,11,0.0,0.0,12.0,93.00003341222718,mgb_normalisation,93.00003341222715,90.34149293193902,5,5.0,True,2.438276052474976
,2024-07-03 15:49:02,sub_107,3,distance,cathedral,spatial_unmasking,2,67,0,0,_five_,talker-p284_sex-f_text-_five_.wav,p284,f,5,4,12.0,7.0,RX81,6,0.0,0.0,7.0,80.34149293193903,babble-reversed_n13_p318-five-p229-four-p256-eight-p284-one-p245-three-p248-two.wav,10,RX81,11,0.0,0.0,12.0,93.00003341222718,mgb_normalisation,93.00003341222715,90.34149293193902,5,5.0,True,3.187561273574829
,2024-07-03 15:49:08,sub_107,3,distance,cathedral,spatial_unmasking,2,68,0,0,_five_,talker-p284_sex-f_text-_five_.wav,p284,f,5,5,12.0,7.0,RX81,6,0.0,0.0,7.0,76.34149293193902,babble-reversed_n13_p318-one-p307-two-p256-eight-p284-three-p248-five-p245-four.wav,10,RX81,11,0.0,0.0,12.0,93.00003341222718,mgb_normalisation,93.00003341222715,90.34149293193902,5,5.0,True,3.4381840229034424
,2024-07-03 15:49:14,sub_107,3,distance,cathedral,spatial_unmasking,2,69,0,0,_six_,talker-p284_sex-f_text-_six_.wav,p284,f,5,6,12.0,7.0,RX81,6,0.0,0.0,7.0,72.341492931939,babble-reversed_n13_p256-five-p307-nine-p318-three-p284-eight-p268-one-p248-two.wav,10,RX81,11,0.0,0.0,12.0,93.00003341222715,mgb_normalisation,93.00003341222715,90.34149293193902,6,8.0,False,3.9987716674804688
,2024-07-03 15:49:20,sub_107,3,distance,cathedral,spatial_unmasking,2,70,0,0,_one_,talker-p284_sex-f_text-_one_.wav,p284,f,5,7,12.0,7.0,RX81,6,0.0,0.0,7.0,74.34149293193902,babble-reversed_n13_p256-nine-p307-four-p229-one-p284-three-p248-two-p245-five.wav,10,RX81,11,0.0,0.0,12.0,93.00003341222718,mgb_normalisation,93.00003341222715,90.34149293193902,1,2.0,False,3.562251091003418
,2024-07-03 15:49:26,sub_107,3,distance,cathedral,spatial_unmasking,2,71,0,0,_eight_,talker-p284_sex-f_text-_eight_.wav,p284,f,5,8,12.0,7.0,RX81,6,0.0,0.0,7.0,76.34149293193902,babble-reversed_n13_p229-five-p318-three-p307-two-p245-four-p284-nine-p248-eight.wav,10,RX81,11,0.0,0.0,12.0,93.00003341222715,mgb_normalisation,93.00003341222715,90.34149293193902,8,1.0,False,3.436394453048706
,2024-07-03 15:49:31,sub_107,3,distance,cathedral,spatial_unmasking,2,72,0,0,_one_,talker-p284_sex-f_text-_one_.wav,p284,f,5,9,12.0,7.0,RX81,6,0.0,0.0,7.0,78.34149293193902,babble-reversed_n13_p229-three-p307-one-p318-two-p245-eight-p268-five-p284-four.wav,10,RX81,11,0.0,0.0,12.0,93.00003341222718,mgb_normalisation,93.00003341222715,90.34149293193902,1,1.0,True,2.4979135990142822
,2024-07-03 15:49:36,sub_107,3,distance,cathedral,spatial_unmasking,2,73,0,0,_one_,talker-p284_sex-f_text-_one_.wav,p284,f,5,10,12.0,7.0,RX81,6,0.0,0.0,7.0,78.34149293193902,babble-reversed_n13_p256-two-p307-five-p318-nine-p248-eight-p245-four-p284-one.wav,10,RX81,11,0.0,0.0,12.0,93.00003341222718,mgb_normalisation,93.00003341222715,90.34149293193902,1,1.0,True,3.0465121269226074
,2024-07-03 15:49:41,sub_107,3,distance,cathedral,spatial_unmasking,2,74,0,0,_two_,talker-p284_sex-f_text-_two_.wav,p284,f,5,11,12.0,7.0,RX81,6,0.0,0.0,7.0,76.34149293193902,babble-reversed_n13_p229-five-p256-one-p318-three-p248-nine-p268-four-p284-eight.wav,10,RX81,11,0.0,0.0,12.0,93.00003341222715,mgb_normalisation,93.00003341222715,90.34149293193902,2,2.0,True,2.065518617630005
,2024-07-03 15:49:46,sub_107,3,distance,cathedral,spatial_unmasking,2,75,0,0,_five_,talker-p284_sex-f_text-_five_.wav,p284,f,5,12,12.0,7.0,RX81,6,0.0,0.0,7.0,76.34149293193902,babble-reversed_n13_p318-five-p229-three-p256-four-p268-eight-p248-one-p245-nine.wav,10,RX81,11,0.0,0.0,12.0,93.00003341222718,mgb_normalisation,93.00003341222715,90.34149293193902,5,5.0,True,3.1263437271118164
,2024-07-03 15:49:53,sub_107,3,distance,cathedral,spatial_unmasking,2,76,0,0,_six_,talker-p284_sex-f_text-_six_.wav,p284,f,5,13,12.0,7.0,RX81,6,0.0,0.0,7.0,74.341492931939,babble-reversed_n13_p307-two-p229-one-p256-five-p248-nine-p284-three-p268-eight.wav,10,RX81,11,0.0,0.0,12.0,93.00003341222718,mgb_normalisation,93.00003341222715,90.34149293193902,6,6.0,True,3.811857461929321
,2024-07-03 15:50:00,sub_107,3,distance,cathedral,spatial_unmasking,2,77,0,0,_three_,talker-p284_sex-f_text-_three_.wav,p284,f,5,14,12.0,7.0,RX81,6,0.0,0.0,7.0,74.34149293193903,babble-reversed_n13_p229-three-p307-one-p318-two-p245-eight-p268-five-p284-four.wav,10,RX81,11,0.0,0.0,12.0,93.00003341222718,mgb_normalisation,93.00003341222715,90.34149293193902,3,4.0,False,5.188134431838989
,2024-07-03 15:50:05,sub_107,3,distance,cathedral,spatial_unmasking,2,78,0,0,_two_,talker-p284_sex-f_text-_two_.wav,p284,f,5,15,12.0,7.0,RX81,6,0.0,0.0,7.0,75.34149293193903,babble-reversed_n13_p229-two-p307-five-p318-four-p284-one-p248-nine-p268-eight.wav,10,RX81,11,0.0,0.0,12.0,93.00003341222718,mgb_normalisation,93.00003341222715,90.34149293193902,2,2.0,True,2.6878318786621094
,2024-07-03 15:50:11,sub_107,3,distance,cathedral,spatial_unmasking,2,79,0,0,_two_,talker-p284_sex-f_text-_two_.wav,p284,f,5,16,12.0,7.0,RX81,6,0.0,0.0,7.0,75.34149293193903,babble-reversed_n13_p229-eight-p256-nine-p318-four-p245-three-p268-five-p284-two.wav,10,RX81,11,0.0,0.0,12.0,93.00003341222715,mgb_normalisation,93.00003341222715,90.34149293193902,2,2.0,True,2.8779163360595703
,2024-07-03 15:50:17,sub_107,3,distance,cathedral,spatial_unmasking,2,80,0,0,_four_,talker-p284_sex-f_text-_four_.wav,p284,f,5,17,12.0,7.0,RX81,6,0.0,0.0,7.0,74.341492931939,babble-reversed_n13_p256-eight-p318-two-p307-five-p245-four-p268-nine-p284-one.wav,10,RX81,11,0.0,0.0,12.0,93.00003341222718,mgb_normalisation,93.00003341222715,90.34149293193902,4,4.0,True,3.5620763301849365
,2024-07-03 15:50:22,sub_107,3,distance,cathedral,spatial_unmasking,2,81,0,0,_five_,talker-p284_sex-f_text-_five_.wav,p284,f,5,18,12.0,7.0,RX81,6,0.0,0.0,7.0,74.34149293193902,babble-reversed_n13_p307-two-p256-four-p318-three-p284-eight-p248-five-p245-nine.wav,10,RX81,11,0.0,0.0,12.0,93.00003341222718,mgb_normalisation,93.00003341222715,90.34149293193902,5,5.0,True,3.000849485397339
,2024-07-03 15:50:28,sub_107,3,distance,cathedral,spatial_unmasking,2,82,0,0,_eight_,talker-p284_sex-f_text-_eight_.wav,p284,f,5,19,12.0,7.0,RX81,6,0.0,0.0,7.0,73.341492931939,babble-reversed_n13_p229-one-p318-eight-p256-three-p268-two-p245-five-p248-nine.wav,10,RX81,11,0.0,0.0,12.0,93.00003341222715,mgb_normalisation,93.00003341222715,90.34149293193902,8,2.0,False,3.624859094619751
,2024-07-03 15:50:34,sub_107,3,distance,cathedral,spatial_unmasking,2,83,0,0,_six_,talker-p284_sex-f_text-_six_.wav,p284,f,5,20,12.0,7.0,RX81,6,0.0,0.0,7.0,74.341492931939,babble-reversed_n13_p256-four-p229-two-p318-five-p268-one-p248-eight-p245-three.wav,10,RX81,11,0.0,0.0,12.0,93.00003341222715,mgb_normalisation,93.00003341222715,90.34149293193902,6,6.0,True,3.375830888748169
,2024-07-03 15:50:41,sub_107,3,distance,cathedral,spatial_unmasking,2,84,0,0,_six_,talker-p284_sex-f_text-_six_.wav,p284,f,5,21,12.0,7.0,RX81,6,0.0,0.0,7.0,74.341492931939,babble-reversed_n13_p229-five-p318-two-p307-eight-p268-three-p248-four-p245-one.wav,10,RX81,11,0.0,0.0,12.0,93.00003341222718,mgb_normalisation,93.00003341222715,90.34149293193902,6,6.0,True,4.501905918121338
,2024-07-03 15:50:46,sub_107,3,distance,cathedral,spatial_unmasking,2,85,0,0,_two_,talker-p284_sex-f_text-_two_.wav,p284,f,5,22,12.0,7.0,RX81,6,0.0,0.0,7.0,73.34149293193902,babble-reversed_n13_p229-two-p256-three-p318-eight-p284-five-p268-four-p245-one.wav,10,RX81,11,0.0,0.0,12.0,93.00003341222718,mgb_normalisation,93.00003341222715,90.34149293193902,2,2.0,True,2.811183214187622
,2024-07-03 15:50:52,sub_107,3,distance,cathedral,spatial_unmasking,2,86,0,0,_three_,talker-p284_sex-f_text-_three_.wav,p284,f,5,23,12.0,7.0,RX81,6,0.0,0.0,7.0,73.34149293193902,babble-reversed_n13_p256-five-p229-one-p318-three-p248-nine-p284-eight-p268-two.wav,10,RX81,11,0.0,0.0,12.0,93.00003341222718,mgb_normalisation,93.00003341222715,90.34149293193902,3,8.0,False,3.499485492706299
,2024-07-03 15:50:57,sub_107,3,distance,cathedral,spatial_unmasking,2,87,0,0,_two_,talker-p284_sex-f_text-_two_.wav,p284,f,5,24,12.0,7.0,RX81,6,0.0,0.0,7.0,74.34149293193902,babble-reversed_n13_p256-three-p318-one-p307-two-p284-nine-p268-four-p245-eight.wav,10,RX81,11,0.0,0.0,12.0,93.00003341222718,mgb_normalisation,93.00003341222715,90.34149293193902,2,2.0,True,3.125970363616944
,2024-07-03 15:51:03,sub_107,3,distance,cathedral,spatial_unmasking,2,88,0,0,_five_,talker-p284_sex-f_text-_five_.wav,p284,f,5,25,12.0,7.0,RX81,6,0.0,0.0,7.0,74.34149293193902,babble-reversed_n13_p256-eight-p229-three-p307-nine-p245-five-p248-four-p268-two.wav,10,RX81,11,0.0,0.0,12.0,93.00003341222715,mgb_normalisation,93.00003341222715,90.34149293193902,5,5.0,True,3.0624918937683105
,2024-07-03 15:51:08,sub_107,3,distance,cathedral,spatial_unmasking,2,89,0,0,_two_,talker-p284_sex-f_text-_two_.wav,p284,f,5,26,12.0,7.0,RX81,6,0.0,0.0,7.0,73.34149293193902,babble-reversed_n13_p229-nine-p256-four-p318-three-p268-eight-p248-two-p284-five.wav,10,RX81,11,0.0,0.0,12.0,93.00003341222718,mgb_normalisation,93.00003341222715,90.34149293193902,2,2.0,True,3.000965118408203
,2024-07-03 15:51:14,sub_107,3,distance,cathedral,spatial_unmasking,2,90,0,0,_two_,talker-p284_sex-f_text-_two_.wav,p284,f,5,27,12.0,7.0,RX81,6,0.0,0.0,7.0,73.34149293193902,babble-reversed_n13_p229-nine-p318-one-p307-two-p248-eight-p245-five-p284-four.wav,10,RX81,11,0.0,0.0,12.0,93.00003341222718,mgb_normalisation,93.00003341222715,90.34149293193902,2,2.0,True,3.06229829788208
,2024-07-03 15:51:20,sub_107,3,distance,cathedral,spatial_unmasking,2,91,0,0,_three_,talker-p284_sex-f_text-_three_.wav,p284,f,5,28,12.0,7.0,RX81,6,0.0,0.0,7.0,72.34149293193903,babble-reversed_n13_p229-two-p318-eight-p256-three-p268-one-p248-nine-p284-five.wav,10,RX81,11,0.0,0.0,12.0,93.00003341222715,mgb_normalisation,93.00003341222715,90.34149293193902,3,4.0,False,4.0601806640625
,2024-07-03 15:51:27,sub_107,3,distance,cathedral,spatial_unmasking,2,92,0,0,_two_,talker-p284_sex-f_text-_two_.wav,p284,f,5,29,12.0,7.0,RX81,6,0.0,0.0,7.0,73.34149293193902,babble-reversed_n13_p318-four-p256-five-p229-three-p284-one-p245-eight-p248-nine.wav,10,RX81,11,0.0,0.0,12.0,93.00003341222718,mgb_normalisation,93.00003341222715,90.34149293193902,2,2.0,True,4.686229944229126
,2024-07-03 15:51:33,sub_107,3,distance,cathedral,spatial_unmasking,2,93,0,0,_four_,talker-p284_sex-f_text-_four_.wav,p284,f,5,30,12.0,7.0,RX81,6,0.0,0.0,7.0,73.34149293193902,babble-reversed_n13_p318-nine-p307-eight-p229-two-p284-one-p248-three-p245-five.wav,10,RX81,11,0.0,0.0,12.0,93.00003341222718,mgb_normalisation,93.00003341222715,90.34149293193902,4,3.0,False,3.8758625984191895
,2024-07-03 15:51:39,sub_107,3,distance,cathedral,spatial_unmasking,2,94,0,0,_six_,talker-p284_sex-f_text-_six_.wav,p284,f,5,31,12.0,7.0,RX81,6,0.0,0.0,7.0,74.341492931939,babble-reversed_n13_p229-three-p307-one-p318-two-p245-eight-p268-five-p284-four.wav,10,RX81,11,0.0,0.0,12.0,93.00003341222718,mgb_normalisation,93.00003341222715,90.34149293193902,6,4.0,False,3.5587494373321533
,2024-07-03 15:51:44,sub_107,3,distance,cathedral,spatial_unmasking,2,95,0,0,_three_,talker-p284_sex-f_text-_three_.wav,p284,f,5,32,12.0,7.0,RX81,6,0.0,0.0,7.0,75.34149293193903,babble-reversed_n13_p256-eight-p318-two-p307-five-p245-four-p268-nine-p284-one.wav,10,RX81,11,0.0,0.0,12.0,93.00003341222718,mgb_normalisation,93.00003341222715,90.34149293193902,3,5.0,False,2.687288522720337
,2024-07-03 15:51:50,sub_107,3,distance,cathedral,spatial_unmasking,2,96,0,0,_two_,talker-p284_sex-f_text-_two_.wav,p284,f,5,33,12.0,7.0,RX81,6,0.0,0.0,7.0,76.34149293193902,babble-reversed_n13_p229-one-p318-eight-p256-three-p268-two-p245-five-p248-nine.wav,10,RX81,11,0.0,0.0,12.0,93.00003341222715,mgb_normalisation,93.00003341222715,90.34149293193902,2,2.0,True,3.1872501373291016
,2024-07-03 15:51:55,sub_107,3,distance,cathedral,spatial_unmasking,2,97,0,0,_six_,talker-p284_sex-f_text-_six_.wav,p284,f,5,34,12.0,7.0,RX81,6,0.0,0.0,7.0,76.34149293193902,babble-reversed_n13_p229-one-p318-eight-p256-three-p268-nine-p248-five-p284-four.wav,10,RX81,11,0.0,0.0,12.0,93.00003341222715,mgb_normalisation,93.00003341222715,90.34149293193902,6,6.0,True,2.437309980392456
,2024-07-03 15:52:00,sub_107,3,distance,cathedral,spatial_unmasking,2,98,0,0,_three_,talker-p284_sex-f_text-_three_.wav,p284,f,5,35,12.0,7.0,RX81,6,0.0,0.0,7.0,75.34149293193903,babble-reversed_n13_p229-five-p256-three-p318-nine-p248-two-p284-four-p268-one.wav,10,RX81,11,0.0,0.0,12.0,93.00003341222718,mgb_normalisation,93.00003341222715,90.34149293193902,3,3.0,True,2.4998040199279785
,2024-07-03 15:52:06,sub_107,3,distance,cathedral,spatial_unmasking,2,99,0,0,_eight_,talker-p284_sex-f_text-_eight_.wav,p284,f,5,36,12.0,7.0,RX81,6,0.0,0.0,7.0,75.341492931939,babble-reversed_n13_p318-one-p307-two-p256-eight-p284-three-p248-five-p245-four.wav,10,RX81,11,0.0,0.0,12.0,93.00003341222718,mgb_normalisation,93.00003341222715,90.34149293193902,8,2.0,False,4.247893571853638
,2024-07-03 15:52:11,sub_107,3,distance,cathedral,spatial_unmasking,2,100,0,0,_three_,talker-p284_sex-f_text-_three_.wav,p284,f,5,37,12.0,7.0,RX81,6,0.0,0.0,7.0,76.34149293193902,babble-reversed_n13_p229-five-p256-three-p318-nine-p248-two-p284-four-p268-one.wav,10,RX81,11,0.0,0.0,12.0,93.00003341222718,mgb_normalisation,93.00003341222715,90.34149293193902,3,3.0,True,2.6897358894348145
,2024-07-03 15:52:17,sub_107,3,distance,cathedral,spatial_unmasking,2,101,0,0,_two_,talker-p284_sex-f_text-_two_.wav,p284,f,5,38,12.0,7.0,RX81,6,0.0,0.0,7.0,76.34149293193902,babble-reversed_n13_p229-nine-p307-five-p256-two-p248-three-p245-one-p268-eight.wav,10,RX81,11,0.0,0.0,12.0,93.00003341222715,mgb_normalisation,93.00003341222715,90.34149293193902,2,2.0,True,2.9994828701019287
,2024-07-03 15:53:46,sub_107,3,distance,cathedral,spatial_unmasking,3,102,0,0,_four_,talker-p284_sex-f_text-_four_.wav,p284,f,5,1,8.0,7.0,RX81,6,0.0,0.0,7.0,92.34149293193902,babble-reversed_n13_p256-nine-p307-four-p229-one-p284-three-p248-two-p245-five.wav,6,RX81,7,0.0,0.0,8.0,91.58892582949888,mgb_normalisation,91.58892582949886,90.34149293193902,4,4.0,True,3.4372928142547607
,2024-07-03 15:53:50,sub_107,3,distance,cathedral,spatial_unmasking,3,103,0,0,_one_,talker-p284_sex-f_text-_one_.wav,p284,f,5,2,8.0,7.0,RX81,6,0.0,0.0,7.0,88.34149293193902,babble-reversed_n13_p307-five-p229-two-p318-four-p248-three-p245-nine-p268-eight.wav,6,RX81,7,0.0,0.0,8.0,91.58892582949886,mgb_normalisation,91.58892582949886,90.34149293193902,1,1.0,True,2.249824047088623
,2024-07-03 15:53:55,sub_107,3,distance,cathedral,spatial_unmasking,3,104,0,0,_three_,talker-p284_sex-f_text-_three_.wav,p284,f,5,3,8.0,7.0,RX81,6,0.0,0.0,7.0,84.34149293193903,babble-reversed_n13_p229-five-p318-three-p307-two-p245-four-p284-nine-p248-eight.wav,6,RX81,7,0.0,0.0,8.0,91.58892582949886,mgb_normalisation,91.58892582949886,90.34149293193902,3,3.0,True,2.874752998352051
,2024-07-03 15:54:01,sub_107,3,distance,cathedral,spatial_unmasking,3,105,0,0,_nine_,talker-p284_sex-f_text-_nine_.wav,p284,f,5,4,8.0,7.0,RX81,6,0.0,0.0,7.0,80.341492931939,babble-reversed_n13_p256-eight-p318-two-p307-five-p245-four-p268-nine-p284-one.wav,6,RX81,7,0.0,0.0,8.0,91.58892582949888,mgb_normalisation,91.58892582949886,90.34149293193902,9,9.0,True,3.0605287551879883
,2024-07-03 15:54:06,sub_107,3,distance,cathedral,spatial_unmasking,3,106,0,0,_eight_,talker-p284_sex-f_text-_eight_.wav,p284,f,5,5,8.0,7.0,RX81,6,0.0,0.0,7.0,76.34149293193902,babble-reversed_n13_p318-nine-p307-eight-p229-two-p284-one-p248-three-p245-five.wav,6,RX81,7,0.0,0.0,8.0,91.58892582949886,mgb_normalisation,91.58892582949886,90.34149293193902,8,8.0,True,2.872846364974976
,2024-07-03 15:54:13,sub_107,3,distance,cathedral,spatial_unmasking,3,107,0,0,_six_,talker-p284_sex-f_text-_six_.wav,p284,f,5,6,8.0,7.0,RX81,6,0.0,0.0,7.0,72.341492931939,babble-reversed_n13_p229-three-p256-one-p307-two-p284-eight-p268-five-p248-nine.wav,6,RX81,7,0.0,0.0,8.0,91.58892582949888,mgb_normalisation,91.58892582949886,90.34149293193902,6,8.0,False,4.313054800033569
,2024-07-03 15:54:20,sub_107,3,distance,cathedral,spatial_unmasking,3,108,0,0,_four_,talker-p284_sex-f_text-_four_.wav,p284,f,5,7,8.0,7.0,RX81,6,0.0,0.0,7.0,74.341492931939,babble-reversed_n13_p229-five-p318-two-p307-eight-p268-three-p248-four-p245-one.wav,6,RX81,7,0.0,0.0,8.0,91.58892582949888,mgb_normalisation,91.58892582949886,90.34149293193902,4,3.0,False,4.811087369918823
,2024-07-03 15:54:25,sub_107,3,distance,cathedral,spatial_unmasking,3,109,0,0,_two_,talker-p284_sex-f_text-_two_.wav,p284,f,5,8,8.0,7.0,RX81,6,0.0,0.0,7.0,76.34149293193902,babble-reversed_n13_p229-nine-p318-one-p307-two-p248-eight-p245-five-p284-four.wav,6,RX81,7,0.0,0.0,8.0,91.58892582949886,mgb_normalisation,91.58892582949886,90.34149293193902,2,2.0,True,2.249824047088623
,2024-07-03 15:54:30,sub_107,3,distance,cathedral,spatial_unmasking,3,110,0,0,_three_,talker-p284_sex-f_text-_three_.wav,p284,f,5,9,8.0,7.0,RX81,6,0.0,0.0,7.0,76.34149293193902,babble-reversed_n13_p318-five-p229-four-p256-eight-p284-one-p245-three-p248-two.wav,6,RX81,7,0.0,0.0,8.0,91.58892582949888,mgb_normalisation,91.58892582949886,90.34149293193902,3,3.0,True,2.374814510345459
,2024-07-03 15:54:35,sub_107,3,distance,cathedral,spatial_unmasking,3,111,0,0,_one_,talker-p284_sex-f_text-_one_.wav,p284,f,5,10,8.0,7.0,RX81,6,0.0,0.0,7.0,74.34149293193902,babble-reversed_n13_p307-five-p229-three-p318-nine-p245-four-p268-eight-p284-two.wav,6,RX81,7,0.0,0.0,8.0,91.58892582949886,mgb_normalisation,91.58892582949886,90.34149293193902,1,4.0,False,3.1872503757476807
,2024-07-03 15:54:40,sub_107,3,distance,cathedral,spatial_unmasking,3,112,0,0,_nine_,talker-p284_sex-f_text-_nine_.wav,p284,f,5,11,8.0,7.0,RX81,6,0.0,0.0,7.0,75.34149293193902,babble-reversed_n13_p307-five-p229-three-p318-nine-p245-four-p268-eight-p284-two.wav,6,RX81,7,0.0,0.0,8.0,91.58892582949886,mgb_normalisation,91.58892582949886,90.34149293193902,9,9.0,True,2.6872894763946533
,2024-07-03 15:54:46,sub_107,3,distance,cathedral,spatial_unmasking,3,113,0,0,_three_,talker-p284_sex-f_text-_three_.wav,p284,f,5,12,8.0,7.0,RX81,6,0.0,0.0,7.0,75.34149293193903,babble-reversed_n13_p256-eight-p318-five-p307-four-p245-three-p268-one-p284-nine.wav,6,RX81,7,0.0,0.0,8.0,91.58892582949886,mgb_normalisation,91.58892582949886,90.34149293193902,3,3.0,True,3.4377479553222656
,2024-07-03 15:54:52,sub_107,3,distance,cathedral,spatial_unmasking,3,114,0,0,_eight_,talker-p284_sex-f_text-_eight_.wav,p284,f,5,13,8.0,7.0,RX81,6,0.0,0.0,7.0,74.341492931939,babble-reversed_n13_p318-five-p256-nine-p307-two-p245-eight-p248-one-p284-four.wav,6,RX81,7,0.0,0.0,8.0,91.58892582949888,mgb_normalisation,91.58892582949886,90.34149293193902,8,4.0,False,3.122431755065918
,2024-07-03 15:54:58,sub_107,3,distance,cathedral,spatial_unmasking,3,115,0,0,_eight_,talker-p284_sex-f_text-_eight_.wav,p284,f,5,14,8.0,7.0,RX81,6,0.0,0.0,7.0,75.341492931939,babble-reversed_n13_p318-three-p307-one-p256-five-p248-nine-p245-two-p284-eight.wav,6,RX81,7,0.0,0.0,8.0,91.58892582949888,mgb_normalisation,91.58892582949886,90.34149293193902,8,5.0,False,3.874776840209961
,2024-07-03 15:55:05,sub_107,3,distance,cathedral,spatial_unmasking,3,116,0,0,_four_,talker-p284_sex-f_text-_four_.wav,p284,f,5,15,8.0,7.0,RX81,6,0.0,0.0,7.0,76.34149293193902,babble-reversed_n13_p229-five-p318-two-p307-eight-p268-three-p248-four-p245-one.wav,6,RX81,7,0.0,0.0,8.0,91.58892582949888,mgb_normalisation,91.58892582949886,90.34149293193902,4,4.0,True,4.437894582748413
,2024-07-03 15:55:10,sub_107,3,distance,cathedral,spatial_unmasking,3,117,0,0,_nine_,talker-p284_sex-f_text-_nine_.wav,p284,f,5,16,8.0,7.0,RX81,6,0.0,0.0,7.0,76.34149293193902,babble-reversed_n13_p229-five-p256-one-p318-three-p248-nine-p268-four-p284-eight.wav,6,RX81,7,0.0,0.0,8.0,91.58892582949886,mgb_normalisation,91.58892582949886,90.34149293193902,9,9.0,True,2.937268018722534
,2024-07-03 15:55:15,sub_107,3,distance,cathedral,spatial_unmasking,3,118,0,0,_three_,talker-p284_sex-f_text-_three_.wav,p284,f,5,17,8.0,7.0,RX81,6,0.0,0.0,7.0,75.34149293193903,babble-reversed_n13_p229-one-p318-nine-p256-four-p284-eight-p268-five-p245-two.wav,6,RX81,7,0.0,0.0,8.0,91.58892582949886,mgb_normalisation,91.58892582949886,90.34149293193902,3,2.0,False,2.6872894763946533
,2024-07-03 15:55:19,sub_107,3,distance,cathedral,spatial_unmasking,3,119,0,0,_three_,talker-p284_sex-f_text-_three_.wav,p284,f,5,18,8.0,7.0,RX81,6,0.0,0.0,7.0,76.34149293193902,babble-reversed_n13_p256-two-p307-five-p318-nine-p248-eight-p245-four-p284-one.wav,6,RX81,7,0.0,0.0,8.0,91.58892582949888,mgb_normalisation,91.58892582949886,90.34149293193902,3,3.0,True,1.6873674392700195
,2024-07-03 15:55:24,sub_107,3,distance,cathedral,spatial_unmasking,3,120,0,0,_four_,talker-p284_sex-f_text-_four_.wav,p284,f,5,19,8.0,7.0,RX81,6,0.0,0.0,7.0,76.34149293193902,babble-reversed_n13_p256-three-p318-two-p229-nine-p248-four-p284-one-p268-eight.wav,6,RX81,7,0.0,0.0,8.0,91.58892582949886,mgb_normalisation,91.58892582949886,90.34149293193902,4,4.0,True,2.0631191730499268
,2024-07-03 15:55:29,sub_107,3,distance,cathedral,spatial_unmasking,3,121,0,0,_five_,talker-p284_sex-f_text-_five_.wav,p284,f,5,20,8.0,7.0,RX81,6,0.0,0.0,7.0,75.34149293193902,babble-reversed_n13_p256-nine-p307-four-p229-one-p284-three-p248-two-p245-five.wav,6,RX81,7,0.0,0.0,8.0,91.58892582949888,mgb_normalisation,91.58892582949886,90.34149293193902,5,5.0,True,2.99849271774292
,2024-07-03 15:55:35,sub_107,3,distance,cathedral,spatial_unmasking,3,122,0,0,_one_,talker-p284_sex-f_text-_one_.wav,p284,f,5,21,8.0,7.0,RX81,6,0.0,0.0,7.0,75.34149293193902,babble-reversed_n13_p256-four-p229-eight-p307-five-p248-three-p245-one-p284-two.wav,6,RX81,7,0.0,0.0,8.0,91.58892582949886,mgb_normalisation,91.58892582949886,90.34149293193902,1,4.0,False,3.875311136245728
,2024-07-03 15:55:41,sub_107,3,distance,cathedral,spatial_unmasking,3,123,0,0,_three_,talker-p284_sex-f_text-_three_.wav,p284,f,5,22,8.0,7.0,RX81,6,0.0,0.0,7.0,76.34149293193902,babble-reversed_n13_p318-five-p229-four-p256-eight-p284-one-p245-three-p248-two.wav,6,RX81,7,0.0,0.0,8.0,91.58892582949888,mgb_normalisation,91.58892582949886,90.34149293193902,3,3.0,True,3.0622596740722656
,2024-07-03 15:55:47,sub_107,3,distance,cathedral,spatial_unmasking,3,124,0,0,_eight_,talker-p284_sex-f_text-_eight_.wav,p284,f,5,23,8.0,7.0,RX81,6,0.0,0.0,7.0,76.34149293193902,babble-reversed_n13_p256-eight-p229-three-p307-nine-p245-five-p248-four-p268-two.wav,6,RX81,7,0.0,0.0,8.0,91.58892582949886,mgb_normalisation,91.58892582949886,90.34149293193902,8,4.0,False,3.937742948532105
,2024-07-03 15:55:53,sub_107,3,distance,cathedral,spatial_unmasking,3,125,0,0,_four_,talker-p284_sex-f_text-_four_.wav,p284,f,5,24,8.0,7.0,RX81,6,0.0,0.0,7.0,77.341492931939,babble-reversed_n13_p229-three-p256-one-p307-two-p284-eight-p268-five-p248-nine.wav,6,RX81,7,0.0,0.0,8.0,91.58892582949888,mgb_normalisation,91.58892582949886,90.34149293193902,4,3.0,False,3.3761136531829834
,2024-07-03 15:55:57,sub_107,3,distance,cathedral,spatial_unmasking,3,126,0,0,_six_,talker-p284_sex-f_text-_six_.wav,p284,f,5,25,8.0,7.0,RX81,6,0.0,0.0,7.0,78.34149293193902,babble-reversed_n13_p318-five-p256-nine-p307-eight-p248-two-p245-four-p284-three.wav,6,RX81,7,0.0,0.0,8.0,91.58892582949886,mgb_normalisation,91.58892582949886,90.34149293193902,6,6.0,True,1.9999167919158936
,2024-07-03 15:56:01,sub_107,3,distance,cathedral,spatial_unmasking,3,127,0,0,_one_,talker-p284_sex-f_text-_one_.wav,p284,f,5,26,8.0,7.0,RX81,6,0.0,0.0,7.0,78.34149293193902,babble-reversed_n13_p229-three-p256-one-p307-two-p284-eight-p268-five-p248-nine.wav,6,RX81,7,0.0,0.0,8.0,91.58892582949888,mgb_normalisation,91.58892582949886,90.34149293193902,1,1.0,True,1.622602462768555
,2024-07-03 15:56:05,sub_107,3,distance,cathedral,spatial_unmasking,3,128,0,0,_three_,talker-p284_sex-f_text-_three_.wav,p284,f,5,27,8.0,7.0,RX81,6,0.0,0.0,7.0,77.34149293193903,babble-reversed_n13_p229-five-p318-two-p307-eight-p268-three-p248-four-p245-one.wav,6,RX81,7,0.0,0.0,8.0,91.58892582949888,mgb_normalisation,91.58892582949886,90.34149293193902,3,3.0,True,1.499882698059082
,2024-07-03 15:56:10,sub_107,3,distance,cathedral,spatial_unmasking,3,129,0,0,_four_,talker-p284_sex-f_text-_four_.wav,p284,f,5,28,8.0,7.0,RX81,6,0.0,0.0,7.0,77.341492931939,babble-reversed_n13_p318-nine-p256-five-p307-eight-p268-three-p248-one-p245-four.wav,6,RX81,7,0.0,0.0,8.0,91.58892582949888,mgb_normalisation,91.58892582949886,90.34149293193902,4,2.0,False,2.43730902671814
,2024-07-03 15:56:16,sub_107,3,distance,cathedral,spatial_unmasking,3,130,0,0,_eight_,talker-p284_sex-f_text-_eight_.wav,p284,f,5,29,8.0,7.0,RX81,6,0.0,0.0,7.0,78.341492931939,babble-reversed_n13_p256-eight-p318-two-p307-five-p245-four-p268-nine-p284-one.wav,6,RX81,7,0.0,0.0,8.0,91.58892582949888,mgb_normalisation,91.58892582949886,90.34149293193902,8,4.0,False,3.187250852584839
,2024-07-03 15:56:22,sub_107,3,distance,cathedral,spatial_unmasking,3,131,0,0,_four_,talker-p284_sex-f_text-_four_.wav,p284,f,5,30,8.0,7.0,RX81,6,0.0,0.0,7.0,79.341492931939,babble-reversed_n13_p307-two-p256-four-p318-three-p284-eight-p248-five-p245-nine.wav,6,RX81,7,0.0,0.0,8.0,91.58892582949888,mgb_normalisation,91.58892582949886,90.34149293193902,4,3.0,False,3.747644424438477
,2024-07-03 15:56:26,sub_107,3,distance,cathedral,spatial_unmasking,3,132,0,0,_six_,talker-p284_sex-f_text-_six_.wav,p284,f,5,31,8.0,7.0,RX81,6,0.0,0.0,7.0,80.341492931939,babble-reversed_n13_p318-five-p256-nine-p307-eight-p248-two-p245-four-p284-three.wav,6,RX81,7,0.0,0.0,8.0,91.58892582949886,mgb_normalisation,91.58892582949886,90.34149293193902,6,6.0,True,2.183472156524658
,2024-07-03 15:56:31,sub_107,3,distance,cathedral,spatial_unmasking,3,133,0,0,_two_,talker-p284_sex-f_text-_two_.wav,p284,f,5,32,8.0,7.0,RX81,6,0.0,0.0,7.0,80.34149293193903,babble-reversed_n13_p229-nine-p307-five-p256-two-p248-three-p245-one-p268-eight.wav,6,RX81,7,0.0,0.0,8.0,91.58892582949886,mgb_normalisation,91.58892582949886,90.34149293193902,2,2.0,True,1.8748531341552728
,2024-07-03 15:59:11,sub_107,3,distance,cathedral,spatial_unmasking,4,134,0,0,_four_,talker-p284_sex-f_text-_four_.wav,p284,f,5,1,6.0,7.0,RX81,6,0.0,0.0,7.0,92.34149293193902,babble-reversed_n13_p229-three-p307-one-p318-two-p245-eight-p268-five-p284-four.wav,4,RX81,5,0.0,0.0,6.0,89.31368318402099,mgb_normalisation,89.31368318402099,90.34149293193902,4,4.0,True,2.937269449234009
,2024-07-03 15:59:16,sub_107,3,distance,cathedral,spatial_unmasking,4,135,0,0,_eight_,talker-p284_sex-f_text-_eight_.wav,p284,f,5,2,6.0,7.0,RX81,6,0.0,0.0,7.0,88.34149293193902,babble-reversed_n13_p256-three-p318-one-p307-two-p284-nine-p268-four-p245-eight.wav,4,RX81,5,0.0,0.0,6.0,89.31368318402099,mgb_normalisation,89.31368318402099,90.34149293193902,8,8.0,True,2.3748137950897217
,2024-07-03 15:59:20,sub_107,3,distance,cathedral,spatial_unmasking,4,136,0,0,_two_,talker-p284_sex-f_text-_two_.wav,p284,f,5,3,6.0,7.0,RX81,6,0.0,0.0,7.0,84.34149293193903,babble-reversed_n13_p229-two-p318-eight-p256-three-p268-one-p248-nine-p284-five.wav,4,RX81,5,0.0,0.0,6.0,89.31368318402099,mgb_normalisation,89.31368318402099,90.34149293193902,2,2.0,True,2.124809980392456
,2024-07-03 15:59:25,sub_107,3,distance,cathedral,spatial_unmasking,4,137,0,0,_two_,talker-p284_sex-f_text-_two_.wav,p284,f,5,4,6.0,7.0,RX81,6,0.0,0.0,7.0,80.34149293193903,babble-reversed_n13_p229-nine-p318-one-p307-two-p248-eight-p245-five-p284-four.wav,4,RX81,5,0.0,0.0,6.0,89.31368318402099,mgb_normalisation,89.31368318402099,90.34149293193902,2,2.0,True,1.8748528957366943
,2024-07-03 15:59:29,sub_107,3,distance,cathedral,spatial_unmasking,4,138,0,0,_six_,talker-p284_sex-f_text-_six_.wav,p284,f,5,5,6.0,7.0,RX81,6,0.0,0.0,7.0,76.34149293193902,babble-reversed_n13_p229-one-p318-eight-p256-three-p268-two-p245-five-p248-nine.wav,4,RX81,5,0.0,0.0,6.0,89.31368318402099,mgb_normalisation,89.31368318402099,90.34149293193902,6,6.0,True,2.0003368854522705
,2024-07-03 15:59:35,sub_107,3,distance,cathedral,spatial_unmasking,4,139,0,0,_eight_,talker-p284_sex-f_text-_eight_.wav,p284,f,5,6,6.0,7.0,RX81,6,0.0,0.0,7.0,72.341492931939,babble-reversed_n13_p307-nine-p229-one-p256-eight-p248-four-p284-two-p268-three.wav,4,RX81,5,0.0,0.0,6.0,89.31368318402099,mgb_normalisation,89.31368318402099,90.34149293193902,8,8.0,True,3.8137378692626953
,2024-07-03 15:59:41,sub_107,3,distance,cathedral,spatial_unmasking,4,140,0,0,_five_,talker-p284_sex-f_text-_five_.wav,p284,f,5,7,6.0,7.0,RX81,6,0.0,0.0,7.0,68.34149293193902,babble-reversed_n13_p229-three-p256-one-p307-two-p284-eight-p268-five-p248-nine.wav,4,RX81,5,0.0,0.0,6.0,89.31368318402099,mgb_normalisation,89.31368318402099,90.34149293193902,5,9.0,False,3.2497453689575195
,2024-07-03 15:59:46,sub_107,3,distance,cathedral,spatial_unmasking,4,141,0,0,_six_,talker-p284_sex-f_text-_six_.wav,p284,f,5,8,6.0,7.0,RX81,6,0.0,0.0,7.0,70.34149293193902,babble-reversed_n13_p307-one-p318-five-p229-four-p268-eight-p284-two-p245-three.wav,4,RX81,5,0.0,0.0,6.0,89.31368318402099,mgb_normalisation,89.31368318402099,90.34149293193902,6,3.0,False,2.874774932861328
,2024-07-03 15:59:52,sub_107,3,distance,cathedral,spatial_unmasking,4,142,0,0,_nine_,talker-p284_sex-f_text-_nine_.wav,p284,f,5,9,6.0,7.0,RX81,6,0.0,0.0,7.0,72.341492931939,babble-reversed_n13_p307-two-p229-one-p256-five-p248-nine-p284-three-p268-eight.wav,4,RX81,5,0.0,0.0,6.0,89.313683184021,mgb_normalisation,89.31368318402099,90.34149293193902,9,2.0,False,3.811833381652832
,2024-07-03 15:59:59,sub_107,3,distance,cathedral,spatial_unmasking,4,143,0,0,_eight_,talker-p284_sex-f_text-_eight_.wav,p284,f,5,10,6.0,7.0,RX81,6,0.0,0.0,7.0,74.341492931939,babble-reversed_n13_p256-three-p318-two-p229-nine-p248-four-p284-one-p268-eight.wav,4,RX81,5,0.0,0.0,6.0,89.31368318402099,mgb_normalisation,89.31368318402099,90.34149293193902,8,3.0,False,4.54764199256897
,2024-07-03 16:00:05,sub_107,3,distance,cathedral,spatial_unmasking,4,144,0,0,_three_,talker-p284_sex-f_text-_three_.wav,p284,f,5,11,6.0,7.0,RX81,6,0.0,0.0,7.0,76.34149293193902,babble-reversed_n13_p256-nine-p307-four-p229-one-p284-three-p248-two-p245-five.wav,4,RX81,5,0.0,0.0,6.0,89.31368318402099,mgb_normalisation,89.31368318402099,90.34149293193902,3,3.0,True,3.3746533393859863
,2024-07-03 16:00:12,sub_107,3,distance,cathedral,spatial_unmasking,4,145,0,0,_four_,talker-p284_sex-f_text-_four_.wav,p284,f,5,12,6.0,7.0,RX81,6,0.0,0.0,7.0,76.34149293193902,babble-reversed_n13_p256-four-p229-two-p318-five-p268-one-p248-eight-p245-three.wav,4,RX81,5,0.0,0.0,6.0,89.31368318402099,mgb_normalisation,89.31368318402099,90.34149293193902,4,4.0,True,3.997709274291992
,2024-07-03 16:00:18,sub_107,3,distance,cathedral,spatial_unmasking,4,146,0,0,_six_,talker-p284_sex-f_text-_six_.wav,p284,f,5,13,6.0,7.0,RX81,6,0.0,0.0,7.0,74.341492931939,babble-reversed_n13_p229-two-p318-eight-p256-three-p268-one-p248-nine-p284-five.wav,4,RX81,5,0.0,0.0,6.0,89.31368318402099,mgb_normalisation,89.31368318402099,90.34149293193902,6,2.0,False,3.688634395599365
,2024-07-03 16:00:22,sub_107,3,distance,cathedral,spatial_unmasking,4,147,0,0,_one_,talker-p284_sex-f_text-_one_.wav,p284,f,5,14,6.0,7.0,RX81,6,0.0,0.0,7.0,75.34149293193902,babble-reversed_n13_p229-five-p256-three-p318-nine-p248-two-p284-four-p268-one.wav,4,RX81,5,0.0,0.0,6.0,89.313683184021,mgb_normalisation,89.31368318402099,90.34149293193902,1,4.0,False,2.4370577335357666
,2024-07-03 16:00:29,sub_107,3,distance,cathedral,spatial_unmasking,4,148,0,0,_eight_,talker-p284_sex-f_text-_eight_.wav,p284,f,5,15,6.0,7.0,RX81,6,0.0,0.0,7.0,76.34149293193902,babble-reversed_n13_p229-three-p307-one-p318-two-p245-eight-p268-five-p284-four.wav,4,RX81,5,0.0,0.0,6.0,89.31368318402099,mgb_normalisation,89.31368318402099,90.34149293193902,8,2.0,False,4.1889379024505615
,2024-07-03 16:00:37,sub_107,3,distance,cathedral,spatial_unmasking,4,149,0,0,_three_,talker-p284_sex-f_text-_three_.wav,p284,f,5,16,6.0,7.0,RX81,6,0.0,0.0,7.0,77.34149293193903,babble-reversed_n13_p256-eight-p318-five-p307-four-p245-three-p268-one-p284-nine.wav,4,RX81,5,0.0,0.0,6.0,89.31368318402099,mgb_normalisation,89.31368318402099,90.34149293193902,3,3.0,True,5.498148918151856
,2024-07-03 16:00:41,sub_107,3,distance,cathedral,spatial_unmasking,4,150,0,0,_one_,talker-p284_sex-f_text-_one_.wav,p284,f,5,17,6.0,7.0,RX81,6,0.0,0.0,7.0,77.34149293193902,babble-reversed_n13_p318-one-p307-two-p256-eight-p284-three-p248-five-p245-four.wav,4,RX81,5,0.0,0.0,6.0,89.313683184021,mgb_normalisation,89.31368318402099,90.34149293193902,1,1.0,True,1.999842643737793
,2024-07-03 16:00:47,sub_107,3,distance,cathedral,spatial_unmasking,4,151,0,0,_eight_,talker-p284_sex-f_text-_eight_.wav,p284,f,5,18,6.0,7.0,RX81,6,0.0,0.0,7.0,76.34149293193902,babble-reversed_n13_p229-two-p307-five-p318-four-p284-one-p248-nine-p268-eight.wav,4,RX81,5,0.0,0.0,6.0,89.31368318402099,mgb_normalisation,89.31368318402099,90.34149293193902,8,4.0,False,2.8112502098083496
,2024-07-03 16:00:52,sub_107,3,distance,cathedral,spatial_unmasking,4,152,0,0,_five_,talker-p284_sex-f_text-_five_.wav,p284,f,5,19,6.0,7.0,RX81,6,0.0,0.0,7.0,77.34149293193902,babble-reversed_n13_p256-three-p318-one-p307-two-p284-nine-p268-four-p245-eight.wav,4,RX81,5,0.0,0.0,6.0,89.31368318402099,mgb_normalisation,89.31368318402099,90.34149293193902,5,5.0,True,3.3099796772003174
,2024-07-03 16:00:58,sub_107,3,distance,cathedral,spatial_unmasking,4,153,0,0,_five_,talker-p284_sex-f_text-_five_.wav,p284,f,5,20,6.0,7.0,RX81,6,0.0,0.0,7.0,77.34149293193902,babble-reversed_n13_p256-eight-p318-two-p307-five-p245-four-p268-nine-p284-one.wav,4,RX81,5,0.0,0.0,6.0,89.31368318402099,mgb_normalisation,89.31368318402099,90.34149293193902,5,5.0,True,3.236379861831665
,2024-07-03 16:01:03,sub_107,3,distance,cathedral,spatial_unmasking,4,154,0,0,_five_,talker-p284_sex-f_text-_five_.wav,p284,f,5,21,6.0,7.0,RX81,6,0.0,0.0,7.0,76.34149293193902,babble-reversed_n13_p229-three-p256-one-p307-two-p284-eight-p268-five-p248-nine.wav,4,RX81,5,0.0,0.0,6.0,89.31368318402099,mgb_normalisation,89.31368318402099,90.34149293193902,5,6.0,False,2.9999594688415527
,2024-07-03 16:01:09,sub_107,3,distance,cathedral,spatial_unmasking,4,155,0,0,_eight_,talker-p284_sex-f_text-_eight_.wav,p284,f,5,22,6.0,7.0,RX81,6,0.0,0.0,7.0,77.341492931939,babble-reversed_n13_p256-nine-p307-four-p229-one-p284-three-p248-two-p245-five.wav,4,RX81,5,0.0,0.0,6.0,89.31368318402099,mgb_normalisation,89.31368318402099,90.34149293193902,8,3.0,False,3.375684976577759
,2024-07-03 16:01:13,sub_107,3,distance,cathedral,spatial_unmasking,4,156,0,0,_five_,talker-p284_sex-f_text-_five_.wav,p284,f,5,23,6.0,7.0,RX81,6,0.0,0.0,7.0,78.34149293193902,babble-reversed_n13_p256-eight-p229-three-p307-nine-p245-five-p248-four-p268-two.wav,4,RX81,5,0.0,0.0,6.0,89.31368318402099,mgb_normalisation,89.31368318402099,90.34149293193902,5,6.0,False,1.9367408752441408
,2024-07-03 16:01:17,sub_107,3,distance,cathedral,spatial_unmasking,4,157,0,0,_one_,talker-p284_sex-f_text-_one_.wav,p284,f,5,24,6.0,7.0,RX81,6,0.0,0.0,7.0,79.34149293193902,babble-reversed_n13_p229-two-p256-three-p318-eight-p284-five-p268-four-p245-one.wav,4,RX81,5,0.0,0.0,6.0,89.31368318402099,mgb_normalisation,89.31368318402099,90.34149293193902,1,1.0,True,1.4987995624542236
,2024-07-03 16:01:23,sub_107,3,distance,cathedral,spatial_unmasking,4,158,0,0,_four_,talker-p284_sex-f_text-_four_.wav,p284,f,5,25,6.0,7.0,RX81,6,0.0,0.0,7.0,79.341492931939,babble-reversed_n13_p307-five-p229-two-p318-four-p248-three-p245-nine-p268-eight.wav,4,RX81,5,0.0,0.0,6.0,89.31368318402099,mgb_normalisation,89.31368318402099,90.34149293193902,4,2.0,False,3.189339160919189
,2024-07-03 16:01:27,sub_107,3,distance,cathedral,spatial_unmasking,4,159,0,0,_five_,talker-p284_sex-f_text-_five_.wav,p284,f,5,26,6.0,7.0,RX81,6,0.0,0.0,7.0,80.34149293193903,babble-reversed_n13_p229-five-p318-two-p307-eight-p268-three-p248-four-p245-one.wav,4,RX81,5,0.0,0.0,6.0,89.313683184021,mgb_normalisation,89.31368318402099,90.34149293193902,5,5.0,True,1.7479050159454346
,2024-07-03 16:01:31,sub_107,3,distance,cathedral,spatial_unmasking,4,160,0,0,_two_,talker-p284_sex-f_text-_two_.wav,p284,f,5,27,6.0,7.0,RX81,6,0.0,0.0,7.0,80.34149293193903,babble-reversed_n13_p307-five-p229-three-p318-nine-p245-four-p268-eight-p284-two.wav,4,RX81,5,0.0,0.0,6.0,89.31368318402099,mgb_normalisation,89.31368318402099,90.34149293193902,2,2.0,True,1.7498624324798584
,2024-07-03 16:01:36,sub_107,3,distance,cathedral,spatial_unmasking,4,161,0,0,_six_,talker-p284_sex-f_text-_six_.wav,p284,f,5,28,6.0,7.0,RX81,6,0.0,0.0,7.0,79.341492931939,babble-reversed_n13_p229-three-p307-one-p318-two-p245-eight-p268-five-p284-four.wav,4,RX81,5,0.0,0.0,6.0,89.31368318402099,mgb_normalisation,89.31368318402099,90.34149293193902,6,6.0,True,2.187329053878784
,2024-07-03 16:01:41,sub_107,3,distance,cathedral,spatial_unmasking,4,162,0,0,_three_,talker-p284_sex-f_text-_three_.wav,p284,f,5,29,6.0,7.0,RX81,6,0.0,0.0,7.0,79.34149293193903,babble-reversed_n13_p318-five-p229-three-p256-four-p268-eight-p248-one-p245-nine.wav,4,RX81,5,0.0,0.0,6.0,89.31368318402099,mgb_normalisation,89.31368318402099,90.34149293193902,3,3.0,True,2.624799966812134
,2024-07-03 16:01:45,sub_107,3,distance,cathedral,spatial_unmasking,4,163,0,0,_two_,talker-p284_sex-f_text-_two_.wav,p284,f,5,30,6.0,7.0,RX81,6,0.0,0.0,7.0,78.34149293193902,babble-reversed_n13_p318-five-p229-three-p256-four-p268-eight-p248-one-p245-nine.wav,4,RX81,5,0.0,0.0,6.0,89.31368318402099,mgb_normalisation,89.31368318402099,90.34149293193902,2,2.0,True,1.999842882156372
,2024-07-03 16:01:50,sub_107,3,distance,cathedral,spatial_unmasking,4,164,0,0,_nine_,talker-p284_sex-f_text-_nine_.wav,p284,f,5,31,6.0,7.0,RX81,6,0.0,0.0,7.0,78.34149293193902,babble-reversed_n13_p318-five-p256-nine-p307-eight-p248-two-p245-four-p284-three.wav,4,RX81,5,0.0,0.0,6.0,89.31368318402099,mgb_normalisation,89.31368318402099,90.34149293193902,9,9.0,True,2.312318086624145
,2024-07-03 16:01:56,sub_107,3,distance,cathedral,spatial_unmasking,4,165,0,0,_six_,talker-p284_sex-f_text-_six_.wav,p284,f,5,32,6.0,7.0,RX81,6,0.0,0.0,7.0,77.341492931939,babble-reversed_n13_p307-five-p229-two-p318-four-p248-three-p245-nine-p268-eight.wav,4,RX81,5,0.0,0.0,6.0,89.31368318402099,mgb_normalisation,89.31368318402099,90.34149293193902,6,4.0,False,3.873984098434448
,2024-07-03 16:02:02,sub_107,3,distance,cathedral,spatial_unmasking,4,166,0,0,_eight_,talker-p284_sex-f_text-_eight_.wav,p284,f,5,33,6.0,7.0,RX81,6,0.0,0.0,7.0,78.341492931939,babble-reversed_n13_p229-three-p307-one-p318-two-p245-eight-p268-five-p284-four.wav,4,RX81,5,0.0,0.0,6.0,89.31368318402099,mgb_normalisation,89.31368318402099,90.34149293193902,8,2.0,False,3.373408079147339
,2024-07-03 16:02:08,sub_107,3,distance,cathedral,spatial_unmasking,4,167,0,0,_six_,talker-p284_sex-f_text-_six_.wav,p284,f,5,34,6.0,7.0,RX81,6,0.0,0.0,7.0,79.341492931939,babble-reversed_n13_p256-nine-p307-four-p229-one-p284-three-p248-two-p245-five.wav,4,RX81,5,0.0,0.0,6.0,89.31368318402099,mgb_normalisation,89.31368318402099,90.34149293193902,6,6.0,True,3.501293659210205
,2024-07-03 16:02:14,sub_107,3,distance,cathedral,spatial_unmasking,4,168,0,0,_six_,talker-p284_sex-f_text-_six_.wav,p284,f,5,35,6.0,7.0,RX81,6,0.0,0.0,7.0,79.341492931939,babble-reversed_n13_p229-eight-p256-nine-p318-four-p245-three-p268-five-p284-two.wav,4,RX81,5,0.0,0.0,6.0,89.31368318402099,mgb_normalisation,89.31368318402099,90.34149293193902,6,6.0,True,3.687533855438232
,2024-07-03 16:02:19,sub_107,3,distance,cathedral,spatial_unmasking,4,169,0,0,_three_,talker-p284_sex-f_text-_three_.wav,p284,f,5,36,6.0,7.0,RX81,6,0.0,0.0,7.0,78.34149293193902,babble-reversed_n13_p229-five-p318-three-p307-two-p245-four-p284-nine-p248-eight.wav,4,RX81,5,0.0,0.0,6.0,89.31368318402099,mgb_normalisation,89.31368318402099,90.34149293193902,3,4.0,False,3.062407970428467
,2024-07-03 16:02:25,sub_107,3,distance,cathedral,spatial_unmasking,4,170,0,0,_nine_,talker-p284_sex-f_text-_nine_.wav,p284,f,5,37,6.0,7.0,RX81,6,0.0,0.0,7.0,79.341492931939,babble-reversed_n13_p256-eight-p318-two-p307-five-p245-four-p268-nine-p284-one.wav,4,RX81,5,0.0,0.0,6.0,89.31368318402099,mgb_normalisation,89.31368318402099,90.34149293193902,9,9.0,True,3.064544677734375
,2024-07-03 16:02:30,sub_107,3,distance,cathedral,spatial_unmasking,4,171,0,0,_five_,talker-p284_sex-f_text-_five_.wav,p284,f,5,38,6.0,7.0,RX81,6,0.0,0.0,7.0,79.34149293193902,babble-reversed_n13_p318-three-p307-one-p256-five-p248-nine-p245-two-p284-eight.wav,4,RX81,5,0.0,0.0,6.0,89.31368318402099,mgb_normalisation,89.31368318402099,90.34149293193902,5,5.0,True,2.8731675148010254
,2024-07-03 16:04:41,sub_107,3,distance,cathedral,spatial_unmasking,5,172,0,0,_four_,talker-p284_sex-f_text-_four_.wav,p284,f,5,1,4.0,7.0,RX81,6,0.0,0.0,7.0,92.34149293193902,babble-reversed_n13_p307-two-p256-four-p318-three-p284-eight-p248-five-p245-nine.wav,2,RX81,3,0.0,0.0,4.0,87.57049330475357,mgb_normalisation,87.57049330475357,90.34149293193902,4,4.0,True,3.1119909286499023
,2024-07-03 16:04:45,sub_107,3,distance,cathedral,spatial_unmasking,5,173,0,0,_five_,talker-p284_sex-f_text-_five_.wav,p284,f,5,2,4.0,7.0,RX81,6,0.0,0.0,7.0,88.34149293193902,babble-reversed_n13_p307-two-p229-one-p256-five-p248-nine-p284-three-p268-eight.wav,2,RX81,3,0.0,0.0,4.0,87.57049330475357,mgb_normalisation,87.57049330475357,90.34149293193902,5,5.0,True,2.187328100204468
,2024-07-03 16:04:50,sub_107,3,distance,cathedral,spatial_unmasking,5,174,0,0,_six_,talker-p284_sex-f_text-_six_.wav,p284,f,5,3,4.0,7.0,RX81,6,0.0,0.0,7.0,84.341492931939,babble-reversed_n13_p318-three-p307-one-p256-five-p248-nine-p245-two-p284-eight.wav,2,RX81,3,0.0,0.0,4.0,87.57049330475357,mgb_normalisation,87.57049330475357,90.34149293193902,6,6.0,True,2.1148836612701416
,2024-07-03 16:04:56,sub_107,3,distance,cathedral,spatial_unmasking,5,175,0,0,_four_,talker-p284_sex-f_text-_four_.wav,p284,f,5,4,4.0,7.0,RX81,6,0.0,0.0,7.0,80.341492931939,babble-reversed_n13_p229-nine-p307-five-p256-two-p248-three-p245-one-p268-eight.wav,2,RX81,3,0.0,0.0,4.0,87.57049330475357,mgb_normalisation,87.57049330475357,90.34149293193902,4,4.0,True,4.312209606170654
,2024-07-03 16:05:02,sub_107,3,distance,cathedral,spatial_unmasking,5,176,0,0,_six_,talker-p284_sex-f_text-_six_.wav,p284,f,5,5,4.0,7.0,RX81,6,0.0,0.0,7.0,76.34149293193902,babble-reversed_n13_p229-three-p307-one-p318-two-p245-eight-p268-five-p284-four.wav,2,RX81,3,0.0,0.0,4.0,87.57049330475357,mgb_normalisation,87.57049330475357,90.34149293193902,6,2.0,False,3.312361240386963
,2024-07-03 16:05:07,sub_107,3,distance,cathedral,spatial_unmasking,5,177,0,0,_six_,talker-p284_sex-f_text-_six_.wav,p284,f,5,6,4.0,7.0,RX81,6,0.0,0.0,7.0,78.34149293193902,babble-reversed_n13_p318-three-p229-one-p256-eight-p245-five-p248-four-p284-nine.wav,2,RX81,3,0.0,0.0,4.0,87.57049330475357,mgb_normalisation,87.57049330475357,90.34149293193902,6,6.0,True,2.249823093414306
,2024-07-03 16:05:12,sub_107,3,distance,cathedral,spatial_unmasking,5,178,0,0,_three_,talker-p284_sex-f_text-_three_.wav,p284,f,5,7,4.0,7.0,RX81,6,0.0,0.0,7.0,78.34149293193902,babble-reversed_n13_p229-eight-p256-nine-p318-four-p245-three-p268-five-p284-two.wav,2,RX81,3,0.0,0.0,4.0,87.57049330475355,mgb_normalisation,87.57049330475357,90.34149293193902,3,3.0,True,2.5622987747192383
,2024-07-03 16:05:17,sub_107,3,distance,cathedral,spatial_unmasking,5,179,0,0,_one_,talker-p284_sex-f_text-_one_.wav,p284,f,5,8,4.0,7.0,RX81,6,0.0,0.0,7.0,76.34149293193902,babble-reversed_n13_p256-four-p229-eight-p307-five-p248-three-p245-one-p284-two.wav,2,RX81,3,0.0,0.0,4.0,87.57049330475355,mgb_normalisation,87.57049330475357,90.34149293193902,1,4.0,False,2.812279462814331
,2024-07-03 16:05:23,sub_107,3,distance,cathedral,spatial_unmasking,5,180,0,0,_six_,talker-p284_sex-f_text-_six_.wav,p284,f,5,9,4.0,7.0,RX81,6,0.0,0.0,7.0,77.341492931939,babble-reversed_n13_p307-two-p229-one-p256-five-p248-nine-p284-three-p268-eight.wav,2,RX81,3,0.0,0.0,4.0,87.57049330475357,mgb_normalisation,87.57049330475357,90.34149293193902,6,6.0,True,3.9222469329833984
,2024-07-03 16:05:29,sub_107,3,distance,cathedral,spatial_unmasking,5,181,0,0,_four_,talker-p284_sex-f_text-_four_.wav,p284,f,5,10,4.0,7.0,RX81,6,0.0,0.0,7.0,77.341492931939,babble-reversed_n13_p256-three-p318-one-p307-two-p284-nine-p268-four-p245-eight.wav,2,RX81,3,0.0,0.0,4.0,87.57049330475357,mgb_normalisation,87.57049330475357,90.34149293193902,4,5.0,False,3.0634732246398926
,2024-07-03 16:05:34,sub_107,3,distance,cathedral,spatial_unmasking,5,182,0,0,_six_,talker-p284_sex-f_text-_six_.wav,p284,f,5,11,4.0,7.0,RX81,6,0.0,0.0,7.0,78.34149293193902,babble-reversed_n13_p318-three-p307-one-p256-five-p248-nine-p245-two-p284-eight.wav,2,RX81,3,0.0,0.0,4.0,87.57049330475357,mgb_normalisation,87.57049330475357,90.34149293193902,6,3.0,False,3.12453031539917
,2024-07-03 16:05:40,sub_107,3,distance,cathedral,spatial_unmasking,5,183,0,0,_six_,talker-p284_sex-f_text-_six_.wav,p284,f,5,12,4.0,7.0,RX81,6,0.0,0.0,7.0,79.341492931939,babble-reversed_n13_p256-five-p229-one-p318-three-p248-nine-p284-eight-p268-two.wav,2,RX81,3,0.0,0.0,4.0,87.57049330475357,mgb_normalisation,87.57049330475357,90.34149293193902,6,6.0,True,3.2351577281951904
,2024-07-03 16:05:45,sub_107,3,distance,cathedral,spatial_unmasking,5,184,0,0,_two_,talker-p284_sex-f_text-_two_.wav,p284,f,5,13,4.0,7.0,RX81,6,0.0,0.0,7.0,79.34149293193902,babble-reversed_n13_p256-five-p229-one-p318-three-p248-nine-p284-eight-p268-two.wav,2,RX81,3,0.0,0.0,4.0,87.57049330475357,mgb_normalisation,87.57049330475357,90.34149293193902,2,2.0,True,3.0491788387298584
,2024-07-03 16:05:50,sub_107,3,distance,cathedral,spatial_unmasking,5,185,0,0,_nine_,talker-p284_sex-f_text-_nine_.wav,p284,f,5,14,4.0,7.0,RX81,6,0.0,0.0,7.0,78.34149293193902,babble-reversed_n13_p229-three-p256-one-p307-two-p284-eight-p268-five-p248-nine.wav,2,RX81,3,0.0,0.0,4.0,87.57049330475357,mgb_normalisation,87.57049330475357,90.34149293193902,9,1.0,False,2.799524307250977
,2024-07-03 16:05:56,sub_107,3,distance,cathedral,spatial_unmasking,5,186,0,0,_two_,talker-p284_sex-f_text-_two_.wav,p284,f,5,15,4.0,7.0,RX81,6,0.0,0.0,7.0,79.34149293193902,babble-reversed_n13_p229-one-p318-nine-p256-four-p284-eight-p268-five-p245-two.wav,2,RX81,3,0.0,0.0,4.0,87.57049330475357,mgb_normalisation,87.57049330475357,90.34149293193902,2,2.0,True,3.1761045455932617
,2024-07-03 16:06:01,sub_107,3,distance,cathedral,spatial_unmasking,5,187,0,0,_three_,talker-p284_sex-f_text-_three_.wav,p284,f,5,16,4.0,7.0,RX81,6,0.0,0.0,7.0,79.34149293193903,babble-reversed_n13_p229-two-p256-three-p318-eight-p284-five-p268-four-p245-one.wav,2,RX81,3,0.0,0.0,4.0,87.57049330475357,mgb_normalisation,87.57049330475357,90.34149293193902,3,3.0,True,2.687288284301758
,2024-07-03 16:06:07,sub_107,3,distance,cathedral,spatial_unmasking,5,188,0,0,_four_,talker-p284_sex-f_text-_four_.wav,p284,f,5,17,4.0,7.0,RX81,6,0.0,0.0,7.0,78.341492931939,babble-reversed_n13_p229-three-p256-one-p307-two-p284-eight-p268-five-p248-nine.wav,2,RX81,3,0.0,0.0,4.0,87.57049330475357,mgb_normalisation,87.57049330475357,90.34149293193902,4,4.0,True,3.935093641281128
,2024-07-03 16:06:13,sub_107,3,distance,cathedral,spatial_unmasking,5,189,0,0,_three_,talker-p284_sex-f_text-_three_.wav,p284,f,5,18,4.0,7.0,RX81,6,0.0,0.0,7.0,78.34149293193902,babble-reversed_n13_p256-three-p318-two-p229-nine-p248-four-p284-one-p268-eight.wav,2,RX81,3,0.0,0.0,4.0,87.57049330475355,mgb_normalisation,87.57049330475357,90.34149293193902,3,3.0,True,2.940570592880249
,2024-07-03 16:06:18,sub_107,3,distance,cathedral,spatial_unmasking,5,190,0,0,_five_,talker-p284_sex-f_text-_five_.wav,p284,f,5,19,4.0,7.0,RX81,6,0.0,0.0,7.0,77.34149293193902,babble-reversed_n13_p229-eight-p256-nine-p318-four-p245-three-p268-five-p284-two.wav,2,RX81,3,0.0,0.0,4.0,87.57049330475355,mgb_normalisation,87.57049330475357,90.34149293193902,5,5.0,True,2.682730197906494
,2024-07-03 16:06:23,sub_107,3,distance,cathedral,spatial_unmasking,5,191,0,0,_six_,talker-p284_sex-f_text-_six_.wav,p284,f,5,20,4.0,7.0,RX81,6,0.0,0.0,7.0,77.341492931939,babble-reversed_n13_p307-two-p256-four-p318-three-p284-eight-p248-five-p245-nine.wav,2,RX81,3,0.0,0.0,4.0,87.57049330475357,mgb_normalisation,87.57049330475357,90.34149293193902,6,6.0,True,2.3707146644592285
,2024-07-03 16:06:28,sub_107,3,distance,cathedral,spatial_unmasking,5,192,0,0,_five_,talker-p284_sex-f_text-_five_.wav,p284,f,5,21,4.0,7.0,RX81,6,0.0,0.0,7.0,76.34149293193902,babble-reversed_n13_p307-one-p318-five-p229-four-p268-eight-p284-two-p245-three.wav,2,RX81,3,0.0,0.0,4.0,87.57049330475355,mgb_normalisation,87.57049330475357,90.34149293193902,5,5.0,True,2.4981608390808105
,2024-07-03 16:06:32,sub_107,3,distance,cathedral,spatial_unmasking,5,193,0,0,_nine_,talker-p284_sex-f_text-_nine_.wav,p284,f,5,22,4.0,7.0,RX81,6,0.0,0.0,7.0,76.34149293193902,babble-reversed_n13_p307-nine-p318-two-p256-one-p245-three-p268-four-p248-eight.wav,2,RX81,3,0.0,0.0,4.0,87.57049330475355,mgb_normalisation,87.57049330475357,90.34149293193902,9,9.0,True,2.310717821121216
,2024-07-03 16:06:37,sub_107,3,distance,cathedral,spatial_unmasking,5,194,0,0,_six_,talker-p284_sex-f_text-_six_.wav,p284,f,5,23,4.0,7.0,RX81,6,0.0,0.0,7.0,75.34149293193902,babble-reversed_n13_p307-two-p256-four-p318-three-p284-eight-p248-five-p245-nine.wav,2,RX81,3,0.0,0.0,4.0,87.57049330475357,mgb_normalisation,87.57049330475357,90.34149293193902,6,6.0,True,2.1248373985290527
,2024-07-03 16:06:41,sub_107,3,distance,cathedral,spatial_unmasking,5,195,0,0,_two_,talker-p284_sex-f_text-_two_.wav,p284,f,5,24,4.0,7.0,RX81,6,0.0,0.0,7.0,75.34149293193903,babble-reversed_n13_p229-nine-p307-five-p256-two-p248-three-p245-one-p268-eight.wav,2,RX81,3,0.0,0.0,4.0,87.57049330475357,mgb_normalisation,87.57049330475357,90.34149293193902,2,2.0,True,1.937349796295166
,2024-07-03 16:06:48,sub_107,3,distance,cathedral,spatial_unmasking,5,196,0,0,_four_,talker-p284_sex-f_text-_four_.wav,p284,f,5,25,4.0,7.0,RX81,6,0.0,0.0,7.0,74.341492931939,babble-reversed_n13_p307-four-p318-three-p256-eight-p284-two-p245-nine-p248-five.wav,2,RX81,3,0.0,0.0,4.0,87.57049330475355,mgb_normalisation,87.57049330475357,90.34149293193902,4,4.0,True,3.999008655548096
,2024-07-03 16:06:54,sub_107,3,distance,cathedral,spatial_unmasking,5,197,0,0,_eight_,talker-p284_sex-f_text-_eight_.wav,p284,f,5,26,4.0,7.0,RX81,6,0.0,0.0,7.0,74.341492931939,babble-reversed_n13_p256-four-p307-eight-p318-two-p248-three-p284-nine-p268-one.wav,2,RX81,3,0.0,0.0,4.0,87.57049330475357,mgb_normalisation,87.57049330475357,90.34149293193902,8,9.0,False,3.562285900115967
,2024-07-03 16:07:00,sub_107,3,distance,cathedral,spatial_unmasking,5,198,0,0,_four_,talker-p284_sex-f_text-_four_.wav,p284,f,5,27,4.0,7.0,RX81,6,0.0,0.0,7.0,75.341492931939,babble-reversed_n13_p256-two-p307-five-p318-nine-p248-eight-p245-four-p284-one.wav,2,RX81,3,0.0,0.0,4.0,87.57049330475357,mgb_normalisation,87.57049330475357,90.34149293193902,4,4.0,True,3.860797166824341
,2024-07-03 16:07:04,sub_107,3,distance,cathedral,spatial_unmasking,5,199,0,0,_six_,talker-p284_sex-f_text-_six_.wav,p284,f,5,28,4.0,7.0,RX81,6,0.0,0.0,7.0,75.34149293193902,babble-reversed_n13_p307-four-p318-three-p256-eight-p284-two-p245-nine-p248-five.wav,2,RX81,3,0.0,0.0,4.0,87.57049330475355,mgb_normalisation,87.57049330475357,90.34149293193902,6,6.0,True,2.297202587127685
,2024-07-03 16:07:10,sub_107,3,distance,cathedral,spatial_unmasking,5,200,0,0,_one_,talker-p284_sex-f_text-_one_.wav,p284,f,5,29,4.0,7.0,RX81,6,0.0,0.0,7.0,74.34149293193902,babble-reversed_n13_p229-two-p256-three-p318-eight-p284-five-p268-four-p245-one.wav,2,RX81,3,0.0,0.0,4.0,87.57049330475357,mgb_normalisation,87.57049330475357,90.34149293193902,1,2.0,False,2.922351598739624
,2024-07-03 16:07:15,sub_107,3,distance,cathedral,spatial_unmasking,5,201,0,0,_two_,talker-p284_sex-f_text-_two_.wav,p284,f,5,30,4.0,7.0,RX81,6,0.0,0.0,7.0,75.34149293193903,babble-reversed_n13_p229-nine-p256-four-p318-three-p268-eight-p248-two-p284-five.wav,2,RX81,3,0.0,0.0,4.0,87.57049330475357,mgb_normalisation,87.57049330475357,90.34149293193902,2,2.0,True,2.985056638717652
,2024-07-03 16:07:20,sub_107,3,distance,cathedral,spatial_unmasking,5,202,0,0,_one_,talker-p284_sex-f_text-_one_.wav,p284,f,5,31,4.0,7.0,RX81,6,0.0,0.0,7.0,75.34149293193902,babble-reversed_n13_p229-five-p318-three-p307-two-p245-four-p284-nine-p248-eight.wav,2,RX81,3,0.0,0.0,4.0,87.57049330475357,mgb_normalisation,87.57049330475357,90.34149293193902,1,1.0,True,2.562462329864502
,2024-07-03 16:07:26,sub_107,3,distance,cathedral,spatial_unmasking,5,203,0,0,_six_,talker-p284_sex-f_text-_six_.wav,p284,f,5,32,4.0,7.0,RX81,6,0.0,0.0,7.0,74.341492931939,babble-reversed_n13_p318-one-p307-two-p256-eight-p284-three-p248-five-p245-four.wav,2,RX81,3,0.0,0.0,4.0,87.57049330475357,mgb_normalisation,87.57049330475357,90.34149293193902,6,4.0,False,3.376330852508545
,2024-07-03 16:07:33,sub_107,3,distance,cathedral,spatial_unmasking,5,204,0,0,_four_,talker-p284_sex-f_text-_four_.wav,p284,f,5,33,4.0,7.0,RX81,6,0.0,0.0,7.0,75.341492931939,babble-reversed_n13_p229-five-p318-two-p307-eight-p268-three-p248-four-p245-one.wav,2,RX81,3,0.0,0.0,4.0,87.57049330475357,mgb_normalisation,87.57049330475357,90.34149293193902,4,3.0,False,4.559372901916504
,2024-07-03 16:07:39,sub_107,3,distance,cathedral,spatial_unmasking,5,205,0,0,_six_,talker-p284_sex-f_text-_six_.wav,p284,f,5,34,4.0,7.0,RX81,6,0.0,0.0,7.0,76.34149293193902,babble-reversed_n13_p256-five-p307-nine-p318-three-p284-eight-p268-one-p248-two.wav,2,RX81,3,0.0,0.0,4.0,87.57049330475357,mgb_normalisation,87.57049330475357,90.34149293193902,6,6.0,True,3.921222925186157
,2024-07-03 16:07:45,sub_107,3,distance,cathedral,spatial_unmasking,5,206,0,0,_two_,talker-p284_sex-f_text-_two_.wav,p284,f,5,35,4.0,7.0,RX81,6,0.0,0.0,7.0,76.34149293193902,babble-reversed_n13_p307-two-p229-one-p256-five-p248-nine-p284-three-p268-eight.wav,2,RX81,3,0.0,0.0,4.0,87.57049330475357,mgb_normalisation,87.57049330475357,90.34149293193902,2,2.0,True,2.938952684402466
,2024-07-03 16:09:37,sub_107,3,distance,cathedral,spatial_unmasking,6,207,0,0,_three_,talker-p284_sex-f_text-_three_.wav,p284,f,5,1,10.0,7.0,RX81,6,0.0,0.0,7.0,92.34149293193902,babble-reversed_n13_p256-five-p229-one-p318-three-p248-nine-p284-eight-p268-two.wav,8,RX81,9,0.0,0.0,10.0,92.0152836843556,mgb_normalisation,92.0152836843556,90.34149293193902,3,3.0,True,2.624828815460205
,2024-07-03 16:09:42,sub_107,3,distance,cathedral,spatial_unmasking,6,208,0,0,_six_,talker-p284_sex-f_text-_six_.wav,p284,f,5,2,10.0,7.0,RX81,6,0.0,0.0,7.0,88.34149293193902,babble-reversed_n13_p256-three-p318-two-p229-nine-p248-four-p284-one-p268-eight.wav,8,RX81,9,0.0,0.0,10.0,92.0152836843556,mgb_normalisation,92.0152836843556,90.34149293193902,6,6.0,True,2.749791383743286
,2024-07-03 16:09:47,sub_107,3,distance,cathedral,spatial_unmasking,6,209,0,0,_six_,talker-p284_sex-f_text-_six_.wav,p284,f,5,3,10.0,7.0,RX81,6,0.0,0.0,7.0,84.341492931939,babble-reversed_n13_p229-two-p256-three-p318-eight-p284-five-p268-four-p245-one.wav,8,RX81,9,0.0,0.0,10.0,92.0152836843556,mgb_normalisation,92.0152836843556,90.34149293193902,6,6.0,True,2.562305927276612
,2024-07-03 16:09:53,sub_107,3,distance,cathedral,spatial_unmasking,6,210,0,0,_eight_,talker-p284_sex-f_text-_eight_.wav,p284,f,5,4,10.0,7.0,RX81,6,0.0,0.0,7.0,80.341492931939,babble-reversed_n13_p318-three-p307-one-p256-five-p248-nine-p245-two-p284-eight.wav,8,RX81,9,0.0,0.0,10.0,92.0152836843556,mgb_normalisation,92.0152836843556,90.34149293193902,8,8.0,True,3.3743555545806885
,2024-07-03 16:09:59,sub_107,3,distance,cathedral,spatial_unmasking,6,211,0,0,_eight_,talker-p284_sex-f_text-_eight_.wav,p284,f,5,5,10.0,7.0,RX81,6,0.0,0.0,7.0,76.34149293193902,babble-reversed_n13_p229-two-p256-three-p318-eight-p284-five-p268-four-p245-one.wav,8,RX81,9,0.0,0.0,10.0,92.0152836843556,mgb_normalisation,92.0152836843556,90.34149293193902,8,2.0,False,3.984355926513672
,2024-07-03 16:10:06,sub_107,3,distance,cathedral,spatial_unmasking,6,212,0,0,_four_,talker-p284_sex-f_text-_four_.wav,p284,f,5,6,10.0,7.0,RX81,6,0.0,0.0,7.0,78.341492931939,babble-reversed_n13_p229-five-p256-three-p318-nine-p248-two-p284-four-p268-one.wav,8,RX81,9,0.0,0.0,10.0,92.0152836843556,mgb_normalisation,92.0152836843556,90.34149293193902,4,1.0,False,4.547980546951294
,2024-07-03 16:10:12,sub_107,3,distance,cathedral,spatial_unmasking,6,213,0,0,_three_,talker-p284_sex-f_text-_three_.wav,p284,f,5,7,10.0,7.0,RX81,6,0.0,0.0,7.0,80.34149293193903,babble-reversed_n13_p256-five-p307-nine-p318-three-p284-eight-p268-one-p248-two.wav,8,RX81,9,0.0,0.0,10.0,92.0152836843556,mgb_normalisation,92.0152836843556,90.34149293193902,3,3.0,True,4.063920974731445
,2024-07-03 16:10:18,sub_107,3,distance,cathedral,spatial_unmasking,6,214,0,0,_eight_,talker-p284_sex-f_text-_eight_.wav,p284,f,5,8,10.0,7.0,RX81,6,0.0,0.0,7.0,80.341492931939,babble-reversed_n13_p318-one-p307-two-p256-eight-p284-three-p248-five-p245-four.wav,8,RX81,9,0.0,0.0,10.0,92.0152836843556,mgb_normalisation,92.0152836843556,90.34149293193902,8,8.0,True,3.496877431869507
,2024-07-03 16:10:23,sub_107,3,distance,cathedral,spatial_unmasking,6,215,0,0,_five_,talker-p284_sex-f_text-_five_.wav,p284,f,5,9,10.0,7.0,RX81,6,0.0,0.0,7.0,78.34149293193902,babble-reversed_n13_p256-eight-p229-three-p307-nine-p245-five-p248-four-p268-two.wav,8,RX81,9,0.0,0.0,10.0,92.0152836843556,mgb_normalisation,92.0152836843556,90.34149293193902,5,5.0,True,2.871828317642212
,2024-07-03 16:10:29,sub_107,3,distance,cathedral,spatial_unmasking,6,216,0,0,_six_,talker-p284_sex-f_text-_six_.wav,p284,f,5,10,10.0,7.0,RX81,6,0.0,0.0,7.0,78.34149293193902,babble-reversed_n13_p229-five-p256-three-p318-nine-p248-two-p284-four-p268-one.wav,8,RX81,9,0.0,0.0,10.0,92.0152836843556,mgb_normalisation,92.0152836843556,90.34149293193902,6,6.0,True,2.986633062362671
,2024-07-03 16:10:35,sub_107,3,distance,cathedral,spatial_unmasking,6,217,0,0,_one_,talker-p284_sex-f_text-_one_.wav,p284,f,5,11,10.0,7.0,RX81,6,0.0,0.0,7.0,76.34149293193902,babble-reversed_n13_p318-five-p256-nine-p307-eight-p248-two-p245-four-p284-three.wav,8,RX81,9,0.0,0.0,10.0,92.0152836843556,mgb_normalisation,92.0152836843556,90.34149293193902,1,2.0,False,3.296436548233032
,2024-07-03 16:10:40,sub_107,3,distance,cathedral,spatial_unmasking,6,218,0,0,_one_,talker-p284_sex-f_text-_one_.wav,p284,f,5,12,10.0,7.0,RX81,6,0.0,0.0,7.0,77.34149293193902,babble-reversed_n13_p229-nine-p307-five-p256-two-p248-three-p245-one-p268-eight.wav,8,RX81,9,0.0,0.0,10.0,92.0152836843556,mgb_normalisation,92.0152836843556,90.34149293193902,1,1.0,True,2.860069751739502
,2024-07-03 16:10:44,sub_107,3,distance,cathedral,spatial_unmasking,6,219,0,0,_one_,talker-p284_sex-f_text-_one_.wav,p284,f,5,13,10.0,7.0,RX81,6,0.0,0.0,7.0,77.34149293193902,babble-reversed_n13_p229-three-p307-one-p318-two-p245-eight-p268-five-p284-four.wav,8,RX81,9,0.0,0.0,10.0,92.0152836843556,mgb_normalisation,92.0152836843556,90.34149293193902,1,1.0,True,2.313359498977661
,2024-07-03 16:10:49,sub_107,3,distance,cathedral,spatial_unmasking,6,220,0,0,_two_,talker-p284_sex-f_text-_two_.wav,p284,f,5,14,10.0,7.0,RX81,6,0.0,0.0,7.0,76.34149293193902,babble-reversed_n13_p307-one-p318-five-p229-four-p268-eight-p284-two-p245-three.wav,8,RX81,9,0.0,0.0,10.0,92.0152836843556,mgb_normalisation,92.0152836843556,90.34149293193902,2,2.0,True,2.297722339630127
,2024-07-03 16:10:54,sub_107,3,distance,cathedral,spatial_unmasking,6,221,0,0,_four_,talker-p284_sex-f_text-_four_.wav,p284,f,5,15,10.0,7.0,RX81,6,0.0,0.0,7.0,76.34149293193902,babble-reversed_n13_p229-one-p318-nine-p256-four-p284-eight-p268-five-p245-two.wav,8,RX81,9,0.0,0.0,10.0,92.0152836843556,mgb_normalisation,92.0152836843556,90.34149293193902,4,3.0,False,2.484163522720337
,2024-07-03 16:10:59,sub_107,3,distance,cathedral,spatial_unmasking,6,222,0,0,_six_,talker-p284_sex-f_text-_six_.wav,p284,f,5,16,10.0,7.0,RX81,6,0.0,0.0,7.0,77.341492931939,babble-reversed_n13_p318-nine-p256-five-p307-eight-p268-three-p248-one-p245-four.wav,8,RX81,9,0.0,0.0,10.0,92.0152836843556,mgb_normalisation,92.0152836843556,90.34149293193902,6,6.0,True,3.000812768936157
,2024-07-03 16:11:04,sub_107,3,distance,cathedral,spatial_unmasking,6,223,0,0,_five_,talker-p284_sex-f_text-_five_.wav,p284,f,5,17,10.0,7.0,RX81,6,0.0,0.0,7.0,77.34149293193902,babble-reversed_n13_p318-five-p229-four-p256-eight-p284-one-p245-three-p248-two.wav,8,RX81,9,0.0,0.0,10.0,92.0152836843556,mgb_normalisation,92.0152836843556,90.34149293193902,5,5.0,True,2.1726717948913574
,2024-07-03 16:11:09,sub_107,3,distance,cathedral,spatial_unmasking,6,224,0,0,_eight_,talker-p284_sex-f_text-_eight_.wav,p284,f,5,18,10.0,7.0,RX81,6,0.0,0.0,7.0,76.34149293193902,babble-reversed_n13_p229-two-p256-three-p318-eight-p284-five-p268-four-p245-one.wav,8,RX81,9,0.0,0.0,10.0,92.0152836843556,mgb_normalisation,92.0152836843556,90.34149293193902,8,4.0,False,2.875232696533203
,2024-07-03 16:11:14,sub_107,3,distance,cathedral,spatial_unmasking,6,225,0,0,_two_,talker-p284_sex-f_text-_two_.wav,p284,f,5,19,10.0,7.0,RX81,6,0.0,0.0,7.0,77.34149293193902,babble-reversed_n13_p229-nine-p318-one-p307-two-p248-eight-p245-five-p284-four.wav,8,RX81,9,0.0,0.0,10.0,92.0152836843556,mgb_normalisation,92.0152836843556,90.34149293193902,2,2.0,True,2.3597590923309326
,2024-07-03 16:11:19,sub_107,3,distance,cathedral,spatial_unmasking,6,226,0,0,_two_,talker-p284_sex-f_text-_two_.wav,p284,f,5,20,10.0,7.0,RX81,6,0.0,0.0,7.0,77.34149293193902,babble-reversed_n13_p229-one-p318-eight-p256-three-p268-two-p245-five-p248-nine.wav,8,RX81,9,0.0,0.0,10.0,92.0152836843556,mgb_normalisation,92.0152836843556,90.34149293193902,2,2.0,True,2.860222101211548
,2024-07-03 16:11:25,sub_107,3,distance,cathedral,spatial_unmasking,6,227,0,0,_one_,talker-p284_sex-f_text-_one_.wav,p284,f,5,21,10.0,7.0,RX81,6,0.0,0.0,7.0,76.34149293193902,babble-reversed_n13_p256-eight-p229-three-p307-nine-p245-five-p248-four-p268-two.wav,8,RX81,9,0.0,0.0,10.0,92.0152836843556,mgb_normalisation,92.0152836843556,90.34149293193902,1,1.0,True,2.9216301441192627
,2024-07-03 16:11:30,sub_107,3,distance,cathedral,spatial_unmasking,6,228,0,0,_nine_,talker-p284_sex-f_text-_nine_.wav,p284,f,5,22,10.0,7.0,RX81,6,0.0,0.0,7.0,76.34149293193902,babble-reversed_n13_p229-five-p318-two-p307-eight-p268-three-p248-four-p245-one.wav,8,RX81,9,0.0,0.0,10.0,92.0152836843556,mgb_normalisation,92.0152836843556,90.34149293193902,9,9.0,True,2.735145807266236
,2024-07-03 16:11:35,sub_107,3,distance,cathedral,spatial_unmasking,6,229,0,0,_one_,talker-p284_sex-f_text-_one_.wav,p284,f,5,23,10.0,7.0,RX81,6,0.0,0.0,7.0,75.34149293193902,babble-reversed_n13_p256-three-p318-one-p307-two-p284-nine-p268-four-p245-eight.wav,8,RX81,9,0.0,0.0,10.0,92.0152836843556,mgb_normalisation,92.0152836843556,90.34149293193902,1,9.0,False,3.124762296676636
,2024-07-03 16:11:41,sub_107,3,distance,cathedral,spatial_unmasking,6,230,0,0,_four_,talker-p284_sex-f_text-_four_.wav,p284,f,5,24,10.0,7.0,RX81,6,0.0,0.0,7.0,76.34149293193902,babble-reversed_n13_p307-five-p229-two-p318-four-p248-three-p245-nine-p268-eight.wav,8,RX81,9,0.0,0.0,10.0,92.0152836843556,mgb_normalisation,92.0152836843556,90.34149293193902,4,3.0,False,3.110121011734009
,2024-07-03 16:11:46,sub_107,3,distance,cathedral,spatial_unmasking,6,231,0,0,_six_,talker-p284_sex-f_text-_six_.wav,p284,f,5,25,10.0,7.0,RX81,6,0.0,0.0,7.0,77.341492931939,babble-reversed_n13_p229-one-p318-eight-p256-three-p268-nine-p248-five-p284-four.wav,8,RX81,9,0.0,0.0,10.0,92.0152836843556,mgb_normalisation,92.0152836843556,90.34149293193902,6,6.0,True,2.9356839656829834
,2024-07-03 16:11:52,sub_107,3,distance,cathedral,spatial_unmasking,6,232,0,0,_four_,talker-p284_sex-f_text-_four_.wav,p284,f,5,26,10.0,7.0,RX81,6,0.0,0.0,7.0,77.341492931939,babble-reversed_n13_p229-five-p318-three-p307-two-p245-four-p284-nine-p248-eight.wav,8,RX81,9,0.0,0.0,10.0,92.0152836843556,mgb_normalisation,92.0152836843556,90.34149293193902,4,1.0,False,3.9897208213806152
,2024-07-03 16:11:59,sub_107,3,distance,cathedral,spatial_unmasking,6,233,0,0,_two_,talker-p284_sex-f_text-_two_.wav,p284,f,5,27,10.0,7.0,RX81,6,0.0,0.0,7.0,78.34149293193902,babble-reversed_n13_p307-two-p256-four-p318-three-p284-eight-p248-five-p245-nine.wav,8,RX81,9,0.0,0.0,10.0,92.0152836843556,mgb_normalisation,92.0152836843556,90.34149293193902,2,2.0,True,4.312070846557617
,2024-07-03 16:12:06,sub_107,3,distance,cathedral,spatial_unmasking,6,234,0,0,_nine_,talker-p284_sex-f_text-_nine_.wav,p284,f,5,28,10.0,7.0,RX81,6,0.0,0.0,7.0,78.34149293193902,babble-reversed_n13_p318-one-p307-two-p256-eight-p284-three-p248-five-p245-four.wav,8,RX81,9,0.0,0.0,10.0,92.0152836843556,mgb_normalisation,92.0152836843556,90.34149293193902,9,9.0,True,4.047752380371094
,2024-07-03 16:12:11,sub_107,3,distance,cathedral,spatial_unmasking,6,235,0,0,_two_,talker-p284_sex-f_text-_two_.wav,p284,f,5,29,10.0,7.0,RX81,6,0.0,0.0,7.0,77.34149293193902,babble-reversed_n13_p229-one-p318-eight-p256-three-p268-two-p245-five-p248-nine.wav,8,RX81,9,0.0,0.0,10.0,92.0152836843556,mgb_normalisation,92.0152836843556,90.34149293193902,2,2.0,True,3.234875202178955
,2024-07-03 16:12:17,sub_107,3,distance,cathedral,spatial_unmasking,6,236,0,0,_six_,talker-p284_sex-f_text-_six_.wav,p284,f,5,30,10.0,7.0,RX81,6,0.0,0.0,7.0,77.341492931939,babble-reversed_n13_p229-three-p256-nine-p318-five-p248-one-p245-eight-p284-two.wav,8,RX81,9,0.0,0.0,10.0,92.0152836843556,mgb_normalisation,92.0152836843556,90.34149293193902,6,4.0,False,3.112391710281372
,2024-07-03 16:12:21,sub_107,3,distance,cathedral,spatial_unmasking,6,237,0,0,_five_,talker-p284_sex-f_text-_five_.wav,p284,f,5,31,10.0,7.0,RX81,6,0.0,0.0,7.0,78.34149293193902,babble-reversed_n13_p318-nine-p307-eight-p229-two-p284-one-p248-three-p245-five.wav,8,RX81,9,0.0,0.0,10.0,92.0152836843556,mgb_normalisation,92.0152836843556,90.34149293193902,5,5.0,True,2.437314033508301
,2024-07-03 16:12:26,sub_107,3,distance,cathedral,spatial_unmasking,6,238,0,0,_one_,talker-p284_sex-f_text-_one_.wav,p284,f,5,32,10.0,7.0,RX81,6,0.0,0.0,7.0,78.34149293193902,babble-reversed_n13_p256-eight-p318-five-p307-four-p245-three-p268-one-p284-nine.wav,8,RX81,9,0.0,0.0,10.0,92.0152836843556,mgb_normalisation,92.0152836843556,90.34149293193902,1,1.0,True,2.249828577041626
,2024-07-03 16:13:27,sub_107,3,distance,cathedral,spatial_unmasking,7,239,0,0,_six_,talker-p284_sex-f_text-_six_.wav,p284,f,5,1,2.0,7.0,RX81,6,0.0,0.0,7.0,92.34149293193902,babble-reversed_n13_p256-nine-p307-four-p229-one-p284-three-p248-two-p245-five.wav,0,RX81,1,0.0,0.0,2.0,84.40078082039427,mgb_normalisation,84.40078082039426,90.34149293193902,6,6.0,True,2.124838352203369
,2024-07-03 16:13:33,sub_107,3,distance,cathedral,spatial_unmasking,7,240,0,0,_six_,talker-p284_sex-f_text-_six_.wav,p284,f,5,2,2.0,7.0,RX81,6,0.0,0.0,7.0,88.34149293193902,babble-reversed_n13_p256-eight-p318-two-p307-five-p245-four-p268-nine-p284-one.wav,0,RX81,1,0.0,0.0,2.0,84.40078082039426,mgb_normalisation,84.40078082039426,90.34149293193902,6,6.0,True,2.749790668487549
,2024-07-03 16:13:37,sub_107,3,distance,cathedral,spatial_unmasking,7,241,0,0,_six_,talker-p284_sex-f_text-_six_.wav,p284,f,5,3,2.0,7.0,RX81,6,0.0,0.0,7.0,84.341492931939,babble-reversed_n13_p256-nine-p307-four-p229-one-p284-three-p248-two-p245-five.wav,0,RX81,1,0.0,0.0,2.0,84.40078082039427,mgb_normalisation,84.40078082039426,90.34149293193902,6,6.0,True,2.43731427192688
,2024-07-03 16:13:42,sub_107,3,distance,cathedral,spatial_unmasking,7,242,0,0,_three_,talker-p284_sex-f_text-_three_.wav,p284,f,5,4,2.0,7.0,RX81,6,0.0,0.0,7.0,80.34149293193903,babble-reversed_n13_p229-three-p307-one-p318-two-p245-eight-p268-five-p284-four.wav,0,RX81,1,0.0,0.0,2.0,84.40078082039426,mgb_normalisation,84.40078082039426,90.34149293193902,3,3.0,True,2.499809741973877
,2024-07-03 16:13:47,sub_107,3,distance,cathedral,spatial_unmasking,7,243,0,0,_four_,talker-p284_sex-f_text-_four_.wav,p284,f,5,5,2.0,7.0,RX81,6,0.0,0.0,7.0,76.34149293193902,babble-reversed_n13_p229-two-p307-five-p318-four-p284-one-p248-nine-p268-eight.wav,0,RX81,1,0.0,0.0,2.0,84.40078082039426,mgb_normalisation,84.40078082039426,90.34149293193902,4,1.0,False,2.6248011589050293
,2024-07-03 16:13:52,sub_107,3,distance,cathedral,spatial_unmasking,7,244,0,0,_two_,talker-p284_sex-f_text-_two_.wav,p284,f,5,6,2.0,7.0,RX81,6,0.0,0.0,7.0,78.34149293193902,babble-reversed_n13_p229-eight-p256-nine-p318-four-p245-three-p268-five-p284-two.wav,0,RX81,1,0.0,0.0,2.0,84.40078082039426,mgb_normalisation,84.40078082039426,90.34149293193902,2,2.0,True,2.5623035430908203
,2024-07-03 16:13:57,sub_107,3,distance,cathedral,spatial_unmasking,7,245,0,0,_four_,talker-p284_sex-f_text-_four_.wav,p284,f,5,7,2.0,7.0,RX81,6,0.0,0.0,7.0,78.341492931939,babble-reversed_n13_p229-nine-p318-one-p307-two-p248-eight-p245-five-p284-four.wav,0,RX81,1,0.0,0.0,2.0,84.40078082039426,mgb_normalisation,84.40078082039426,90.34149293193902,4,4.0,True,2.749790906906128
,2024-07-03 16:14:02,sub_107,3,distance,cathedral,spatial_unmasking,7,246,0,0,_three_,talker-p284_sex-f_text-_three_.wav,p284,f,5,8,2.0,7.0,RX81,6,0.0,0.0,7.0,76.34149293193902,babble-reversed_n13_p307-two-p229-one-p256-five-p248-nine-p284-three-p268-eight.wav,0,RX81,1,0.0,0.0,2.0,84.40078082039427,mgb_normalisation,84.40078082039426,90.34149293193902,3,3.0,True,2.624799489974976
,2024-07-03 16:14:07,sub_107,3,distance,cathedral,spatial_unmasking,7,247,0,0,_one_,talker-p284_sex-f_text-_one_.wav,p284,f,5,9,2.0,7.0,RX81,6,0.0,0.0,7.0,76.34149293193902,babble-reversed_n13_p256-five-p229-one-p318-three-p248-nine-p284-eight-p268-two.wav,0,RX81,1,0.0,0.0,2.0,84.40078082039427,mgb_normalisation,84.40078082039426,90.34149293193902,1,1.0,True,2.624799966812134
,2024-07-03 16:14:13,sub_107,3,distance,cathedral,spatial_unmasking,7,248,0,0,_three_,talker-p284_sex-f_text-_three_.wav,p284,f,5,10,2.0,7.0,RX81,6,0.0,0.0,7.0,74.34149293193903,babble-reversed_n13_p318-five-p256-nine-p307-eight-p248-two-p245-four-p284-three.wav,0,RX81,1,0.0,0.0,2.0,84.40078082039426,mgb_normalisation,84.40078082039426,90.34149293193902,3,3.0,True,3.249955892562866
,2024-07-03 16:14:21,sub_107,3,distance,cathedral,spatial_unmasking,7,249,0,0,_eight_,talker-p284_sex-f_text-_eight_.wav,p284,f,5,11,2.0,7.0,RX81,6,0.0,0.0,7.0,74.341492931939,babble-reversed_n13_p307-four-p318-three-p256-eight-p284-two-p245-nine-p248-five.wav,0,RX81,1,0.0,0.0,2.0,84.40078082039426,mgb_normalisation,84.40078082039426,90.34149293193902,8,1.0,False,5.046409606933594
,2024-07-03 16:14:26,sub_107,3,distance,cathedral,spatial_unmasking,7,250,0,0,_nine_,talker-p284_sex-f_text-_nine_.wav,p284,f,5,12,2.0,7.0,RX81,6,0.0,0.0,7.0,75.34149293193902,babble-reversed_n13_p318-three-p307-one-p256-five-p248-nine-p245-two-p284-eight.wav,0,RX81,1,0.0,0.0,2.0,84.40078082039426,mgb_normalisation,84.40078082039426,90.34149293193902,9,3.0,False,2.8602373600006104
,2024-07-03 16:14:32,sub_107,3,distance,cathedral,spatial_unmasking,7,251,0,0,_four_,talker-p284_sex-f_text-_four_.wav,p284,f,5,13,2.0,7.0,RX81,6,0.0,0.0,7.0,76.34149293193902,babble-reversed_n13_p229-three-p256-one-p307-two-p284-eight-p268-five-p248-nine.wav,0,RX81,1,0.0,0.0,2.0,84.40078082039426,mgb_normalisation,84.40078082039426,90.34149293193902,4,2.0,False,3.423503875732422
,2024-07-03 16:14:37,sub_107,3,distance,cathedral,spatial_unmasking,7,252,0,0,_four_,talker-p284_sex-f_text-_four_.wav,p284,f,5,14,2.0,7.0,RX81,6,0.0,0.0,7.0,77.341492931939,babble-reversed_n13_p318-one-p307-two-p256-eight-p284-three-p248-five-p245-four.wav,0,RX81,1,0.0,0.0,2.0,84.40078082039427,mgb_normalisation,84.40078082039426,90.34149293193902,4,4.0,True,3.177265167236328
,2024-07-03 16:14:43,sub_107,3,distance,cathedral,spatial_unmasking,7,253,0,0,_four_,talker-p284_sex-f_text-_four_.wav,p284,f,5,15,2.0,7.0,RX81,6,0.0,0.0,7.0,77.341492931939,babble-reversed_n13_p318-three-p229-one-p256-eight-p245-five-p248-four-p284-nine.wav,0,RX81,1,0.0,0.0,2.0,84.40078082039427,mgb_normalisation,84.40078082039426,90.34149293193902,4,1.0,False,3.249751567840576
,2024-07-03 16:14:50,sub_107,3,distance,cathedral,spatial_unmasking,7,254,0,0,_eight_,talker-p284_sex-f_text-_eight_.wav,p284,f,5,16,2.0,7.0,RX81,6,0.0,0.0,7.0,78.341492931939,babble-reversed_n13_p229-eight-p256-nine-p318-four-p245-three-p268-five-p284-two.wav,0,RX81,1,0.0,0.0,2.0,84.40078082039426,mgb_normalisation,84.40078082039426,90.34149293193902,8,2.0,False,4.422610998153687
,2024-07-03 16:14:55,sub_107,3,distance,cathedral,spatial_unmasking,7,255,0,0,_three_,talker-p284_sex-f_text-_three_.wav,p284,f,5,17,2.0,7.0,RX81,6,0.0,0.0,7.0,79.34149293193903,babble-reversed_n13_p318-nine-p256-five-p307-eight-p268-three-p248-one-p245-four.wav,0,RX81,1,0.0,0.0,2.0,84.40078082039426,mgb_normalisation,84.40078082039426,90.34149293193902,3,3.0,True,2.859082221984864
,2024-07-03 16:15:00,sub_107,3,distance,cathedral,spatial_unmasking,7,256,0,0,_five_,talker-p284_sex-f_text-_five_.wav,p284,f,5,18,2.0,7.0,RX81,6,0.0,0.0,7.0,79.34149293193902,babble-reversed_n13_p307-two-p256-four-p318-three-p284-eight-p248-five-p245-nine.wav,0,RX81,1,0.0,0.0,2.0,84.40078082039427,mgb_normalisation,84.40078082039426,90.34149293193902,5,5.0,True,2.672783851623535
,2024-07-03 16:15:05,sub_107,3,distance,cathedral,spatial_unmasking,7,257,0,0,_nine_,talker-p284_sex-f_text-_nine_.wav,p284,f,5,19,2.0,7.0,RX81,6,0.0,0.0,7.0,78.34149293193902,babble-reversed_n13_p229-five-p318-three-p307-two-p245-four-p284-nine-p248-eight.wav,0,RX81,1,0.0,0.0,2.0,84.40078082039426,mgb_normalisation,84.40078082039426,90.34149293193902,9,4.0,False,2.4216058254241943
,2024-07-03 16:15:09,sub_107,3,distance,cathedral,spatial_unmasking,7,258,0,0,_three_,talker-p284_sex-f_text-_three_.wav,p284,f,5,20,2.0,7.0,RX81,6,0.0,0.0,7.0,79.34149293193903,babble-reversed_n13_p229-one-p318-eight-p256-three-p268-two-p245-five-p248-nine.wav,0,RX81,1,0.0,0.0,2.0,84.40078082039426,mgb_normalisation,84.40078082039426,90.34149293193902,3,3.0,True,1.5592381954193115
,2024-07-03 16:15:13,sub_107,3,distance,cathedral,spatial_unmasking,7,259,0,0,_five_,talker-p284_sex-f_text-_five_.wav,p284,f,5,21,2.0,7.0,RX81,6,0.0,0.0,7.0,79.34149293193902,babble-reversed_n13_p229-two-p318-eight-p256-three-p268-one-p248-nine-p284-five.wav,0,RX81,1,0.0,0.0,2.0,84.40078082039426,mgb_normalisation,84.40078082039426,90.34149293193902,5,5.0,True,1.8748648166656487
