,event_id,subject_id,timestamp,session_index,plane,setup,task,block,trial_index,stim_number,stim_type,stim_country_ids,stim_sexes,stim_talker_ids,speaker_ids,stim_level,resp_number,is_correct,speaker_distance_mean,speaker_distance_st_dev,reaction_time,spectral_coverage
0,,sub_115,2024-07-30 16:20:38,3,distance,cathedral,numerosity_judgement,1,0,5,countries_reversed,"['_Togo_reversed', '_Tonga_reversed', '_Syria_reversed', '_Yemen_reversed', '_Peru_reversed']","['m', 'f', 'm', 'm', 'f']","['p307', 'p245', 'p256', 'p318', 'p284']","[5, 3, 8, 2, 7]","[90.34149293193902, 89.14911522239515, 92.0152836843556, 87.57049330475357, 91.73820004985969]",3.0,False,7.0,2.5495097567963922,3.4869282245635986,0.675485188968335
0,,sub_115,2024-07-30 16:20:41,3,distance,cathedral,numerosity_judgement,1,1,2,countries_reversed,"['_Oman_reversed', '_Peru_reversed']","['f', 'm']","['p248', 'p256']","[6, 0]","[91.58892582949886, 84.40078082039426]",2.0,True,5.0,4.242640687119285,1.9998588562011719,0.8170582226762002
0,,sub_115,2024-07-30 16:20:44,3,distance,cathedral,numerosity_judgement,1,2,6,countries_reversed,"['_Yemen_reversed', '_Mali_reversed', '_Britain_reversed', '_Belgium_reversed', '_Peru_reversed', '_Cuba_reversed']","['f', 'm', 'f', 'f', 'm', 'm']","['p248', 'p318', 'p268', 'p245', 'p256', 'p229']","[0, 4, 9, 10, 8, 1]","[84.40078082039426, 89.31368318402099, 92.00610777531934, 93.00003341222717, 92.0152836843556, 86.2038576498559]",4.0,False,7.333333333333333,4.273952113286562,2.1265392303466797,0.9326183180115764
0,,sub_115,2024-07-30 16:20:48,3,distance,cathedral,numerosity_judgement,1,3,4,countries_reversed,"['_Japan_reversed', '_Cuba_reversed', '_Congo_reversed', '_Oman_reversed']","['m', 'm', 'm', 'f']","['p318', 'p307', 'p256', 'p245']","[9, 7, 10, 3]","[92.00610777531934, 91.73820004985969, 93.00003341222717, 89.14911522239515]",3.0,False,9.25,3.095695936834452,2.125844955444336,0.6886505504483033
0,,sub_115,2024-07-30 16:20:51,3,distance,cathedral,numerosity_judgement,1,4,3,countries_reversed,"['_Japan_reversed', '_Mali_reversed', '_Belgium_reversed']","['f', 'm', 'm']","['p248', 'p256', 'p318']","[7, 10, 0]","[91.73820004985969, 93.00003341222717, 84.40078082039426]",2.0,False,7.666666666666667,5.131601439446884,2.1873481273651123,0.8557484961979344
0,,sub_115,2024-07-30 16:20:57,3,distance,cathedral,numerosity_judgement,1,5,5,countries_reversed,"['_Sudan_reversed', '_Cuba_reversed', '_Congo_reversed', '_Syria_reversed', '_Yemen_reversed']","['f', 'f', 'f', 'm', 'f']","['p248', 'p245', 'p268', 'p318', 'p284']","[1, 5, 3, 2, 6]","[86.2038576498559, 90.34149293193902, 89.14911522239515, 87.57049330475357, 91.58892582949886]",3.0,False,5.4,2.073644135332772,4.186744689941406,0.7590398365679265
0,,sub_115,2024-07-30 16:21:01,3,distance,cathedral,numerosity_judgement,1,6,2,countries_reversed,"['_Oman_reversed', '_Togo_reversed']","['m', 'f']","['p307', 'p245']","[5, 8]","[90.34149293193902, 92.0152836843556]",2.0,True,8.5,2.1213203435596424,2.624818801879883,0.6591079332652366
0,,sub_115,2024-07-30 16:21:04,3,distance,cathedral,numerosity_judgement,1,7,4,countries_reversed,"['_Britain_reversed', '_Peru_reversed', '_Oman_reversed', '_Syria_reversed']","['m', 'f', 'm', 'm']","['p318', 'p245', 'p229', 'p256']","[6, 9, 7, 5]","[91.58892582949886, 92.00610777531934, 91.73820004985969, 90.34149293193902]",4.0,True,8.75,1.707825127659933,2.00020170211792,0.6560549313358303
0,,sub_115,2024-07-30 16:21:09,3,distance,cathedral,numerosity_judgement,1,8,6,countries_reversed,"['_Sudan_reversed', '_Tonga_reversed', '_Syria_reversed', '_Yemen_reversed', '_Japan_reversed', '_Congo_reversed']","['f', 'm', 'm', 'f', 'f', 'm']","['p284', 'p318', 'p256', 'p268', 'p248', 'p307']","[7, 3, 9, 0, 5, 2]","[91.73820004985969, 89.14911522239515, 92.00610777531934, 84.40078082039426, 90.34149293193902, 87.57049330475357]",4.0,False,6.333333333333333,3.32665998663324,3.375465154647827,0.8975712177959368
0,,sub_115,2024-07-30 16:21:12,3,distance,cathedral,numerosity_judgement,1,9,3,countries_reversed,"['_Peru_reversed', '_Japan_reversed', '_Tonga_reversed']","['f', 'f', 'm']","['p248', 'p245', 'p307']","[0, 2, 8]","[84.40078082039426, 87.57049330475357, 92.0152836843556]",2.0,False,5.333333333333333,4.163331998932266,2.1238701343536377,0.9541709227102484
0,,sub_115,2024-07-30 16:21:15,3,distance,cathedral,numerosity_judgement,1,10,5,countries_reversed,"['_Tonga_reversed', '_Peru_reversed', '_Japan_reversed', '_Togo_reversed', '_Mali_reversed']","['m', 'm', 'f', 'm', 'm']","['p318', 'p229', 'p248', 'p256', 'p307']","[4, 3, 8, 9, 7]","[89.31368318402099, 89.14911522239515, 92.0152836843556, 92.00610777531934, 91.73820004985969]",3.0,False,8.2,2.588435821108957,1.4374010562896729,0.8756440812620588
0,,sub_115,2024-07-30 16:21:19,3,distance,cathedral,numerosity_judgement,1,11,2,countries_reversed,"['_Oman_reversed', '_Yemen_reversed']","['m', 'f']","['p307', 'p245']","[5, 9]","[90.34149293193902, 92.00610777531934]",2.0,True,9.0,2.8284271247461903,2.436716318130493,0.5617750539098854
0,,sub_115,2024-07-30 16:21:22,3,distance,cathedral,numerosity_judgement,1,12,6,countries_reversed,"['_Belgium_reversed', '_Peru_reversed', '_Syria_reversed', '_Congo_reversed', '_Oman_reversed', '_Sudan_reversed']","['m', 'f', 'f', 'm', 'f', 'f']","['p318', 'p248', 'p268', 'p229', 'p245', 'p284']","[7, 2, 5, 10, 9, 1]","[91.73820004985969, 87.57049330475357, 90.34149293193902, 93.00003341222717, 92.00610777531934, 86.2038576498559]",4.0,False,7.666666666666667,3.669695718539436,2.5474512577056885,0.9520485756440812
0,,sub_115,2024-07-30 16:21:26,3,distance,cathedral,numerosity_judgement,1,13,4,countries_reversed,"['_Oman_reversed', '_Yemen_reversed', '_Cuba_reversed', '_Congo_reversed']","['m', 'm', 'f', 'm']","['p229', 'p256', 'p284', 'p307']","[4, 8, 5, 10]","[89.31368318402099, 92.0152836843556, 90.34149293193902, 93.00003341222717]",3.0,False,8.75,2.753785273643051,1.8748688697814941,0.7171149699239587
0,,sub_115,2024-07-30 16:21:29,3,distance,cathedral,numerosity_judgement,1,14,3,countries_reversed,"['_Cuba_reversed', '_Congo_reversed', '_Sudan_reversed']","['f', 'm', 'f']","['p245', 'p256', 'p284']","[7, 5, 8]","[91.73820004985969, 90.34149293193902, 92.0152836843556]",3.0,True,8.666666666666666,1.5275252316519468,2.4840495586395264,0.7792418567699466
0,,sub_115,2024-07-30 16:21:34,3,distance,cathedral,numerosity_judgement,1,15,6,countries_reversed,"['_Togo_reversed', '_Oman_reversed', '_Japan_reversed', '_Yemen_reversed', '_Syria_reversed', '_Britain_reversed']","['m', 'f', 'f', 'm', 'm', 'm']","['p229', 'p245', 'p248', 'p318', 'p256', 'p307']","[5, 1, 6, 2, 9, 0]","[90.34149293193902, 86.2038576498559, 91.58892582949886, 87.57049330475357, 92.00610777531934, 84.40078082039426]",3.0,False,5.833333333333333,3.430257521916783,3.00097393989563,0.7780955623652253
0,,sub_115,2024-07-30 16:21:37,3,distance,cathedral,numerosity_judgement,1,16,5,countries_reversed,"['_Cuba_reversed', '_Mali_reversed', '_Yemen_reversed', '_Peru_reversed', '_Britain_reversed']","['m', 'f', 'f', 'm', 'f']","['p307', 'p248', 'p245', 'p318', 'p268']","[0, 9, 2, 4, 3]","[84.40078082039426, 92.00610777531934, 87.57049330475357, 89.31368318402099, 89.14911522239515]",4.0,False,5.6,3.361547262794322,1.936657190322876,0.707411190557258
0,,sub_115,2024-07-30 16:21:40,3,distance,cathedral,numerosity_judgement,1,17,4,countries_reversed,"['_Oman_reversed', '_Cuba_reversed', '_Belgium_reversed', '_Congo_reversed']","['m', 'f', 'f', 'm']","['p318', 'p245', 'p268', 'p307']","[4, 1, 8, 9]","[89.31368318402099, 86.2038576498559, 92.0152836843556, 92.00610777531934]",5.0,False,7.5,3.696845502136472,1.874870777130127,0.9266598569969356
0,,sub_115,2024-07-30 16:21:43,3,distance,cathedral,numerosity_judgement,1,18,3,countries_reversed,"['_Congo_reversed', '_Syria_reversed', '_Sudan_reversed']","['m', 'f', 'm']","['p307', 'p248', 'p318']","[8, 4, 1]","[92.0152836843556, 89.31368318402099, 86.2038576498559]",2.0,False,6.333333333333333,3.5118845842842465,1.687716007232666,0.9012370900011348
0,,sub_115,2024-07-30 16:21:47,3,distance,cathedral,numerosity_judgement,1,19,2,countries_reversed,"['_Yemen_reversed', '_Oman_reversed']","['f', 'm']","['p284', 'p229']","[7, 6]","[91.73820004985969, 91.58892582949886]",2.0,True,8.5,0.7071067811865476,2.623649835586548,0.6040971512881625
0,,sub_115,2024-07-30 16:21:50,3,distance,cathedral,numerosity_judgement,1,20,4,countries_reversed,"['_Togo_reversed', '_Peru_reversed', '_Syria_reversed', '_Yemen_reversed']","['f', 'f', 'm', 'f']","['p245', 'p284', 'p318', 'p248']","[6, 9, 2, 3]","[91.58892582949886, 92.00610777531934, 87.57049330475357, 89.14911522239515]",4.0,True,7.0,3.1622776601683795,2.062356472015381,0.7896946998070593
0,,sub_115,2024-07-30 16:21:53,3,distance,cathedral,numerosity_judgement,1,21,2,countries_reversed,"['_Belgium_reversed', '_Yemen_reversed']","['m', 'm']","['p307', 'p256']","[2, 6]","[87.57049330475357, 91.58892582949886]",2.0,True,6.0,2.8284271247461903,1.437443494796753,0.7596073090455113
0,,sub_115,2024-07-30 16:21:57,3,distance,cathedral,numerosity_judgement,1,22,6,countries_reversed,"['_Congo_reversed', '_Sudan_reversed', '_Mali_reversed', '_Yemen_reversed', '_Belgium_reversed', '_Togo_reversed']","['m', 'f', 'f', 'm', 'm', 'f']","['p318', 'p268', 'p248', 'p256', 'p307', 'p245']","[3, 9, 0, 10, 6, 4]","[89.14911522239515, 92.00610777531934, 84.40078082039426, 93.00003341222717, 91.58892582949886, 89.31368318402099]",6.0,True,7.333333333333333,3.777124126457412,2.1873481273651123,0.8844739530132788
0,,sub_115,2024-07-30 16:22:00,3,distance,cathedral,numerosity_judgement,1,23,5,countries_reversed,"['_Japan_reversed', '_Cuba_reversed', '_Britain_reversed', '_Togo_reversed', '_Syria_reversed']","['f', 'f', 'm', 'm', 'f']","['p245', 'p268', 'p256', 'p318', 'p248']","[4, 7, 8, 6, 3]","[89.31368318402099, 91.73820004985969, 92.0152836843556, 91.58892582949886, 89.14911522239515]",3.0,False,7.6,2.073644135332772,1.874868631362915,0.8149472250595846
0,,sub_115,2024-07-30 16:22:04,3,distance,cathedral,numerosity_judgement,1,24,3,countries_reversed,"['_Cuba_reversed', '_Oman_reversed', '_Yemen_reversed']","['m', 'm', 'f']","['p307', 'p256', 'p284']","[7, 8, 10]","[91.73820004985969, 92.0152836843556, 93.00003341222717]",4.0,False,10.333333333333334,1.5275252316519468,3.562971591949463,0.6293837248893429
0,,sub_115,2024-07-30 16:22:08,3,distance,cathedral,numerosity_judgement,1,25,5,countries_reversed,"['_Togo_reversed', '_Peru_reversed', '_Mali_reversed', '_Yemen_reversed', '_Belgium_reversed']","['m', 'f', 'm', 'f', 'm']","['p307', 'p245', 'p318', 'p284', 'p229']","[9, 8, 2, 6, 5]","[92.00610777531934, 92.0152836843556, 87.57049330475357, 91.58892582949886, 90.34149293193902]",5.0,True,8.0,2.7386127875258306,1.8133792877197266,0.8372148450800136
0,,sub_115,2024-07-30 16:22:11,3,distance,cathedral,numerosity_judgement,1,26,2,countries_reversed,"['_Britain_reversed', '_Mali_reversed']","['m', 'm']","['p307', 'p256']","[9, 10]","[92.00610777531934, 93.00003341222717]",2.0,True,11.5,0.7071067811865476,1.8748695850372314,0.7273294745204858
0,,sub_115,2024-07-30 16:22:15,3,distance,cathedral,numerosity_judgement,1,27,3,countries_reversed,"['_Oman_reversed', '_Yemen_reversed', '_Britain_reversed']","['f', 'f', 'm']","['p248', 'p245', 'p318']","[5, 9, 6]","[90.34149293193902, 92.00610777531934, 91.58892582949886]",3.0,True,8.666666666666666,2.0816659994661326,2.74786639213562,0.6615707638179549
0,,sub_115,2024-07-30 16:22:18,3,distance,cathedral,numerosity_judgement,1,28,4,countries_reversed,"['_Tonga_reversed', '_Oman_reversed', '_Sudan_reversed', '_Cuba_reversed']","['f', 'm', 'f', 'f']","['p268', 'p256', 'p284', 'p248']","[3, 5, 10, 8]","[89.14911522239515, 90.34149293193902, 93.00003341222717, 92.0152836843556]",3.0,False,8.5,3.1091263510296048,2.124628782272339,0.684394506866417
0,,sub_115,2024-07-30 16:22:21,3,distance,cathedral,numerosity_judgement,1,29,6,countries_reversed,"['_Cuba_reversed', '_Oman_reversed', '_Congo_reversed', '_Yemen_reversed', '_Peru_reversed', '_Mali_reversed']","['f', 'f', 'f', 'm', 'm', 'f']","['p268', 'p248', 'p284', 'p256', 'p318', 'p245']","[10, 9, 6, 7, 3, 0]","[93.00003341222717, 92.00610777531934, 91.58892582949886, 91.73820004985969, 89.14911522239515, 84.40078082039426]",4.0,False,7.833333333333333,3.763863263545405,1.8748433589935303,0.7130632164340029
0,,sub_115,2024-07-30 16:22:24,3,distance,cathedral,numerosity_judgement,1,30,5,countries_reversed,"['_Oman_reversed', '_Sudan_reversed', '_Japan_reversed', '_Belgium_reversed', '_Britain_reversed']","['f', 'f', 'f', 'm', 'm']","['p284', 'p268', 'p245', 'p229', 'p256']","[3, 10, 4, 6, 0]","[89.14911522239515, 93.00003341222717, 89.31368318402099, 91.58892582949886, 84.40078082039426]",4.0,False,6.6,3.714835124201342,1.8123736381530762,0.959357621155374
0,,sub_115,2024-07-30 16:22:27,3,distance,cathedral,numerosity_judgement,1,31,2,countries_reversed,"['_Yemen_reversed', '_Cuba_reversed']","['m', 'f']","['p256', 'p245']","[5, 8]","[90.34149293193902, 92.0152836843556]",2.0,True,8.5,2.1213203435596424,1.8120520114898682,0.6732833957553058
0,,sub_115,2024-07-30 16:22:31,3,distance,cathedral,numerosity_judgement,1,32,3,countries_reversed,"['_Syria_reversed', '_Japan_reversed', '_Peru_reversed']","['f', 'm', 'm']","['p268', 'p229', 'p256']","[0, 2, 9]","[84.40078082039426, 87.57049330475357, 92.00610777531934]",2.0,False,5.666666666666667,4.725815626252608,1.8748695850372314,0.9212802179094314
0,,sub_115,2024-07-30 16:22:34,3,distance,cathedral,numerosity_judgement,1,33,4,countries_reversed,"['_Cuba_reversed', '_Britain_reversed', '_Japan_reversed', '_Togo_reversed']","['f', 'f', 'f', 'm']","['p245', 'p248', 'p268', 'p229']","[10, 8, 1, 0]","[93.00003341222717, 92.0152836843556, 86.2038576498559, 84.40078082039426]",4.0,True,6.75,4.9916597106239795,2.374880313873291,0.8496765406877766
0,,sub_115,2024-07-30 16:22:38,3,distance,cathedral,numerosity_judgement,1,34,6,countries_reversed,"['_Tonga_reversed', '_Yemen_reversed', '_Britain_reversed', '_Cuba_reversed', '_Peru_reversed', '_Japan_reversed']","['m', 'f', 'm', 'f', 'f', 'm']","['p307', 'p245', 'p256', 'p268', 'p248', 'p229']","[1, 2, 10, 3, 8, 7]","[86.2038576498559, 87.57049330475357, 93.00003341222717, 89.14911522239515, 92.0152836843556, 91.73820004985969]",5.0,False,7.166666666666667,3.65604522218567,1.9365499019622803,0.7332992849846782
0,,sub_115,2024-07-30 16:22:41,3,distance,cathedral,numerosity_judgement,1,35,4,countries_reversed,"['_Sudan_reversed', '_Togo_reversed', '_Yemen_reversed', '_Oman_reversed']","['f', 'f', 'm', 'm']","['p245', 'p284', 'p256', 'p229']","[2, 9, 6, 4]","[87.57049330475357, 92.00610777531934, 91.58892582949886, 89.31368318402099]",2.0,False,7.25,2.9860788111948193,1.9998607635498047,0.8268414481897628
0,,sub_115,2024-07-30 16:22:45,3,distance,cathedral,numerosity_judgement,1,36,6,countries_reversed,"['_Syria_reversed', '_Mali_reversed', '_Peru_reversed', '_Oman_reversed', '_Sudan_reversed', '_Cuba_reversed']","['f', 'm', 'm', 'f', 'f', 'm']","['p248', 'p256', 'p318', 'p245', 'p268', 'p229']","[9, 0, 10, 5, 7, 2]","[92.00610777531934, 84.40078082039426, 93.00003341222717, 90.34149293193902, 91.73820004985969, 87.57049330475357]",3.0,False,7.5,3.9370039370059056,2.372541666030884,0.7900578821927137
0,,sub_115,2024-07-30 16:22:47,3,distance,cathedral,numerosity_judgement,1,37,2,countries_reversed,"['_Yemen_reversed', '_Britain_reversed']","['m', 'f']","['p256', 'p245']","[2, 8]","[87.57049330475357, 92.0152836843556]",2.0,True,7.0,4.242640687119285,1.7516250610351562,0.7901486777891272
0,,sub_115,2024-07-30 16:22:51,3,distance,cathedral,numerosity_judgement,1,38,3,countries_reversed,"['_Cuba_reversed', '_Tonga_reversed', '_Oman_reversed']","['m', 'f', 'f']","['p307', 'p284', 'p245']","[7, 9, 5]","[91.73820004985969, 92.00610777531934, 90.34149293193902]",3.0,True,9.0,2.0,2.3748347759246826,0.5873453637498581
0,,sub_115,2024-07-30 16:22:54,3,distance,cathedral,numerosity_judgement,1,39,5,countries_reversed,"['_Congo_reversed', '_Mali_reversed', '_Britain_reversed', '_Tonga_reversed', '_Syria_reversed']","['m', 'm', 'f', 'f', 'm']","['p256', 'p229', 'p248', 'p268', 'p307']","[1, 7, 9, 8, 0]","[86.2038576498559, 91.73820004985969, 92.00610777531934, 92.0152836843556, 84.40078082039426]",4.0,False,7.0,4.183300132670378,1.5516414642333984,0.93203949608444
0,,sub_115,2024-07-30 16:22:57,3,distance,cathedral,numerosity_judgement,1,40,6,countries_reversed,"['_Sudan_reversed', '_Cuba_reversed', '_Belgium_reversed', '_Oman_reversed', '_Britain_reversed', '_Congo_reversed']","['m', 'f', 'f', 'f', 'm', 'm']","['p307', 'p284', 'p245', 'p268', 'p229', 'p318']","[4, 1, 8, 9, 7, 10]","[89.31368318402099, 86.2038576498559, 92.0152836843556, 92.00610777531934, 91.73820004985969, 93.00003341222717]",4.0,False,8.5,3.391164991562634,1.8765861988067627,0.8592895244580638
0,,sub_115,2024-07-30 16:23:00,3,distance,cathedral,numerosity_judgement,1,41,4,countries_reversed,"['_Syria_reversed', '_Britain_reversed', '_Tonga_reversed', '_Sudan_reversed']","['m', 'f', 'f', 'm']","['p318', 'p245', 'p284', 'p229']","[4, 1, 2, 10]","[89.31368318402099, 86.2038576498559, 87.57049330475357, 93.00003341222717]",3.0,False,6.25,4.031128874149275,1.7498748302459717,0.9534218590398366
0,,sub_115,2024-07-30 16:23:03,3,distance,cathedral,numerosity_judgement,1,42,5,countries_reversed,"['_Peru_reversed', '_Mali_reversed', '_Togo_reversed', '_Tonga_reversed', '_Syria_reversed']","['f', 'm', 'f', 'm', 'm']","['p268', 'p307', 'p245', 'p318', 'p256']","[0, 3, 5, 7, 8]","[84.40078082039426, 89.14911522239515, 90.34149293193902, 91.73820004985969, 92.0152836843556]",3.0,False,6.6,3.2093613071762426,1.6272830963134766,0.8528997843604585
0,,sub_115,2024-07-30 16:23:06,3,distance,cathedral,numerosity_judgement,1,43,2,countries_reversed,"['_Britain_reversed', '_Mali_reversed']","['f', 'm']","['p248', 'p318']","[2, 9]","[87.57049330475357, 92.00610777531934]",2.0,True,7.5,4.949747468305833,1.4998955726623535,0.900488026330723
0,,sub_115,2024-07-30 16:23:09,3,distance,cathedral,numerosity_judgement,1,44,3,countries_reversed,"['_Yemen_reversed', '_Cuba_reversed', '_Oman_reversed']","['f', 'm', 'm']","['p248', 'p307', 'p318']","[5, 10, 8]","[90.34149293193902, 93.00003341222717, 92.0152836843556]",2.0,False,9.666666666666666,2.516611478423583,1.87188720703125,0.7032005447735785
0,,sub_115,2024-07-30 16:23:12,3,distance,cathedral,numerosity_judgement,1,45,4,countries_reversed,"['_Cuba_reversed', '_Sudan_reversed', '_Japan_reversed', '_Mali_reversed']","['m', 'm', 'f', 'f']","['p307', 'p256', 'p245', 'p268']","[0, 6, 7, 1]","[84.40078082039426, 91.58892582949886, 91.73820004985969, 86.2038576498559]",3.0,False,5.5,3.5118845842842465,1.1874172687530518,0.8634888207921916
0,,sub_115,2024-07-30 16:23:14,3,distance,cathedral,numerosity_judgement,1,46,6,countries_reversed,"['_Yemen_reversed', '_Sudan_reversed', '_Cuba_reversed', '_Britain_reversed', '_Oman_reversed', '_Congo_reversed']","['m', 'f', 'f', 'm', 'f', 'f']","['p229', 'p248', 'p245', 'p307', 'p284', 'p268']","[6, 10, 5, 7, 0, 3]","[91.58892582949886, 93.00003341222717, 90.34149293193902, 91.73820004985969, 84.40078082039426, 89.14911522239515]",3.0,False,7.166666666666667,3.4302575219167823,1.6248867511749268,0.6710135058449666
0,,sub_115,2024-07-30 16:23:18,3,distance,cathedral,numerosity_judgement,1,47,5,countries_reversed,"['_Japan_reversed', '_Cuba_reversed', '_Sudan_reversed', '_Togo_reversed', '_Oman_reversed']","['f', 'f', 'm', 'm', 'm']","['p284', 'p245', 'p318', 'p307', 'p256']","[2, 0, 4, 7, 10]","[87.57049330475357, 84.40078082039426, 89.31368318402099, 91.73820004985969, 93.00003341222717]",3.0,False,6.6,3.9749213828703582,2.687497138977051,0.7196685960730904
0,,sub_115,2024-07-30 16:23:21,3,distance,cathedral,numerosity_judgement,1,48,2,countries_reversed,"['_Peru_reversed', '_Yemen_reversed']","['m', 'f']","['p318', 'p248']","[2, 5]","[87.57049330475357, 90.34149293193902]",2.0,True,5.5,2.1213203435596424,1.2499127388000488,0.6340710475541936
0,,sub_115,2024-07-30 16:23:24,3,distance,cathedral,numerosity_judgement,1,49,3,countries_reversed,"['_Cuba_reversed', '_Yemen_reversed', '_Mali_reversed']","['m', 'm', 'm']","['p307', 'p229', 'p318']","[6, 7, 5]","[91.58892582949886, 91.73820004985969, 90.34149293193902]",3.0,True,8.0,1.0,2.0588393211364746,0.7973669277040063
0,,sub_115,2024-07-30 16:23:28,3,distance,cathedral,numerosity_judgement,1,50,4,countries_reversed,"['_Togo_reversed', '_Cuba_reversed', '_Mali_reversed', '_Peru_reversed']","['f', 'm', 'f', 'm']","['p268', 'p307', 'p284', 'p229']","[10, 3, 4, 7]","[93.00003341222717, 89.14911522239515, 89.31368318402099, 91.73820004985969]",4.0,True,8.0,3.1622776601683795,2.875999927520752,0.7596186584950629
0,,sub_115,2024-07-30 16:23:31,3,distance,cathedral,numerosity_judgement,1,51,2,countries_reversed,"['_Oman_reversed', '_Britain_reversed']","['m', 'f']","['p318', 'p268']","[8, 4]","[92.0152836843556, 89.31368318402099]",2.0,True,8.0,2.8284271247461903,1.3749041557312012,0.847452048575644
0,,sub_115,2024-07-30 16:23:36,3,distance,cathedral,numerosity_judgement,1,52,6,countries_reversed,"['_Congo_reversed', '_Britain_reversed', '_Syria_reversed', '_Oman_reversed', '_Tonga_reversed', '_Belgium_reversed']","['f', 'f', 'm', 'm', 'm', 'f']","['p248', 'p245', 'p256', 'p307', 'p318', 'p284']","[1, 6, 8, 5, 4, 7]","[86.2038576498559, 91.58892582949886, 92.0152836843556, 90.34149293193902, 89.31368318402099, 91.73820004985969]",4.0,False,7.166666666666667,2.48327740429189,3.3764467239379883,0.7529224832595619
0,,sub_115,2024-07-30 16:23:41,3,distance,cathedral,numerosity_judgement,1,53,3,countries_reversed,"['_Cuba_reversed', '_Togo_reversed', '_Congo_reversed']","['f', 'f', 'm']","['p248', 'p268', 'p307']","[10, 3, 9]","[93.00003341222717, 89.14911522239515, 92.00610777531934]",2.0,False,9.333333333333334,3.7859388972001824,3.798475980758667,0.7195437521280218
0,,sub_115,2024-07-30 16:23:44,3,distance,cathedral,numerosity_judgement,1,54,5,countries_reversed,"['_Belgium_reversed', '_Cuba_reversed', '_Congo_reversed', '_Oman_reversed', '_Britain_reversed']","['f', 'm', 'f', 'f', 'm']","['p268', 'p307', 'p248', 'p245', 'p229']","[9, 7, 4, 6, 10]","[92.00610777531934, 91.73820004985969, 89.31368318402099, 91.58892582949886, 93.00003341222717]",5.0,True,9.2,2.3874672772626644,1.7986392974853516,0.6419362160935195
0,,sub_115,2024-07-30 16:23:46,3,distance,cathedral,numerosity_judgement,1,55,6,countries_reversed,"['_Syria_reversed', '_Togo_reversed', '_Congo_reversed', '_Japan_reversed', '_Sudan_reversed', '_Belgium_reversed']","['f', 'f', 'f', 'm', 'm', 'm']","['p284', 'p245', 'p248', 'p256', 'p307', 'p318']","[9, 5, 10, 4, 2, 6]","[92.00610777531934, 90.34149293193902, 93.00003341222717, 89.31368318402099, 87.57049330475357, 91.58892582949886]",6.0,True,8.0,3.03315017762062,1.312408208847046,0.827658608557485
0,,sub_115,2024-07-30 16:23:50,3,distance,cathedral,numerosity_judgement,1,56,2,countries_reversed,"['_Congo_reversed', '_Mali_reversed']","['f', 'm']","['p284', 'p318']","[9, 7]","[92.00610777531934, 91.73820004985969]",2.0,True,10.0,1.4142135623730951,1.8774781227111816,0.8796277380547044
0,,sub_115,2024-07-30 16:23:53,3,distance,cathedral,numerosity_judgement,1,57,3,countries_reversed,"['_Tonga_reversed', '_Togo_reversed', '_Oman_reversed']","['m', 'f', 'm']","['p229', 'p245', 'p318']","[3, 6, 4]","[89.14911522239515, 91.58892582949886, 89.31368318402099]",2.0,False,6.333333333333333,1.5275252316519465,1.8055419921875,0.7428782204063102
0,,sub_115,2024-07-30 16:23:56,3,distance,cathedral,numerosity_judgement,1,58,4,countries_reversed,"['_Congo_reversed', '_Britain_reversed', '_Japan_reversed', '_Belgium_reversed']","['f', 'f', 'f', 'f']","['p284', 'p268', 'p245', 'p248']","[4, 8, 0, 9]","[89.31368318402099, 92.0152836843556, 84.40078082039426, 92.00610777531934]",6.0,False,7.25,4.112987559751022,1.6248869895935059,0.8964135739416639
0,,sub_115,2024-07-30 16:23:59,3,distance,cathedral,numerosity_judgement,1,59,5,countries_reversed,"['_Cuba_reversed', '_Syria_reversed', '_Peru_reversed', '_Oman_reversed', '_Britain_reversed']","['f', 'm', 'm', 'm', 'f']","['p248', 'p307', 'p256', 'p229', 'p245']","[8, 0, 3, 4, 10]","[92.0152836843556, 84.40078082039426, 89.14911522239515, 89.31368318402099, 93.00003341222717]",4.0,False,7.0,4.0,1.812450885772705,0.7376461241629781
0,,sub_115,2024-07-30 16:24:01,3,distance,cathedral,numerosity_judgement,1,60,2,countries_reversed,"['_Cuba_reversed', '_Sudan_reversed']","['m', 'f']","['p229', 'p284']","[1, 4]","[86.2038576498559, 89.31368318402099]",2.0,True,4.5,2.1213203435596424,1.2499139308929443,0.9686187719895584
0,,sub_115,2024-07-30 16:24:04,3,distance,cathedral,numerosity_judgement,1,61,3,countries_reversed,"['_Oman_reversed', '_Togo_reversed', '_Cuba_reversed']","['m', 'm', 'm']","['p256', 'p229', 'p307']","[6, 10, 5]","[91.58892582949886, 93.00003341222717, 90.34149293193902]",2.0,False,9.0,2.6457513110645907,1.6875734329223633,0.616956077630235
0,,sub_115,2024-07-30 16:24:08,3,distance,cathedral,numerosity_judgement,1,62,5,countries_reversed,"['_Britain_reversed', '_Syria_reversed', '_Tonga_reversed', '_Togo_reversed', '_Oman_reversed']","['f', 'f', 'f', 'm', 'm']","['p248', 'p268', 'p245', 'p318', 'p229']","[3, 8, 7, 4, 6]","[89.14911522239515, 92.0152836843556, 91.73820004985969, 89.31368318402099, 91.58892582949886]",4.0,False,7.6,2.073644135332772,2.125319242477417,0.7962206332992849
0,,sub_115,2024-07-30 16:24:11,3,distance,cathedral,numerosity_judgement,1,63,4,countries_reversed,"['_Congo_reversed', '_Japan_reversed', '_Sudan_reversed', '_Britain_reversed']","['f', 'm', 'm', 'f']","['p248', 'p318', 'p229', 'p245']","[6, 7, 2, 1]","[91.58892582949886, 91.73820004985969, 87.57049330475357, 86.2038576498559]",2.0,False,6.0,2.943920288775949,1.8123729228973389,0.9105322891839746
0,,sub_115,2024-07-30 16:24:14,3,distance,cathedral,numerosity_judgement,1,64,6,countries_reversed,"['_Togo_reversed', '_Peru_reversed', '_Sudan_reversed', '_Belgium_reversed', '_Congo_reversed', '_Tonga_reversed']","['f', 'm', 'm', 'f', 'f', 'm']","['p268', 'p307', 'p229', 'p245', 'p248', 'p318']","[1, 6, 5, 0, 4, 10]","[86.2038576498559, 91.58892582949886, 90.34149293193902, 84.40078082039426, 89.31368318402099, 93.00003341222717]",4.0,False,6.333333333333333,3.6147844564602556,1.9226312637329102,0.9204176597435024
0,,sub_115,2024-07-30 16:24:19,3,distance,cathedral,numerosity_judgement,1,65,5,countries_reversed,"['_Yemen_reversed', '_Oman_reversed', '_Peru_reversed', '_Britain_reversed', '_Mali_reversed']","['m', 'm', 'f', 'f', 'f']","['p256', 'p307', 'p245', 'p284', 'p248']","[9, 2, 10, 8, 0]","[92.00610777531934, 87.57049330475357, 93.00003341222717, 92.0152836843556, 84.40078082039426]",3.0,False,7.8,4.494441010848846,3.625962257385254,0.8991147429349676
0,,sub_115,2024-07-30 16:24:22,3,distance,cathedral,numerosity_judgement,1,66,4,countries_reversed,"['_Cuba_reversed', '_Belgium_reversed', '_Syria_reversed', '_Sudan_reversed']","['f', 'f', 'm', 'm']","['p248', 'p245', 'p229', 'p256']","[10, 9, 5, 8]","[93.00003341222717, 92.00610777531934, 90.34149293193902, 92.0152836843556]",6.0,False,10.0,2.160246899469287,1.6873652935028076,0.7475768925207128
0,,sub_115,2024-07-30 16:24:25,3,distance,cathedral,numerosity_judgement,1,67,6,countries_reversed,"['_Belgium_reversed', '_Mali_reversed', '_Cuba_reversed', '_Togo_reversed', '_Yemen_reversed', '_Peru_reversed']","['f', 'm', 'm', 'm', 'f', 'f']","['p284', 'p318', 'p229', 'p307', 'p248', 'p268']","[8, 9, 2, 5, 7, 4]","[92.0152836843556, 92.00610777531934, 87.57049330475357, 90.34149293193902, 91.73820004985969, 89.31368318402099]",4.0,False,7.833333333333333,2.6394443859772205,2.0623562335968018,0.8219952332311883
0,,sub_115,2024-07-30 16:24:30,3,distance,cathedral,numerosity_judgement,1,68,3,countries_reversed,"['_Yemen_reversed', '_Belgium_reversed', '_Congo_reversed']","['f', 'm', 'f']","['p284', 'p229', 'p268']","[7, 6, 4]","[91.73820004985969, 91.58892582949886, 89.31368318402099]",3.0,True,7.666666666666667,1.5275252316519465,3.7499096393585205,0.8914992622857791
0,,sub_115,2024-07-30 16:24:33,3,distance,cathedral,numerosity_judgement,1,69,2,countries_reversed,"['_Congo_reversed', '_Tonga_reversed']","['f', 'm']","['p248', 'p318']","[2, 0]","[87.57049330475357, 84.40078082039426]",2.0,True,3.0,1.4142135623730951,1.6249983310699463,0.9395414822381114
0,,sub_115,2024-07-30 16:24:36,3,distance,cathedral,numerosity_judgement,1,70,5,countries_reversed,"['_Peru_reversed', '_Belgium_reversed', '_Togo_reversed', '_Tonga_reversed', '_Britain_reversed']","['m', 'f', 'm', 'f', 'm']","['p256', 'p284', 'p229', 'p248', 'p318']","[3, 10, 0, 1, 2]","[89.14911522239515, 93.00003341222717, 84.40078082039426, 86.2038576498559, 87.57049330475357]",3.0,False,5.2,3.96232255123179,1.6873836517333984,0.9242651231415276
0,,sub_115,2024-07-30 16:24:39,3,distance,cathedral,numerosity_judgement,1,71,2,countries_reversed,"['_Cuba_reversed', '_Tonga_reversed']","['f', 'm']","['p248', 'p318']","[10, 0]","[93.00003341222717, 84.40078082039426]",2.0,True,7.0,7.0710678118654755,2.0612728595733643,0.7061514016570196
0,,sub_115,2024-07-30 16:24:42,3,distance,cathedral,numerosity_judgement,1,72,4,countries_reversed,"['_Oman_reversed', '_Yemen_reversed', '_Britain_reversed', '_Mali_reversed']","['m', 'm', 'm', 'm']","['p229', 'p318', 'p307', 'p256']","[5, 7, 9, 6]","[90.34149293193902, 91.73820004985969, 92.00610777531934, 91.58892582949886]",4.0,True,8.75,1.707825127659933,1.5629096031188965,0.6135966405629327
0,,sub_115,2024-07-30 16:24:45,3,distance,cathedral,numerosity_judgement,1,73,3,countries_reversed,"['_Mali_reversed', '_Oman_reversed', '_Sudan_reversed']","['f', 'f', 'm']","['p284', 'p248', 'p256']","[8, 6, 9]","[92.0152836843556, 91.58892582949886, 92.00610777531934]",3.0,True,9.666666666666666,1.5275252316519468,1.5623910427093506,0.8215866530473273
0,,sub_115,2024-07-30 16:24:48,3,distance,cathedral,numerosity_judgement,1,74,6,countries_reversed,"['_Mali_reversed', '_Cuba_reversed', '_Peru_reversed', '_Oman_reversed', '_Syria_reversed', '_Yemen_reversed']","['f', 'm', 'f', 'm', 'f', 'f']","['p284', 'p307', 'p268', 'p229', 'p248', 'p245']","[4, 7, 10, 6, 9, 0]","[89.31368318402099, 91.73820004985969, 93.00003341222717, 91.58892582949886, 92.00610777531934, 84.40078082039426]",4.0,False,8.0,3.63318042491699,1.6218442916870117,0.6868346385200318
0,,sub_115,2024-07-30 16:27:08,3,distance,cathedral,numerosity_judgement,2,0,5,countries_reversed,"['_Britain_reversed', '_Mali_reversed', '_Peru_reversed', '_Cuba_reversed', '_Japan_reversed']","['f', 'm', 'f', 'f', 'f']","['p245', 'p256', 'p268', 'p248', 'p284']","[1, 9, 6, 8, 5]","[86.2038576498559, 92.00610777531934, 91.58892582949886, 92.0152836843556, 90.34149293193902]",3.0,False,7.8,3.1144823004794877,2.560532331466675,0.7920440358642605
0,,sub_115,2024-07-30 16:27:11,3,distance,cathedral,numerosity_judgement,2,1,2,countries_reversed,"['_Yemen_reversed', '_Oman_reversed']","['m', 'f']","['p256', 'p245']","[3, 7]","[89.14911522239515, 91.73820004985969]",2.0,True,7.0,2.8284271247461903,1.9998605251312256,0.5731245034615822
0,,sub_115,2024-07-30 16:27:14,3,distance,cathedral,numerosity_judgement,2,2,3,countries_reversed,"['_Japan_reversed', '_Belgium_reversed', '_Britain_reversed']","['m', 'f', 'f']","['p318', 'p268', 'p245']","[0, 1, 8]","[84.40078082039426, 86.2038576498559, 92.0152836843556]",2.0,False,5.0,4.358898943540674,1.8627252578735352,0.9269549426852798
0,,sub_115,2024-07-30 16:27:18,3,distance,cathedral,numerosity_judgement,2,3,6,countries_reversed,"['_Syria_reversed', '_Yemen_reversed', '_Belgium_reversed', '_Cuba_reversed', '_Tonga_reversed', '_Togo_reversed']","['m', 'm', 'f', 'm', 'f', 'f']","['p229', 'p307', 'p248', 'p256', 'p245', 'p268']","[0, 6, 7, 3, 4, 1]","[84.40078082039426, 91.58892582949886, 91.73820004985969, 89.14911522239515, 89.31368318402099, 86.2038576498559]",4.0,False,5.5,2.7386127875258306,1.8732578754425049,0.8923050732039496
0,,sub_115,2024-07-30 16:27:21,3,distance,cathedral,numerosity_judgement,2,4,4,countries_reversed,"['_Yemen_reversed', '_Peru_reversed', '_Congo_reversed', '_Cuba_reversed']","['m', 'f', 'm', 'm']","['p229', 'p284', 'p256', 'p307']","[3, 0, 2, 8]","[89.14911522239515, 84.40078082039426, 87.57049330475357, 92.0152836843556]",2.0,False,5.25,3.4034296427770228,2.4998271465301514,0.7692656906140052
0,,sub_115,2024-07-30 16:27:25,3,distance,cathedral,numerosity_judgement,2,5,5,countries_reversed,"['_Tonga_reversed', '_Peru_reversed', '_Syria_reversed', '_Mali_reversed', '_Sudan_reversed']","['f', 'f', 'f', 'm', 'm']","['p248', 'p245', 'p284', 'p318', 'p307']","[5, 3, 8, 6, 10]","[90.34149293193902, 89.14911522239515, 92.0152836843556, 91.58892582949886, 93.00003341222717]",5.0,True,8.4,2.701851217221259,2.6117758750915527,0.8582567245488594
0,,sub_115,2024-07-30 16:27:28,3,distance,cathedral,numerosity_judgement,2,6,2,countries_reversed,"['_Cuba_reversed', '_Peru_reversed']","['m', 'm']","['p256', 'p307']","[10, 0]","[93.00003341222717, 84.40078082039426]",2.0,True,7.0,7.0710678118654755,1.7512481212615967,0.6309953467256838
0,,sub_115,2024-07-30 16:27:32,3,distance,cathedral,numerosity_judgement,2,7,6,countries_reversed,"['_Yemen_reversed', '_Cuba_reversed', '_Tonga_reversed', '_Peru_reversed', '_Mali_reversed', '_Congo_reversed']","['m', 'm', 'f', 'm', 'f', 'm']","['p256', 'p318', 'p268', 'p229', 'p248', 'p307']","[7, 9, 8, 1, 6, 2]","[91.73820004985969, 92.00610777531934, 92.0152836843556, 86.2038576498559, 91.58892582949886, 87.57049330475357]",4.0,False,7.5,3.271085446759225,1.9998621940612793,0.8354556803995006
0,,sub_115,2024-07-30 16:27:37,3,distance,cathedral,numerosity_judgement,2,8,4,countries_reversed,"['_Oman_reversed', '_Cuba_reversed', '_Peru_reversed', '_Sudan_reversed']","['m', 'f', 'f', 'f']","['p307', 'p248', 'p268', 'p245']","[2, 6, 5, 7]","[87.57049330475357, 91.58892582949886, 90.34149293193902, 91.73820004985969]",4.0,True,7.0,2.160246899469287,4.610727548599243,0.8536034502326637
0,,sub_115,2024-07-30 16:27:41,3,distance,cathedral,numerosity_judgement,2,9,3,countries_reversed,"['_Yemen_reversed', '_Oman_reversed', '_Tonga_reversed']","['m', 'm', 'f']","['p256', 'p307', 'p245']","[2, 5, 10]","[87.57049330475357, 90.34149293193902, 93.00003341222717]",2.0,False,7.666666666666667,4.041451884327381,1.9998610019683838,0.5832936102599023
0,,sub_115,2024-07-30 16:27:45,3,distance,cathedral,numerosity_judgement,2,10,2,countries_reversed,"['_Syria_reversed', '_Togo_reversed']","['m', 'm']","['p256', 'p229']","[5, 10]","[90.34149293193902, 93.00003341222717]",2.0,True,9.5,3.5355339059327378,3.1249263286590576,0.8138576779026218
0,,sub_115,2024-07-30 16:27:48,3,distance,cathedral,numerosity_judgement,2,11,5,countries_reversed,"['_Mali_reversed', '_Britain_reversed', '_Congo_reversed', '_Tonga_reversed', '_Oman_reversed']","['m', 'm', 'f', 'm', 'm']","['p307', 'p318', 'p284', 'p229', 'p256']","[10, 5, 1, 8, 7]","[93.00003341222717, 90.34149293193902, 86.2038576498559, 92.0152836843556, 91.73820004985969]",3.0,False,8.2,3.420526275297414,1.8720264434814453,0.6888888888888889
0,,sub_115,2024-07-30 16:27:52,3,distance,cathedral,numerosity_judgement,2,12,3,countries_reversed,"['_Togo_reversed', '_Oman_reversed', '_Tonga_reversed']","['f', 'm', 'f']","['p284', 'p318', 'p248']","[0, 7, 4]","[84.40078082039426, 91.73820004985969, 89.31368318402099]",2.0,False,5.666666666666667,3.5118845842842465,2.062356472015381,0.8808080808080808
0,,sub_115,2024-07-30 16:27:55,3,distance,cathedral,numerosity_judgement,2,13,6,countries_reversed,"['_Britain_reversed', '_Peru_reversed', '_Japan_reversed', '_Cuba_reversed', '_Tonga_reversed', '_Oman_reversed']","['m', 'm', 'f', 'f', 'm', 'm']","['p229', 'p307', 'p248', 'p245', 'p256', 'p318']","[9, 2, 1, 5, 6, 10]","[92.00610777531934, 87.57049330475357, 86.2038576498559, 90.34149293193902, 91.58892582949886, 93.00003341222717]",4.0,False,7.5,3.6193922141707713,2.4369683265686035,0.6957212575190104
0,,sub_115,2024-07-30 16:27:59,3,distance,cathedral,numerosity_judgement,2,14,4,countries_reversed,"['_Britain_reversed', '_Cuba_reversed', '_Yemen_reversed', '_Oman_reversed']","['m', 'f', 'm', 'm']","['p256', 'p268', 'p229', 'p307']","[2, 1, 3, 4]","[87.57049330475357, 86.2038576498559, 89.14911522239515, 89.31368318402099]",2.0,False,4.5,1.2909944487358056,2.8757729530334473,0.7327885597548519
0,,sub_115,2024-07-30 16:28:03,3,distance,cathedral,numerosity_judgement,2,15,3,countries_reversed,"['_Yemen_reversed', '_Syria_reversed', '_Tonga_reversed']","['m', 'f', 'f']","['p318', 'p248', 'p245']","[10, 6, 7]","[93.00003341222717, 91.58892582949886, 91.73820004985969]",3.0,True,9.666666666666666,2.0816659994661326,2.3133647441864014,0.7514357053682896
0,,sub_115,2024-07-30 16:28:06,3,distance,cathedral,numerosity_judgement,2,16,4,countries_reversed,"['_Cuba_reversed', '_Peru_reversed', '_Congo_reversed', '_Oman_reversed']","['f', 'f', 'f', 'm']","['p248', 'p245', 'p268', 'p256']","[9, 3, 6, 10]","[92.00610777531934, 89.14911522239515, 91.58892582949886, 93.00003341222717]",2.0,False,9.0,3.1622776601683795,2.1248509883880615,0.6615594143684032
0,,sub_115,2024-07-30 16:28:09,3,distance,cathedral,numerosity_judgement,2,17,2,countries_reversed,"['_Sudan_reversed', '_Cuba_reversed']","['m', 'f']","['p307', 'p248']","[4, 10]","[89.31368318402099, 93.00003341222717]",2.0,True,9.0,4.242640687119285,1.4248204231262207,0.7078878674384292
0,,sub_115,2024-07-30 16:28:13,3,distance,cathedral,numerosity_judgement,2,18,5,countries_reversed,"['_Britain_reversed', '_Belgium_reversed', '_Yemen_reversed', '_Oman_reversed', '_Cuba_reversed']","['f', 'm', 'm', 'm', 'f']","['p248', 'p318', 'p229', 'p256', 'p268']","[8, 4, 7, 0, 3]","[92.0152836843556, 89.31368318402099, 91.73820004985969, 84.40078082039426, 89.14911522239515]",4.0,False,6.4,3.2093613071762426,2.875938653945923,0.6562705708773124
0,,sub_115,2024-07-30 16:28:17,3,distance,cathedral,numerosity_judgement,2,19,6,countries_reversed,"['_Cuba_reversed', '_Tonga_reversed', '_Syria_reversed', '_Japan_reversed', '_Yemen_reversed', '_Britain_reversed']","['m', 'm', 'f', 'f', 'f', 'f']","['p307', 'p318', 'p284', 'p248', 'p245', 'p268']","[10, 7, 8, 6, 4, 0]","[93.00003341222717, 91.73820004985969, 92.0152836843556, 91.58892582949886, 89.31368318402099, 84.40078082039426]",3.0,False,7.833333333333333,3.488074922742725,2.437330484390259,0.9288049029622064
0,,sub_115,2024-07-30 16:28:21,3,distance,cathedral,numerosity_judgement,2,20,4,countries_reversed,"['_Oman_reversed', '_Yemen_reversed', '_Britain_reversed', '_Mali_reversed']","['m', 'm', 'm', 'm']","['p229', 'p318', 'p307', 'p256']","[5, 7, 9, 6]","[90.34149293193902, 91.73820004985969, 92.00610777531934, 91.58892582949886]",2.0,False,8.75,1.707825127659933,2.2485620975494385,0.6135966405629327
0,,sub_115,2024-07-30 16:28:25,3,distance,cathedral,numerosity_judgement,2,21,6,countries_reversed,"['_Congo_reversed', '_Oman_reversed', '_Syria_reversed', '_Tonga_reversed', '_Yemen_reversed', '_Cuba_reversed']","['f', 'm', 'f', 'f', 'f', 'm']","['p248', 'p307', 'p268', 'p245', 'p284', 'p318']","[2, 6, 5, 0, 8, 4]","[87.57049330475357, 91.58892582949886, 90.34149293193902, 84.40078082039426, 92.0152836843556, 89.31368318402099]",3.0,False,6.166666666666667,2.857738033247041,2.9239490032196045,0.8180456247871978
0,,sub_115,2024-07-30 16:28:28,3,distance,cathedral,numerosity_judgement,2,22,2,countries_reversed,"['_Syria_reversed', '_Peru_reversed']","['m', 'f']","['p256', 'p268']","[1, 9]","[86.2038576498559, 92.00610777531934]",2.0,True,7.0,5.656854249492381,1.7519636154174805,0.8751560549313359
0,,sub_115,2024-07-30 16:28:31,3,distance,cathedral,numerosity_judgement,2,23,3,countries_reversed,"['_Belgium_reversed', '_Syria_reversed', '_Peru_reversed']","['m', 'm', 'm']","['p256', 'p318', 'p307']","[8, 7, 1]","[92.0152836843556, 91.73820004985969, 86.2038576498559]",3.0,True,7.333333333333333,3.7859388972001824,2.3748528957366943,0.7980478946771081
0,,sub_115,2024-07-30 16:28:36,3,distance,cathedral,numerosity_judgement,2,24,5,countries_reversed,"['_Japan_reversed', '_Cuba_reversed', '_Oman_reversed', '_Mali_reversed', '_Congo_reversed']","['m', 'f', 'f', 'm', 'm']","['p256', 'p245', 'p268', 'p318', 'p229']","[6, 7, 4, 8, 9]","[91.58892582949886, 91.73820004985969, 89.31368318402099, 92.0152836843556, 92.00610777531934]",3.0,False,8.8,1.9235384061671346,3.4407060146331787,0.805538531381228
0,,sub_115,2024-07-30 16:28:40,3,distance,cathedral,numerosity_judgement,2,25,2,countries_reversed,"['_Oman_reversed', '_Peru_reversed']","['m', 'f']","['p229', 'p284']","[5, 4]","[90.34149293193902, 89.31368318402099]",2.0,True,6.5,0.7071067811865476,3.0608601570129395,0.7735217341958915
0,,sub_115,2024-07-30 16:28:43,3,distance,cathedral,numerosity_judgement,2,26,5,countries_reversed,"['_Mali_reversed', '_Tonga_reversed', '_Britain_reversed', '_Yemen_reversed', '_Oman_reversed']","['m', 'f', 'f', 'm', 'f']","['p256', 'p284', 'p245', 'p229', 'p268']","[0, 1, 4, 10, 8]","[84.40078082039426, 86.2038576498559, 89.31368318402099, 93.00003341222717, 92.0152836843556]",5.0,True,6.6,4.33589667773576,1.563218116760254,0.904902962206333
0,,sub_115,2024-07-30 16:28:47,3,distance,cathedral,numerosity_judgement,2,27,3,countries_reversed,"['_Cuba_reversed', '_Oman_reversed', '_Yemen_reversed']","['f', 'f', 'm']","['p268', 'p248', 'p307']","[10, 1, 8]","[93.00003341222717, 86.2038576498559, 92.0152836843556]",2.0,False,8.333333333333334,4.725815626252608,2.249842882156372,0.6884122120077176
0,,sub_115,2024-07-30 16:28:50,3,distance,cathedral,numerosity_judgement,2,28,6,countries_reversed,"['_Syria_reversed', '_Yemen_reversed', '_Oman_reversed', '_Peru_reversed', '_Sudan_reversed', '_Cuba_reversed']","['m', 'f', 'm', 'f', 'f', 'm']","['p256', 'p248', 'p307', 'p268', 'p284', 'p318']","[2, 3, 5, 6, 0, 10]","[87.57049330475357, 89.14911522239515, 90.34149293193902, 91.58892582949886, 84.40078082039426, 93.00003341222717]",3.0,False,6.333333333333333,3.5023801430836525,1.8156261444091797,0.6612870275791624
0,,sub_115,2024-07-30 16:28:53,3,distance,cathedral,numerosity_judgement,2,29,4,countries_reversed,"['_Britain_reversed', '_Japan_reversed', '_Tonga_reversed', '_Mali_reversed']","['m', 'f', 'f', 'm']","['p229', 'p284', 'p248', 'p256']","[8, 10, 0, 1]","[92.0152836843556, 93.00003341222717, 84.40078082039426, 86.2038576498559]",2.0,False,6.75,4.9916597106239795,1.9358668327331543,0.9286460106684826
0,,sub_115,2024-07-30 16:28:56,3,distance,cathedral,numerosity_judgement,2,30,5,countries_reversed,"['_Togo_reversed', '_Tonga_reversed', '_Syria_reversed', '_Yemen_reversed', '_Peru_reversed']","['m', 'f', 'm', 'm', 'f']","['p307', 'p245', 'p256', 'p318', 'p284']","[5, 3, 8, 2, 7]","[90.34149293193902, 89.14911522239515, 92.0152836843556, 87.57049330475357, 91.73820004985969]",5.0,True,7.0,2.5495097567963922,1.5623912811279297,0.675485188968335
0,,sub_115,2024-07-30 16:28:59,3,distance,cathedral,numerosity_judgement,2,31,3,countries_reversed,"['_Japan_reversed', '_Cuba_reversed', '_Peru_reversed']","['f', 'm', 'm']","['p284', 'p229', 'p256']","[3, 0, 1]","[89.14911522239515, 84.40078082039426, 86.2038576498559]",2.0,False,3.3333333333333335,1.5275252316519468,1.251957654953003,0.9695494268527975
0,,sub_115,2024-07-30 16:29:01,3,distance,cathedral,numerosity_judgement,2,32,4,countries_reversed,"['_Togo_reversed', '_Yemen_reversed', '_Britain_reversed', '_Belgium_reversed']","['m', 'f', 'f', 'm']","['p318', 'p284', 'p248', 'p229']","[1, 8, 2, 0]","[86.2038576498559, 92.0152836843556, 87.57049330475357, 84.40078082039426]",3.0,False,4.75,3.593976442141304,1.4998958110809326,0.8936897060492566
0,,sub_115,2024-07-30 16:29:04,3,distance,cathedral,numerosity_judgement,2,33,2,countries_reversed,"['_Japan_reversed', '_Britain_reversed']","['m', 'f']","['p256', 'p284']","[7, 5]","[91.73820004985969, 90.34149293193902]",2.0,True,8.0,1.4142135623730951,1.3128077983856201,0.7959368970604925
0,,sub_115,2024-07-30 16:29:07,3,distance,cathedral,numerosity_judgement,2,34,6,countries_reversed,"['_Peru_reversed', '_Cuba_reversed', '_Congo_reversed', '_Oman_reversed', '_Belgium_reversed', '_Britain_reversed']","['m', 'f', 'f', 'f', 'm', 'm']","['p318', 'p245', 'p268', 'p284', 'p256', 'p307']","[5, 3, 2, 8, 1, 7]","[90.34149293193902, 89.14911522239515, 87.57049330475357, 92.0152836843556, 86.2038576498559, 91.73820004985969]",3.0,False,6.333333333333333,2.804757862395017,1.8123950958251953,0.7764952899784361
0,,sub_115,2024-07-30 16:29:10,3,distance,cathedral,numerosity_judgement,2,35,4,countries_reversed,"['_Mali_reversed', '_Togo_reversed', '_Peru_reversed', '_Oman_reversed']","['m', 'f', 'm', 'm']","['p318', 'p284', 'p307', 'p256']","[0, 2, 7, 4]","[84.40078082039426, 87.57049330475357, 91.73820004985969, 89.31368318402099]",2.0,False,5.25,2.9860788111948193,1.8618175983428955,0.834956304619226
0,,sub_115,2024-07-30 16:29:13,3,distance,cathedral,numerosity_judgement,2,36,2,countries_reversed,"['_Peru_reversed', '_Oman_reversed']","['m', 'm']","['p307', 'p256']","[5, 7]","[90.34149293193902, 91.73820004985969]",2.0,True,8.0,1.4142135623730951,1.747159481048584,0.6408012711383498
0,,sub_115,2024-07-30 16:29:16,3,distance,cathedral,numerosity_judgement,2,37,6,countries_reversed,"['_Syria_reversed', '_Yemen_reversed', '_Belgium_reversed', '_Togo_reversed', '_Cuba_reversed', '_Mali_reversed']","['f', 'f', 'm', 'f', 'm', 'm']","['p284', 'p245', 'p318', 'p268', 'p307', 'p229']","[6, 10, 2, 0, 5, 1]","[91.58892582949886, 93.00003341222717, 87.57049330475357, 84.40078082039426, 90.34149293193902, 86.2038576498559]",4.0,False,6.0,3.7416573867739413,1.8748681545257568,0.8482692089433662
0,,sub_115,2024-07-30 16:29:19,3,distance,cathedral,numerosity_judgement,2,38,5,countries_reversed,"['_Cuba_reversed', '_Mali_reversed', '_Japan_reversed', '_Britain_reversed', '_Syria_reversed']","['f', 'f', 'f', 'f', 'm']","['p268', 'p245', 'p284', 'p248', 'p307']","[0, 1, 6, 5, 3]","[84.40078082039426, 86.2038576498559, 91.58892582949886, 90.34149293193902, 89.14911522239515]",6.0,False,5.0,2.5495097567963922,1.5625417232513428,0.9309499489274772
0,,sub_115,2024-07-30 16:29:24,3,distance,cathedral,numerosity_judgement,2,39,3,countries_reversed,"['_Yemen_reversed', '_Oman_reversed', '_Peru_reversed']","['m', 'm', 'f']","['p256', 'p229', 'p245']","[4, 5, 9]","[89.31368318402099, 90.34149293193902, 92.00610777531934]",2.0,False,8.0,2.6457513110645907,3.626389741897583,0.6666666666666666
0,,sub_115,2024-07-30 16:29:29,3,distance,cathedral,numerosity_judgement,2,40,5,countries_reversed,"['_Congo_reversed', '_Belgium_reversed', '_Oman_reversed', '_Mali_reversed', '_Sudan_reversed']","['m', 'f', 'm', 'm', 'f']","['p307', 'p248', 'p256', 'p318', 'p245']","[0, 10, 6, 8, 9]","[84.40078082039426, 93.00003341222717, 91.58892582949886, 92.0152836843556, 92.00610777531934]",5.0,True,8.6,3.9749213828703582,4.124439477920532,0.87732379979571
0,,sub_115,2024-07-30 16:29:34,3,distance,cathedral,numerosity_judgement,2,41,6,countries_reversed,"['_Belgium_reversed', '_Britain_reversed', '_Oman_reversed', '_Togo_reversed', '_Congo_reversed', '_Sudan_reversed']","['m', 'f', 'f', 'm', 'm', 'f']","['p318', 'p245', 'p284', 'p307', 'p229', 'p268']","[5, 6, 7, 10, 0, 3]","[90.34149293193902, 91.58892582949886, 91.73820004985969, 93.00003341222717, 84.40078082039426, 89.14911522239515]",3.0,False,7.166666666666667,3.4302575219167823,3.813041925430298,0.9480989672000908
0,,sub_115,2024-07-30 16:29:37,3,distance,cathedral,numerosity_judgement,2,42,3,countries_reversed,"['_Peru_reversed', '_Belgium_reversed', '_Oman_reversed']","['m', 'm', 'f']","['p229', 'p318', 'p268']","[3, 4, 0]","[89.14911522239515, 89.31368318402099, 84.40078082039426]",2.0,False,4.333333333333333,2.0816659994661326,1.4373993873596191,0.9108273748723188
0,,sub_115,2024-07-30 16:29:40,3,distance,cathedral,numerosity_judgement,2,43,4,countries_reversed,"['_Japan_reversed', '_Sudan_reversed', '_Togo_reversed', '_Belgium_reversed']","['f', 'm', 'm', 'f']","['p284', 'p307', 'p318', 'p268']","[4, 0, 2, 5]","[89.31368318402099, 84.40078082039426, 87.57049330475357, 90.34149293193902]",3.0,False,4.75,2.217355782608345,1.5641746520996094,0.9035410282601294
0,,sub_115,2024-07-30 16:29:43,3,distance,cathedral,numerosity_judgement,2,44,2,countries_reversed,"['_Japan_reversed', '_Mali_reversed']","['m', 'm']","['p318', 'p307']","[4, 5]","[89.31368318402099, 90.34149293193902]",4.0,False,6.5,0.7071067811865476,1.5602657794952393,0.8625127681307456
0,,sub_115,2024-07-30 16:29:46,3,distance,cathedral,numerosity_judgement,2,45,5,countries_reversed,"['_Mali_reversed', '_Peru_reversed', '_Cuba_reversed', '_Britain_reversed', '_Japan_reversed']","['f', 'm', 'f', 'm', 'f']","['p284', 'p318', 'p248', 'p256', 'p268']","[10, 6, 1, 0, 7]","[93.00003341222717, 91.58892582949886, 86.2038576498559, 84.40078082039426, 91.73820004985969]",6.0,False,6.8,4.207136793592526,2.124851703643799,0.919305413687436
0,,sub_115,2024-07-30 16:29:49,3,distance,cathedral,numerosity_judgement,2,46,2,countries_reversed,"['_Belgium_reversed', '_Togo_reversed']","['f', 'f']","['p284', 'p268']","[9, 0]","[92.00610777531934, 84.40078082039426]",2.0,True,6.5,6.363961030678928,1.43711519241333,0.9713653387810692
0,,sub_115,2024-07-30 16:29:52,3,distance,cathedral,numerosity_judgement,2,47,4,countries_reversed,"['_Tonga_reversed', '_Congo_reversed', '_Togo_reversed', '_Cuba_reversed']","['m', 'f', 'f', 'f']","['p307', 'p248', 'p245', 'p268']","[6, 10, 9, 1]","[91.58892582949886, 93.00003341222717, 92.00610777531934, 86.2038576498559]",3.0,False,8.5,4.041451884327381,1.9373645782470703,0.7082397003745319
0,,sub_115,2024-07-30 16:29:55,3,distance,cathedral,numerosity_judgement,2,48,6,countries_reversed,"['_Belgium_reversed', '_Peru_reversed', '_Yemen_reversed', '_Cuba_reversed', '_Congo_reversed', '_Mali_reversed']","['m', 'f', 'f', 'm', 'm', 'f']","['p307', 'p248', 'p268', 'p318', 'p256', 'p245']","[8, 6, 2, 3, 10, 5]","[92.0152836843556, 91.58892582949886, 87.57049330475357, 89.14911522239515, 93.00003341222717, 90.34149293193902]",5.0,False,7.666666666666667,3.011090610836324,1.876999855041504,0.7253206219498355
0,,sub_115,2024-07-30 16:29:59,3,distance,cathedral,numerosity_judgement,2,49,3,countries_reversed,"['_Tonga_reversed', '_Yemen_reversed', '_Japan_reversed']","['f', 'm', 'm']","['p245', 'p307', 'p256']","[7, 8, 5]","[91.73820004985969, 92.0152836843556, 90.34149293193902]",3.0,True,8.666666666666666,1.5275252316519468,2.6867835521698,0.6445919872886166
0,,sub_115,2024-07-30 16:30:03,3,distance,cathedral,numerosity_judgement,2,50,4,countries_reversed,"['_Cuba_reversed', '_Togo_reversed', '_Yemen_reversed', '_Oman_reversed']","['m', 'm', 'm', 'm']","['p307', 'p229', 'p318', 'p256']","[8, 5, 4, 2]","[92.0152836843556, 90.34149293193902, 89.31368318402099, 87.57049330475357]",2.0,False,6.75,2.5,2.2514383792877197,0.8126659856996936
0,,sub_115,2024-07-30 16:30:06,3,distance,cathedral,numerosity_judgement,2,51,6,countries_reversed,"['_Congo_reversed', '_Sudan_reversed', '_Oman_reversed', '_Cuba_reversed', '_Britain_reversed', '_Tonga_reversed']","['m', 'f', 'f', 'm', 'f', 'm']","['p307', 'p248', 'p284', 'p256', 'p268', 'p229']","[4, 0, 7, 9, 5, 2]","[89.31368318402099, 84.40078082039426, 91.73820004985969, 92.00610777531934, 90.34149293193902, 87.57049330475357]",5.0,False,6.5,3.271085446759225,2.4998245239257812,0.9216660991941892
0,,sub_115,2024-07-30 16:30:10,3,distance,cathedral,numerosity_judgement,2,52,3,countries_reversed,"['_Mali_reversed', '_Peru_reversed', '_Britain_reversed']","['m', 'f', 'm']","['p307', 'p245', 'p229']","[5, 6, 2]","[90.34149293193902, 91.58892582949886, 87.57049330475357]",2.0,False,6.333333333333333,2.0816659994661326,2.1234772205352783,0.7761434570423335
0,,sub_115,2024-07-30 16:30:13,3,distance,cathedral,numerosity_judgement,2,53,2,countries_reversed,"['_Oman_reversed', '_Syria_reversed']","['m', 'f']","['p307', 'p248']","[5, 7]","[90.34149293193902, 91.73820004985969]",2.0,True,8.0,1.4142135623730951,1.8750622272491455,0.6886165020996482
0,,sub_115,2024-07-30 16:30:19,3,distance,cathedral,numerosity_judgement,2,54,5,countries_reversed,"['_Tonga_reversed', '_Congo_reversed', '_Syria_reversed', '_Oman_reversed', '_Britain_reversed']","['f', 'm', 'f', 'f', 'm']","['p245', 'p256', 'p284', 'p248', 'p307']","[4, 8, 6, 2, 3]","[89.31368318402099, 92.0152836843556, 91.58892582949886, 87.57049330475357, 89.14911522239515]",4.0,False,6.6,2.4083189157584592,4.312335729598999,0.7114061967994553
0,,sub_115,2024-07-30 16:30:22,3,distance,cathedral,numerosity_judgement,2,55,4,countries_reversed,"['_Togo_reversed', '_Britain_reversed', '_Yemen_reversed', '_Peru_reversed']","['m', 'm', 'f', 'f']","['p256', 'p307', 'p245', 'p248']","[0, 4, 6, 2]","[84.40078082039426, 89.31368318402099, 91.58892582949886, 87.57049330475357]",2.0,False,5.0,2.581988897471611,2.5623199939727783,0.7886505504483032
0,,sub_115,2024-07-30 16:30:26,3,distance,cathedral,numerosity_judgement,2,56,3,countries_reversed,"['_Cuba_reversed', '_Belgium_reversed', '_Yemen_reversed']","['m', 'f', 'm']","['p318', 'p245', 'p307']","[7, 8, 9]","[91.73820004985969, 92.0152836843556, 92.00610777531934]",3.0,True,10.0,1.0,2.374814510345459,0.8207581432300534
0,,sub_115,2024-07-30 16:30:29,3,distance,cathedral,numerosity_judgement,2,57,2,countries_reversed,"['_Tonga_reversed', '_Oman_reversed']","['f', 'm']","['p248', 'p307']","[10, 7]","[93.00003341222717, 91.73820004985969]",2.0,True,10.5,2.1213203435596424,2.1245932579040527,0.6091249574395642
0,,sub_115,2024-07-30 16:30:32,3,distance,cathedral,numerosity_judgement,2,58,6,countries_reversed,"['_Oman_reversed', '_Mali_reversed', '_Cuba_reversed', '_Congo_reversed', '_Sudan_reversed', '_Japan_reversed']","['m', 'f', 'm', 'f', 'm', 'f']","['p256', 'p248', 'p229', 'p245', 'p307', 'p268']","[8, 10, 6, 3, 0, 4]","[92.0152836843556, 93.00003341222717, 91.58892582949886, 89.14911522239515, 84.40078082039426, 89.31368318402099]",6.0,True,7.166666666666667,3.600925806881706,1.6873822212219238,0.8840767222789695
0,,sub_115,2024-07-30 16:30:36,3,distance,cathedral,numerosity_judgement,2,59,5,countries_reversed,"['_Congo_reversed', '_Peru_reversed', '_Cuba_reversed', '_Tonga_reversed', '_Yemen_reversed']","['m', 'f', 'f', 'f', 'm']","['p256', 'p268', 'p245', 'p284', 'p229']","[5, 10, 3, 6, 9]","[90.34149293193902, 93.00003341222717, 89.14911522239515, 91.58892582949886, 92.00610777531934]",4.0,False,8.6,2.8809720581775866,2.187347888946533,0.7620360912495744
0,,sub_115,2024-07-30 16:30:39,3,distance,cathedral,numerosity_judgement,2,60,4,countries_reversed,"['_Mali_reversed', '_Japan_reversed', '_Sudan_reversed', '_Peru_reversed']","['m', 'm', 'f', 'f']","['p256', 'p229', 'p268', 'p284']","[1, 6, 10, 0]","[86.2038576498559, 91.58892582949886, 93.00003341222717, 84.40078082039426]",2.0,False,6.25,4.645786621588784,1.9396083354949951,0.9528770854613552
0,,sub_115,2024-07-30 16:30:44,3,distance,cathedral,numerosity_judgement,2,61,6,countries_reversed,"['_Yemen_reversed', '_Congo_reversed', '_Tonga_reversed', '_Togo_reversed', '_Britain_reversed', '_Syria_reversed']","['m', 'm', 'f', 'f', 'f', 'm']","['p307', 'p256', 'p245', 'p268', 'p284', 'p318']","[5, 8, 6, 4, 10, 1]","[90.34149293193902, 92.0152836843556, 91.58892582949886, 89.31368318402099, 93.00003341222717, 86.2038576498559]",5.0,False,7.666666666666667,3.141125063837266,3.1244428157806396,0.7191578708432641
0,,sub_115,2024-07-30 16:30:47,3,distance,cathedral,numerosity_judgement,2,62,5,countries_reversed,"['_Mali_reversed', '_Congo_reversed', '_Yemen_reversed', '_Tonga_reversed', '_Togo_reversed']","['m', 'm', 'f', 'f', 'f']","['p318', 'p229', 'p245', 'p248', 'p268']","[0, 8, 6, 7, 1]","[84.40078082039426, 92.0152836843556, 91.58892582949886, 91.73820004985969, 86.2038576498559]",3.0,False,6.4,3.6469165057620936,2.249842882156372,0.8389740097605266
0,,sub_115,2024-07-30 16:30:50,3,distance,cathedral,numerosity_judgement,2,63,2,countries_reversed,"['_Togo_reversed', '_Mali_reversed']","['f', 'm']","['p268', 'p318']","[5, 3]","[90.34149293193902, 89.14911522239515]",2.0,True,6.0,1.4142135623730951,1.3770432472229004,0.927999092044036
0,,sub_115,2024-07-30 16:30:53,3,distance,cathedral,numerosity_judgement,2,64,3,countries_reversed,"['_Yemen_reversed', '_Cuba_reversed', '_Belgium_reversed']","['m', 'f', 'f']","['p318', 'p248', 'p245']","[5, 8, 4]","[90.34149293193902, 92.0152836843556, 89.31368318402099]",3.0,True,7.666666666666667,2.0816659994661326,1.6885535717010498,0.7106117353308364
0,,sub_115,2024-07-30 16:30:56,3,distance,cathedral,numerosity_judgement,2,65,5,countries_reversed,"['_Tonga_reversed', '_Oman_reversed', '_Britain_reversed', '_Congo_reversed', '_Yemen_reversed']","['m', 'f', 'f', 'f', 'm']","['p256', 'p245', 'p268', 'p284', 'p229']","[5, 10, 9, 1, 3]","[90.34149293193902, 93.00003341222717, 92.00610777531934, 86.2038576498559, 89.14911522239515]",4.0,False,7.6,3.847076812334269,1.687382698059082,0.7410509590284872
0,,sub_115,2024-07-30 16:30:58,3,distance,cathedral,numerosity_judgement,2,66,4,countries_reversed,"['_Peru_reversed', '_Yemen_reversed', '_Britain_reversed', '_Congo_reversed']","['m', 'm', 'f', 'm']","['p307', 'p229', 'p245', 'p256']","[3, 6, 8, 2]","[89.14911522239515, 91.58892582949886, 92.0152836843556, 87.57049330475357]",2.0,False,6.75,2.753785273643051,1.498661994934082,0.6608330495970945
0,,sub_115,2024-07-30 16:31:02,3,distance,cathedral,numerosity_judgement,2,67,6,countries_reversed,"['_Belgium_reversed', '_Mali_reversed', '_Sudan_reversed', '_Britain_reversed', '_Togo_reversed', '_Cuba_reversed']","['f', 'f', 'm', 'm', 'm', 'f']","['p284', 'p268', 'p256', 'p307', 'p229', 'p245']","[1, 6, 10, 4, 7, 8]","[86.2038576498559, 91.58892582949886, 93.00003341222717, 89.31368318402099, 91.73820004985969, 92.0152836843556]",3.0,False,8.0,3.1622776601683795,2.312312602996826,0.7914879128362274
0,,sub_115,2024-07-30 16:31:05,3,distance,cathedral,numerosity_judgement,2,68,2,countries_reversed,"['_Peru_reversed', '_Yemen_reversed']","['m', 'f']","['p256', 'p284']","[5, 10]","[90.34149293193902, 93.00003341222717]",2.0,True,9.5,3.5355339059327378,1.3765478134155273,0.7355237770968108
0,,sub_115,2024-07-30 16:31:08,3,distance,cathedral,numerosity_judgement,2,69,3,countries_reversed,"['_Tonga_reversed', '_Britain_reversed', '_Oman_reversed']","['f', 'm', 'f']","['p245', 'p318', 'p248']","[1, 8, 6]","[86.2038576498559, 92.0152836843556, 91.58892582949886]",2.0,False,7.0,3.605551275463989,1.5623910427093506,0.8445919872886165
0,,sub_115,2024-07-30 16:31:11,3,distance,cathedral,numerosity_judgement,2,70,5,countries_reversed,"['_Syria_reversed', '_Japan_reversed', '_Togo_reversed', '_Britain_reversed', '_Cuba_reversed']","['f', 'm', 'm', 'f', 'm']","['p284', 'p229', 'p256', 'p248', 'p318']","[7, 5, 9, 8, 0]","[91.73820004985969, 90.34149293193902, 92.00610777531934, 92.0152836843556, 84.40078082039426]",3.0,False,7.8,3.5637059362410923,2.124851703643799,0.9526387470207694
0,,sub_115,2024-07-30 16:31:15,3,distance,cathedral,numerosity_judgement,2,71,6,countries_reversed,"['_Tonga_reversed', '_Japan_reversed', '_Cuba_reversed', '_Britain_reversed', '_Yemen_reversed', '_Mali_reversed']","['m', 'f', 'f', 'm', 'm', 'f']","['p318', 'p248', 'p245', 'p256', 'p307', 'p284']","[6, 2, 7, 0, 8, 4]","[91.58892582949886, 87.57049330475357, 91.73820004985969, 84.40078082039426, 92.0152836843556, 89.31368318402099]",4.0,False,6.5,3.082207001484488,2.7981204986572266,0.7547837929860401
0,,sub_115,2024-07-30 16:31:19,3,distance,cathedral,numerosity_judgement,2,72,3,countries_reversed,"['_Oman_reversed', '_Sudan_reversed', '_Mali_reversed']","['m', 'm', 'f']","['p307', 'p256', 'p248']","[4, 10, 8]","[89.31368318402099, 93.00003341222717, 92.0152836843556]",3.0,True,9.333333333333334,3.055050463303893,2.6245760917663574,0.6254454658949041
0,,sub_115,2024-07-30 16:31:24,3,distance,cathedral,numerosity_judgement,2,73,4,countries_reversed,"['_Syria_reversed', '_Peru_reversed', '_Yemen_reversed', '_Oman_reversed']","['f', 'f', 'm', 'f']","['p245', 'p248', 'p229', 'p268']","[5, 10, 9, 3]","[90.34149293193902, 93.00003341222717, 92.00610777531934, 89.14911522239515]",4.0,True,8.75,3.304037933599835,3.6880297660827637,0.7520258767449779
0,,sub_115,2024-07-30 16:31:27,3,distance,cathedral,numerosity_judgement,2,74,2,countries_reversed,"['_Mali_reversed', '_Britain_reversed']","['f', 'f']","['p245', 'p284']","[4, 0]","[89.31368318402099, 84.40078082039426]",2.0,True,4.0,2.8284271247461903,1.9373655319213867,0.9163091590057882
0,,sub_115,2024-07-30 16:32:37,3,distance,cathedral,numerosity_judgement,3,0,4,countries_forward,"['_Sudan_', '_Japan_', '_Belgium_', '_Britain_']","['f', 'f', 'm', 'f']","['p284', 'p248', 'p307', 'p268']","[4, 7, 8, 0]","[89.31368318402099, 91.73820004985969, 92.0152836843556, 84.40078082039426]",3.0,False,6.75,3.593976442141304,3.2497737407684326,0.8924866643967767
0,,sub_115,2024-07-30 16:32:41,3,distance,cathedral,numerosity_judgement,3,1,6,countries_forward,"['_Togo_', '_Tonga_', '_Britain_', '_Cuba_', '_Belgium_', '_Mali_']","['m', 'f', 'f', 'f', 'm', 'm']","['p318', 'p245', 'p284', 'p268', 'p307', 'p256']","[6, 2, 0, 3, 9, 5]","[91.58892582949886, 87.57049330475357, 84.40078082039426, 89.14911522239515, 92.00610777531934, 90.34149293193902]",5.0,False,6.166666666666667,3.1885210782848317,1.6874091625213623,0.8236976506639428
0,,sub_115,2024-07-30 16:32:45,3,distance,cathedral,numerosity_judgement,3,2,3,countries_forward,"['_Tonga_', '_Yemen_', '_Congo_']","['f', 'm', 'f']","['p284', 'p229', 'p268']","[2, 7, 5]","[87.57049330475357, 91.73820004985969, 90.34149293193902]",2.0,False,6.666666666666667,2.516611478423583,2.688369035720825,0.7639087504256044
0,,sub_115,2024-07-30 16:32:49,3,distance,cathedral,numerosity_judgement,3,3,2,countries_forward,"['_Syria_', '_Oman_']","['m', 'm']","['p229', 'p256']","[9, 5]","[92.00610777531934, 90.34149293193902]",2.0,True,9.0,2.8284271247461903,1.8717403411865234,0.8436499829758257
0,,sub_115,2024-07-30 16:32:53,3,distance,cathedral,numerosity_judgement,3,4,5,countries_forward,"['_Mali_', '_Belgium_', '_Cuba_', '_Congo_', '_Togo_']","['f', 'f', 'f', 'f', 'm']","['p248', 'p268', 'p284', 'p245', 'p229']","[3, 9, 10, 8, 7]","[89.14911522239515, 92.00610777531934, 93.00003341222717, 92.0152836843556, 91.73820004985969]",6.0,False,9.4,2.701851217221259,2.06235671043396,0.8692997389626603
0,,sub_115,2024-07-30 16:32:56,3,distance,cathedral,numerosity_judgement,3,5,4,countries_forward,"['_Yemen_', '_Peru_', '_Tonga_', '_Cuba_']","['f', 'm', 'm', 'f']","['p245', 'p307', 'p256', 'p268']","[3, 4, 5, 10]","[89.14911522239515, 89.31368318402099, 90.34149293193902, 93.00003341222717]",5.0,False,7.5,3.1091263510296048,1.4998960494995117,0.7522869140846669
0,,sub_115,2024-07-30 16:33:02,3,distance,cathedral,numerosity_judgement,3,6,5,countries_forward,"['_Cuba_', '_Yemen_', '_Sudan_', '_Belgium_', '_Congo_']","['f', 'f', 'm', 'f', 'm']","['p245', 'p284', 'p256', 'p248', 'p318']","[8, 6, 1, 0, 9]","[92.0152836843556, 91.58892582949886, 86.2038576498559, 84.40078082039426, 92.00610777531934]",2.0,False,6.8,4.08656334834051,3.8748931884765625,0.8813755532856656
0,,sub_115,2024-07-30 16:33:06,3,distance,cathedral,numerosity_judgement,3,7,6,countries_forward,"['_Britain_', '_Oman_', '_Tonga_', '_Japan_', '_Syria_', '_Togo_']","['f', 'm', 'm', 'f', 'm', 'f']","['p284', 'p307', 'p256', 'p268', 'p318', 'p248']","[9, 2, 0, 3, 8, 7]","[92.00610777531934, 87.57049330475357, 84.40078082039426, 89.14911522239515, 92.0152836843556, 91.73820004985969]",4.0,False,6.833333333333333,3.65604522218567,1.9266722202301025,0.9353535353535354
0,,sub_115,2024-07-30 16:33:08,3,distance,cathedral,numerosity_judgement,3,8,2,countries_forward,"['_Tonga_', '_Sudan_']","['f', 'm']","['p284', 'p256']","[4, 0]","[89.31368318402099, 84.40078082039426]",2.0,True,4.0,2.8284271247461903,1.2503681182861328,0.9017024174327544
0,,sub_115,2024-07-30 16:33:12,3,distance,cathedral,numerosity_judgement,3,9,3,countries_forward,"['_Cuba_', '_Congo_', '_Syria_']","['m', 'f', 'm']","['p307', 'p284', 'p318']","[6, 7, 10]","[91.58892582949886, 91.73820004985969, 93.00003341222717]",3.0,True,9.666666666666666,2.0816659994661326,1.999861240386963,0.9146634888207922
0,,sub_115,2024-07-30 16:33:17,3,distance,cathedral,numerosity_judgement,3,10,6,countries_forward,"['_Peru_', '_Togo_', '_Sudan_', '_Tonga_', '_Mali_', '_Oman_']","['m', 'f', 'm', 'f', 'f', 'm']","['p318', 'p284', 'p256', 'p268', 'p248', 'p229']","[7, 8, 3, 6, 2, 4]","[91.73820004985969, 92.0152836843556, 89.14911522239515, 91.58892582949886, 87.57049330475357, 89.31368318402099]",5.0,False,7.0,2.3664319132398464,3.1908774375915527,0.8914311655884689
0,,sub_115,2024-07-30 16:33:20,3,distance,cathedral,numerosity_judgement,3,11,2,countries_forward,"['_Japan_', '_Sudan_']","['f', 'f']","['p284', 'p268']","[6, 2]","[91.58892582949886, 87.57049330475357]",2.0,True,6.0,2.8284271247461903,1.1872680187225342,0.9461014640789922
0,,sub_115,2024-07-30 16:33:23,3,distance,cathedral,numerosity_judgement,3,12,4,countries_forward,"['_Britain_', '_Cuba_', '_Togo_', '_Yemen_']","['f', 'f', 'm', 'f']","['p268', 'p248', 'p256', 'p245']","[5, 8, 1, 7]","[90.34149293193902, 92.0152836843556, 86.2038576498559, 91.73820004985969]",4.0,True,7.25,3.095695936834452,1.3749055862426758,0.803030303030303
0,,sub_115,2024-07-30 16:33:29,3,distance,cathedral,numerosity_judgement,3,13,5,countries_forward,"['_Japan_', '_Peru_', '_Yemen_', '_Oman_', '_Britain_']","['f', 'f', 'f', 'm', 'f']","['p268', 'p284', 'p248', 'p318', 'p245']","[5, 6, 3, 0, 2]","[90.34149293193902, 91.58892582949886, 89.14911522239515, 84.40078082039426, 87.57049330475357]",3.0,False,5.2,2.3874672772626644,4.625348806381226,0.8060038588128475
0,,sub_115,2024-07-30 16:33:32,3,distance,cathedral,numerosity_judgement,3,14,3,countries_forward,"['_Oman_', '_Cuba_', '_Britain_']","['f', 'm', 'm']","['p245', 'p307', 'p229']","[4, 7, 5]","[89.31368318402099, 91.73820004985969, 90.34149293193902]",2.0,False,7.333333333333333,1.5275252316519465,1.3749043941497803,0.6665645216207013
0,,sub_115,2024-07-30 16:33:37,3,distance,cathedral,numerosity_judgement,3,15,2,countries_forward,"['_Congo_', '_Oman_']","['m', 'f']","['p256', 'p245']","[5, 10]","[90.34149293193902, 93.00003341222717]",2.0,True,9.5,3.5355339059327378,2.927863836288452,0.6212234706616729
0,,sub_115,2024-07-30 16:33:40,3,distance,cathedral,numerosity_judgement,3,16,3,countries_forward,"['_Cuba_', '_Tonga_', '_Yemen_']","['f', 'f', 'm']","['p268', 'p245', 'p256']","[10, 6, 5]","[93.00003341222717, 91.58892582949886, 90.34149293193902]",2.0,False,9.0,2.6457513110645907,2.052377223968506,0.7057655203722619
0,,sub_115,2024-07-30 16:33:45,3,distance,cathedral,numerosity_judgement,3,17,4,countries_forward,"['_Oman_', '_Cuba_', '_Tonga_', '_Britain_']","['m', 'm', 'm', 'f']","['p318', 'p307', 'p256', 'p268']","[10, 7, 6, 9]","[93.00003341222717, 91.73820004985969, 91.58892582949886, 92.00610777531934]",2.0,False,10.0,1.8257418583505538,2.9359447956085205,0.7085801838610828
0,,sub_115,2024-07-30 16:33:50,3,distance,cathedral,numerosity_judgement,3,18,6,countries_forward,"['_Belgium_', '_Oman_', '_Togo_', '_Yemen_', '_Japan_', '_Peru_']","['m', 'f', 'm', 'f', 'f', 'f']","['p229', 'p248', 'p256', 'p284', 'p245', 'p268']","[1, 5, 10, 9, 0, 3]","[86.2038576498559, 90.34149293193902, 93.00003341222717, 92.00610777531934, 84.40078082039426, 89.14911522239515]",4.0,False,6.666666666666667,4.131182235954578,2.687140464782715,0.8121098626716604
0,,sub_115,2024-07-30 16:33:55,3,distance,cathedral,numerosity_judgement,3,19,5,countries_forward,"['_Oman_', '_Belgium_', '_Cuba_', '_Peru_', '_Tonga_']","['m', 'f', 'm', 'f', 'f']","['p229', 'p268', 'p256', 'p248', 'p284']","[0, 1, 10, 7, 2]","[84.40078082039426, 86.2038576498559, 93.00003341222717, 91.73820004985969, 87.57049330475357]",3.0,False,6.0,4.301162633521313,3.1893422603607178,0.8262172284644195
0,,sub_115,2024-07-30 16:33:57,3,distance,cathedral,numerosity_judgement,3,20,2,countries_forward,"['_Oman_', '_Yemen_']","['m', 'm']","['p229', 'p256']","[3, 6]","[89.14911522239515, 91.58892582949886]",2.0,True,6.5,2.1213203435596424,1.124948263168335,0.5410623084780388
0,,sub_115,2024-07-30 16:34:04,3,distance,cathedral,numerosity_judgement,3,21,4,countries_forward,"['_Tonga_', '_Sudan_', '_Mali_', '_Syria_']","['f', 'm', 'm', 'f']","['p268', 'p318', 'p229', 'p284']","[0, 10, 4, 3]","[84.40078082039426, 93.00003341222717, 89.31368318402099, 89.14911522239515]",3.0,False,6.25,4.193248541803041,4.435002088546753,0.959437067302236
0,,sub_115,2024-07-30 16:34:08,3,distance,cathedral,numerosity_judgement,3,22,5,countries_forward,"['_Cuba_', '_Mali_', '_Oman_', '_Japan_', '_Sudan_']","['f', 'm', 'm', 'm', 'm']","['p248', 'p318', 'p256', 'p307', 'p229']","[6, 8, 7, 5, 10]","[91.58892582949886, 92.0152836843556, 91.73820004985969, 90.34149293193902, 93.00003341222717]",2.0,False,9.2,1.9235384061671346,2.312342882156372,0.8941890818295313
0,,sub_115,2024-07-30 16:34:11,3,distance,cathedral,numerosity_judgement,3,23,3,countries_forward,"['_Peru_', '_Britain_', '_Yemen_']","['f', 'm', 'f']","['p268', 'p307', 'p248']","[0, 9, 4]","[84.40078082039426, 92.00610777531934, 89.31368318402099]",2.0,False,6.333333333333333,4.509249752822894,1.4373998641967773,0.7882760186130973
0,,sub_115,2024-07-30 16:34:16,3,distance,cathedral,numerosity_judgement,3,24,6,countries_forward,"['_Oman_', '_Congo_', '_Cuba_', '_Tonga_', '_Yemen_', '_Sudan_']","['m', 'f', 'f', 'f', 'f', 'm']","['p256', 'p268', 'p245', 'p248', 'p284', 'p307']","[10, 5, 7, 6, 0, 9]","[93.00003341222717, 90.34149293193902, 91.73820004985969, 91.58892582949886, 84.40078082039426, 92.00610777531934]",4.0,False,8.166666666666666,3.5449494589721118,2.812248706817627,0.7291680853478606
0,,sub_115,2024-07-30 16:34:20,3,distance,cathedral,numerosity_judgement,3,25,5,countries_forward,"['_Sudan_', '_Belgium_', '_Syria_', '_Britain_', '_Togo_']","['f', 'm', 'f', 'm', 'f']","['p268', 'p318', 'p248', 'p256', 'p245']","[8, 5, 1, 6, 3]","[92.0152836843556, 90.34149293193902, 86.2038576498559, 91.58892582949886, 89.14911522239515]",3.0,False,6.6,2.701851217221259,2.547713279724121,0.9271478833276586
0,,sub_115,2024-07-30 16:34:25,3,distance,cathedral,numerosity_judgement,3,26,6,countries_forward,"['_Oman_', '_Yemen_', '_Congo_', '_Japan_', '_Togo_', '_Tonga_']","['m', 'm', 'f', 'f', 'm', 'm']","['p318', 'p256', 'p284', 'p268', 'p307', 'p229']","[9, 10, 1, 5, 3, 0]","[92.00610777531934, 93.00003341222717, 86.2038576498559, 90.34149293193902, 89.14911522239515, 84.40078082039426]",4.0,False,6.666666666666667,4.131182235954578,2.562265634536743,0.7710135058449665
0,,sub_115,2024-07-30 16:34:28,3,distance,cathedral,numerosity_judgement,3,27,3,countries_forward,"['_Sudan_', '_Britain_', '_Mali_']","['f', 'm', 'm']","['p268', 'p229', 'p318']","[8, 1, 0]","[92.0152836843556, 86.2038576498559, 84.40078082039426]",2.0,False,5.0,4.358898943540674,2.3082799911499023,0.9614686187719896
0,,sub_115,2024-07-30 16:34:32,3,distance,cathedral,numerosity_judgement,3,28,2,countries_forward,"['_Yemen_', '_Cuba_']","['f', 'm']","['p245', 'p307']","[3, 9]","[89.14911522239515, 92.00610777531934]",2.0,True,8.0,4.242640687119285,2.187347888946533,0.6697537169447282
0,,sub_115,2024-07-30 16:34:37,3,distance,cathedral,numerosity_judgement,3,29,4,countries_forward,"['_Yemen_', '_Peru_', '_Cuba_', '_Britain_']","['m', 'm', 'm', 'f']","['p256', 'p229', 'p307', 'p248']","[9, 1, 7, 8]","[92.00610777531934, 86.2038576498559, 91.73820004985969, 92.0152836843556]",2.0,False,8.25,3.593976442141304,2.9335227012634277,0.6815457950289411
0,,sub_115,2024-07-30 16:34:41,3,distance,cathedral,numerosity_judgement,3,30,6,countries_forward,"['_Oman_', '_Togo_', '_Congo_', '_Mali_', '_Britain_', '_Cuba_']","['f', 'f', 'm', 'm', 'f', 'f']","['p248', 'p268', 'p229', 'p256', 'p284', 'p245']","[2, 3, 7, 5, 6, 10]","[87.57049330475357, 89.14911522239515, 91.73820004985969, 90.34149293193902, 91.58892582949886, 93.00003341222717]",5.0,False,7.5,2.8809720581775866,2.6148738861083984,0.8559754851889684
0,,sub_115,2024-07-30 16:34:46,3,distance,cathedral,numerosity_judgement,3,31,4,countries_forward,"['_Cuba_', '_Yemen_', '_Congo_', '_Oman_']","['m', 'f', 'f', 'f']","['p307', 'p268', 'p245', 'p248']","[7, 8, 4, 3]","[91.73820004985969, 92.0152836843556, 89.31368318402099, 89.14911522239515]",2.0,False,7.5,2.3804761428476167,2.6230838298797607,0.629043241402792
0,,sub_115,2024-07-30 16:34:49,3,distance,cathedral,numerosity_judgement,3,32,3,countries_forward,"['_Togo_', '_Tonga_', '_Japan_']","['f', 'm', 'm']","['p248', 'p229', 'p256']","[2, 9, 8]","[87.57049330475357, 92.00610777531934, 92.0152836843556]",2.0,False,8.333333333333334,3.7859388972001824,1.875892162322998,0.8401770514130065
0,,sub_115,2024-07-30 16:34:52,3,distance,cathedral,numerosity_judgement,3,33,2,countries_forward,"['_Britain_', '_Japan_']","['m', 'm']","['p318', 'p256']","[3, 6]","[89.14911522239515, 91.58892582949886]",2.0,True,6.5,2.1213203435596424,1.1249220371246338,0.8095562365225286
0,,sub_115,2024-07-30 16:34:55,3,distance,cathedral,numerosity_judgement,3,34,5,countries_forward,"['_Togo_', '_Oman_', '_Yemen_', '_Cuba_', '_Congo_']","['m', 'f', 'm', 'f', 'f']","['p229', 'p248', 'p307', 'p245', 'p268']","[1, 5, 9, 10, 0]","[86.2038576498559, 90.34149293193902, 92.00610777531934, 93.00003341222717, 84.40078082039426]",4.0,False,7.0,4.527692569068709,1.498725414276123,0.7615934627170582
0,,sub_115,2024-07-30 16:34:58,3,distance,cathedral,numerosity_judgement,3,35,2,countries_forward,"['_Yemen_', '_Oman_']","['f', 'm']","['p248', 'p307']","[7, 9]","[91.73820004985969, 92.00610777531934]",2.0,True,10.0,1.4142135623730951,1.3123462200164795,0.5863920099875156
0,,sub_115,2024-07-30 16:35:02,3,distance,cathedral,numerosity_judgement,3,36,3,countries_forward,"['_Oman_', '_Cuba_', '_Japan_']","['f', 'm', 'm']","['p284', 'p307', 'p256']","[8, 5, 2]","[92.0152836843556, 90.34149293193902, 87.57049330475357]",2.0,False,7.0,3.0,2.4998250007629395,0.7365906253546703
0,,sub_115,2024-07-30 16:35:06,3,distance,cathedral,numerosity_judgement,3,37,5,countries_forward,"['_Togo_', '_Mali_', '_Britain_', '_Oman_', '_Belgium_']","['m', 'm', 'f', 'f', 'm']","['p318', 'p256', 'p248', 'p245', 'p307']","[5, 3, 9, 10, 4]","[90.34149293193902, 89.14911522239515, 92.00610777531934, 93.00003341222717, 89.31368318402099]",4.0,False,8.2,3.1144823004794873,1.8124322891235352,0.7356486210418794
0,,sub_115,2024-07-30 16:35:09,3,distance,cathedral,numerosity_judgement,3,38,4,countries_forward,"['_Cuba_', '_Peru_', '_Oman_', '_Congo_']","['f', 'm', 'm', 'm']","['p248', 'p256', 'p307', 'p229']","[6, 9, 2, 7]","[91.58892582949886, 92.00610777531934, 87.57049330475357, 91.73820004985969]",2.0,False,8.0,2.943920288775949,1.7349250316619873,0.8308932016797186
0,,sub_115,2024-07-30 16:35:14,3,distance,cathedral,numerosity_judgement,3,39,6,countries_forward,"['_Yemen_', '_Belgium_', '_Oman_', '_Cuba_', '_Mali_', '_Peru_']","['m', 'm', 'm', 'f', 'f', 'f']","['p318', 'p307', 'p256', 'p245', 'p248', 'p268']","[8, 0, 1, 3, 6, 4]","[92.0152836843556, 84.40078082039426, 86.2038576498559, 89.14911522239515, 91.58892582949886, 89.31368318402099]",5.0,False,5.666666666666667,3.011090610836324,2.311253070831299,0.7344796277380548
0,,sub_115,2024-07-30 16:35:18,3,distance,cathedral,numerosity_judgement,3,40,4,countries_forward,"['_Peru_', '_Mali_', '_Japan_', '_Oman_']","['m', 'm', 'm', 'f']","['p318', 'p307', 'p229', 'p245']","[0, 9, 8, 6]","[84.40078082039426, 92.00610777531934, 92.0152836843556, 91.58892582949886]",2.0,False,7.75,4.031128874149275,2.812171697616577,0.8443082510498241
0,,sub_115,2024-07-30 16:35:23,3,distance,cathedral,numerosity_judgement,3,41,3,countries_forward,"['_Britain_', '_Syria_', '_Mali_']","['m', 'f', 'f']","['p229', 'p248', 'p284']","[6, 9, 0]","[91.58892582949886, 92.00610777531934, 84.40078082039426]",2.0,False,7.0,4.58257569495584,3.4989919662475586,0.9505050505050504
0,,sub_115,2024-07-30 16:35:27,3,distance,cathedral,numerosity_judgement,3,42,5,countries_forward,"['_Tonga_', '_Sudan_', '_Yemen_', '_Peru_', '_Japan_']","['f', 'f', 'm', 'f', 'f']","['p284', 'p268', 'p256', 'p248', 'p245']","[8, 9, 0, 10, 1]","[92.0152836843556, 92.00610777531934, 84.40078082039426, 93.00003341222717, 86.2038576498559]",4.0,False,7.6,4.722287581247038,1.9998602867126465,0.9513222108727728
0,,sub_115,2024-07-30 16:35:30,3,distance,cathedral,numerosity_judgement,3,43,2,countries_forward,"['_Oman_', '_Cuba_']","['f', 'm']","['p268', 'p307']","[1, 7]","[86.2038576498559, 91.73820004985969]",2.0,True,6.0,4.242640687119285,1.4350354671478271,0.6494495516967427
0,,sub_115,2024-07-30 16:35:34,3,distance,cathedral,numerosity_judgement,3,44,6,countries_forward,"['_Tonga_', '_Peru_', '_Britain_', '_Oman_', '_Yemen_', '_Mali_']","['f', 'f', 'm', 'f', 'm', 'f']","['p245', 'p268', 'p318', 'p248', 'p307', 'p284']","[10, 8, 6, 9, 2, 7]","[93.00003341222717, 92.0152836843556, 91.58892582949886, 92.00610777531934, 87.57049330475357, 91.73820004985969]",6.0,True,9.0,2.8284271247461903,1.3734476566314697,0.7124843945068664
0,,sub_115,2024-07-30 16:35:37,3,distance,cathedral,numerosity_judgement,3,45,4,countries_forward,"['_Britain_', '_Yemen_', '_Japan_', '_Sudan_']","['f', 'f', 'f', 'm']","['p284', 'p245', 'p268', 'p307']","[6, 2, 4, 8]","[91.58892582949886, 87.57049330475357, 89.31368318402099, 92.0152836843556]",5.0,False,7.0,2.581988897471611,1.8123462200164795,0.870468732266485
0,,sub_115,2024-07-30 16:35:42,3,distance,cathedral,numerosity_judgement,3,46,2,countries_forward,"['_Belgium_', '_Tonga_']","['f', 'f']","['p284', 'p245']","[0, 6]","[84.40078082039426, 91.58892582949886]",2.0,True,5.0,4.242640687119285,3.5028092861175537,0.8820451708092157
0,,sub_115,2024-07-30 16:35:46,3,distance,cathedral,numerosity_judgement,3,47,5,countries_forward,"['_Syria_', '_Britain_', '_Togo_', '_Peru_', '_Mali_']","['f', 'f', 'm', 'f', 'm']","['p284', 'p248', 'p318', 'p245', 'p307']","[5, 1, 2, 0, 6]","[90.34149293193902, 86.2038576498559, 87.57049330475357, 84.40078082039426, 91.58892582949886]",3.0,False,4.8,2.588435821108957,2.3144567012786865,0.94655544206106
0,,sub_115,2024-07-30 16:35:50,3,distance,cathedral,numerosity_judgement,3,48,3,countries_forward,"['_Yemen_', '_Tonga_', '_Mali_']","['m', 'f', 'f']","['p307', 'p268', 'p284']","[2, 8, 4]","[87.57049330475357, 92.0152836843556, 89.31368318402099]",2.0,False,6.666666666666667,3.0550504633038935,1.5631687641143799,0.8789921688798094
0,,sub_115,2024-07-30 16:35:53,3,distance,cathedral,numerosity_judgement,3,49,6,countries_forward,"['_Mali_', '_Peru_', '_Britain_', '_Oman_', '_Congo_', '_Tonga_']","['f', 'f', 'm', 'f', 'm', 'm']","['p248', 'p268', 'p318', 'p245', 'p229', 'p256']","[1, 6, 7, 0, 2, 4]","[86.2038576498559, 91.58892582949886, 91.73820004985969, 84.40078082039426, 87.57049330475357, 89.31368318402099]",4.0,False,5.333333333333333,2.804757862395017,1.5623910427093506,0.7980251957780048
0,,sub_115,2024-07-30 16:35:57,3,distance,cathedral,numerosity_judgement,3,50,5,countries_forward,"['_Yemen_', '_Peru_', '_Sudan_', '_Belgium_', '_Togo_']","['f', 'm', 'm', 'f', 'f']","['p245', 'p307', 'p318', 'p268', 'p248']","[6, 8, 4, 2, 1]","[91.58892582949886, 92.0152836843556, 89.31368318402099, 87.57049330475357, 86.2038576498559]",3.0,False,6.2,2.863564212655271,1.9373929500579834,0.850709340596981
0,,sub_115,2024-07-30 16:36:00,3,distance,cathedral,numerosity_judgement,3,51,2,countries_forward,"['_Tonga_', '_Sudan_']","['f', 'f']","['p284', 'p268']","[1, 6]","[86.2038576498559, 91.58892582949886]",2.0,True,5.5,3.5355339059327378,1.43947434425354,0.9621722846441948
0,,sub_115,2024-07-30 16:36:04,3,distance,cathedral,numerosity_judgement,3,52,3,countries_forward,"['_Cuba_', '_Oman_', '_Togo_']","['m', 'm', 'f']","['p307', 'p229', 'p284']","[5, 6, 1]","[90.34149293193902, 91.58892582949886, 86.2038576498559]",3.0,True,6.0,2.6457513110645907,2.3783888816833496,0.7289864941550335
0,,sub_115,2024-07-30 16:36:08,3,distance,cathedral,numerosity_judgement,3,53,4,countries_forward,"['_Mali_', '_Sudan_', '_Syria_', '_Japan_']","['m', 'm', 'f', 'f']","['p318', 'p229', 'p268', 'p245']","[10, 7, 6, 0]","[93.00003341222717, 91.73820004985969, 91.58892582949886, 84.40078082039426]",2.0,False,7.75,4.193248541803041,2.1248443126678467,0.9499489274770172
0,,sub_115,2024-07-30 16:36:12,3,distance,cathedral,numerosity_judgement,3,54,6,countries_forward,"['_Tonga_', '_Peru_', '_Yemen_', '_Mali_', '_Sudan_', '_Syria_']","['f', 'f', 'm', 'f', 'm', 'f']","['p248', 'p284', 'p318', 'p245', 'p229', 'p268']","[5, 3, 2, 4, 0, 8]","[90.34149293193902, 89.14911522239515, 87.57049330475357, 89.31368318402099, 84.40078082039426, 92.0152836843556]",3.0,False,5.666666666666667,2.7325202042558927,2.437330722808838,0.9253433208489388
0,,sub_115,2024-07-30 16:36:16,3,distance,cathedral,numerosity_judgement,3,55,4,countries_forward,"['_Congo_', '_Oman_', '_Peru_', '_Yemen_']","['m', 'm', 'f', 'f']","['p307', 'p229', 'p284', 'p248']","[3, 10, 2, 6]","[89.14911522239515, 93.00003341222717, 87.57049330475357, 91.58892582949886]",2.0,False,7.25,3.593976442141304,1.6865758895874023,0.672829417773238
0,,sub_115,2024-07-30 16:36:19,3,distance,cathedral,numerosity_judgement,3,56,3,countries_forward,"['_Sudan_', '_Congo_', '_Britain_']","['m', 'f', 'f']","['p307', 'p268', 'p248']","[2, 4, 3]","[87.57049330475357, 89.31368318402099, 89.14911522239515]",2.0,False,5.0,1.0,1.5628595352172852,0.8214731585518102
0,,sub_115,2024-07-30 16:36:21,3,distance,cathedral,numerosity_judgement,3,57,2,countries_forward,"['_Belgium_', '_Yemen_']","['m', 'm']","['p318', 'p256']","[0, 6]","[84.40078082039426, 91.58892582949886]",2.0,True,5.0,4.242640687119285,1.1874175071716309,0.7707524685052775
0,,sub_115,2024-07-30 16:36:27,3,distance,cathedral,numerosity_judgement,3,58,5,countries_forward,"['_Mali_', '_Yemen_', '_Oman_', '_Peru_', '_Cuba_']","['m', 'f', 'm', 'f', 'm']","['p307', 'p245', 'p229', 'p248', 'p318']","[1, 4, 3, 9, 10]","[86.2038576498559, 89.31368318402099, 89.14911522239515, 92.00610777531934, 93.00003341222717]",4.0,False,7.4,3.9115214431215892,3.7501373291015625,0.7893428668709568
0,,sub_115,2024-07-30 16:36:32,3,distance,cathedral,numerosity_judgement,3,59,6,countries_forward,"['_Peru_', '_Tonga_', '_Oman_', '_Mali_', '_Yemen_', '_Sudan_']","['m', 'f', 'm', 'f', 'f', 'm']","['p256', 'p248', 'p229', 'p268', 'p284', 'p318']","[1, 3, 7, 2, 9, 5]","[86.2038576498559, 89.14911522239515, 91.73820004985969, 87.57049330475357, 92.00610777531934, 90.34149293193902]",6.0,True,6.5,3.082207001484488,3.1887714862823486,0.8648621041879468
0,,sub_115,2024-07-30 16:36:35,3,distance,cathedral,numerosity_judgement,3,60,2,countries_forward,"['_Congo_', '_Mali_']","['f', 'f']","['p245', 'p248']","[0, 6]","[84.40078082039426, 91.58892582949886]",2.0,True,5.0,4.242640687119285,1.4369359016418457,0.7436953807740324
0,,sub_115,2024-07-30 16:36:39,3,distance,cathedral,numerosity_judgement,3,61,6,countries_forward,"['_Sudan_', '_Japan_', '_Tonga_', '_Britain_', '_Belgium_', '_Syria_']","['m', 'f', 'm', 'm', 'f', 'f']","['p229', 'p245', 'p307', 'p318', 'p284', 'p248']","[5, 1, 8, 2, 9, 6]","[90.34149293193902, 86.2038576498559, 92.0152836843556, 87.57049330475357, 92.00610777531934, 91.58892582949886]",6.0,True,7.166666666666667,3.188521078284832,2.0613555908203125,0.953705595278629
0,,sub_115,2024-07-30 16:36:45,3,distance,cathedral,numerosity_judgement,3,62,5,countries_forward,"['_Cuba_', '_Japan_', '_Yemen_', '_Peru_', '_Britain_']","['m', 'f', 'm', 'f', 'f']","['p307', 'p284', 'p229', 'p245', 'p268']","[7, 0, 5, 6, 10]","[91.73820004985969, 84.40078082039426, 90.34149293193902, 91.58892582949886, 93.00003341222717]",4.0,False,7.6,3.646916505762094,4.00204610824585,0.7025309272500284
0,,sub_115,2024-07-30 16:36:49,3,distance,cathedral,numerosity_judgement,3,63,4,countries_forward,"['_Yemen_', '_Cuba_', '_Peru_', '_Japan_']","['f', 'm', 'm', 'm']","['p284', 'p307', 'p256', 'p318']","[9, 2, 5, 0]","[92.00610777531934, 87.57049330475357, 90.34149293193902, 84.40078082039426]",2.0,False,6.0,3.9157800414902435,2.5625264644622803,0.7737487231869254
0,,sub_115,2024-07-30 16:36:53,3,distance,cathedral,numerosity_judgement,3,64,3,countries_forward,"['_Yemen_', '_Syria_', '_Sudan_']","['m', 'm', 'm']","['p318', 'p307', 'p229']","[5, 0, 4]","[90.34149293193902, 84.40078082039426, 89.31368318402099]",2.0,False,5.0,2.6457513110645907,1.9373650550842285,0.8905572579729883
0,,sub_115,2024-07-30 16:36:59,3,distance,cathedral,numerosity_judgement,3,65,2,countries_forward,"['_Mali_', '_Peru_']","['f', 'm']","['p245', 'p256']","[7, 9]","[91.73820004985969, 92.00610777531934]",2.0,True,10.0,1.4142135623730951,4.24996018409729,0.7114742934967654
0,,sub_115,2024-07-30 16:37:02,3,distance,cathedral,numerosity_judgement,3,66,5,countries_forward,"['_Belgium_', '_Japan_', '_Oman_', '_Mali_', '_Togo_']","['m', 'm', 'f', 'm', 'f']","['p307', 'p256', 'p245', 'p229', 'p268']","[9, 4, 2, 10, 7]","[92.00610777531934, 89.31368318402099, 87.57049330475357, 93.00003341222717, 91.73820004985969]",3.0,False,8.4,3.361547262794322,1.9373657703399658,0.7535467029849052
0,,sub_115,2024-07-30 16:37:05,3,distance,cathedral,numerosity_judgement,3,67,4,countries_forward,"['_Oman_', '_Tonga_', '_Cuba_', '_Mali_']","['m', 'm', 'm', 'f']","['p307', 'p256', 'p229', 'p268']","[7, 5, 9, 6]","[91.73820004985969, 90.34149293193902, 92.00610777531934, 91.58892582949886]",4.0,True,8.75,1.707825127659933,1.1263401508331299,0.7410396095789354
0,,sub_115,2024-07-30 16:37:11,3,distance,cathedral,numerosity_judgement,3,68,6,countries_forward,"['_Britain_', '_Oman_', '_Cuba_', '_Togo_', '_Yemen_', '_Peru_']","['f', 'm', 'f', 'f', 'f', 'm']","['p268', 'p256', 'p245', 'p248', 'p284', 'p318']","[8, 3, 10, 4, 0, 2]","[92.0152836843556, 89.14911522239515, 93.00003341222717, 89.31368318402099, 84.40078082039426, 87.57049330475357]",3.0,False,6.5,3.7815340802378077,4.125216245651245,0.75030076041312
0,,sub_115,2024-07-30 16:37:14,3,distance,cathedral,numerosity_judgement,3,69,3,countries_forward,"['_Yemen_', '_Oman_', '_Togo_']","['f', 'm', 'f']","['p245', 'p307', 'p268']","[6, 4, 2]","[91.58892582949886, 89.31368318402099, 87.57049330475357]",2.0,False,6.0,2.0,1.0610990524291992,0.6543865622517308
0,,sub_115,2024-07-30 16:37:19,3,distance,cathedral,numerosity_judgement,3,70,6,countries_forward,"['_Yemen_', '_Cuba_', '_Tonga_', '_Syria_', '_Belgium_', '_Peru_']","['f', 'm', 'm', 'f', 'm', 'm']","['p245', 'p318', 'p256', 'p268', 'p307', 'p229']","[5, 0, 10, 7, 3, 9]","[90.34149293193902, 84.40078082039426, 93.00003341222717, 91.73820004985969, 89.14911522239515, 92.00610777531934]",5.0,False,7.666666666666667,3.777124126457412,2.622365951538086,0.901350584496652
0,,sub_115,2024-07-30 16:37:21,3,distance,cathedral,numerosity_judgement,3,71,2,countries_forward,"['_Japan_', '_Yemen_']","['m', 'f']","['p318', 'p248']","[3, 10]","[89.14911522239515, 93.00003341222717]",2.0,True,8.5,4.949747468305833,1.2499134540557861,0.7975825672454886
0,,sub_115,2024-07-30 16:37:24,3,distance,cathedral,numerosity_judgement,3,72,3,countries_forward,"['_Peru_', '_Yemen_', '_Oman_']","['m', 'm', 'm']","['p307', 'p256', 'p229']","[3, 1, 10]","[89.14911522239515, 86.2038576498559, 93.00003341222717]",2.0,False,6.666666666666667,4.725815626252608,1.5010499954223633,0.6106230847803882
0,,sub_115,2024-07-30 16:37:28,3,distance,cathedral,numerosity_judgement,3,73,5,countries_forward,"['_Syria_', '_Cuba_', '_Togo_', '_Tonga_', '_Oman_']","['f', 'f', 'm', 'f', 'm']","['p248', 'p268', 'p318', 'p245', 'p229']","[0, 3, 4, 6, 10]","[84.40078082039426, 89.14911522239515, 89.31368318402099, 91.58892582949886, 93.00003341222717]",3.0,False,6.6,3.714835124201342,2.1248443126678467,0.696220633299285
0,,sub_115,2024-07-30 16:37:32,3,distance,cathedral,numerosity_judgement,3,74,4,countries_forward,"['_Yemen_', '_Belgium_', '_Britain_', '_Syria_']","['m', 'm', 'f', 'm']","['p318', 'p307', 'p245', 'p229']","[0, 10, 4, 3]","[84.40078082039426, 93.00003341222717, 89.31368318402099, 89.14911522239515]",2.0,False,6.25,4.193248541803041,1.499894380569458,0.9207694926796052
0,,sub_115,2024-07-30 16:39:16,3,distance,cathedral,numerosity_judgement,4,0,4,countries_forward,"['_Oman_', '_Mali_', '_Yemen_', '_Britain_']","['f', 'f', 'm', 'f']","['p248', 'p268', 'p256', 'p245']","[3, 6, 9, 7]","[89.14911522239515, 91.58892582949886, 92.00610777531934, 91.73820004985969]",3.0,False,8.25,2.5,2.750080108642578,0.6700034048348655
0,,sub_115,2024-07-30 16:39:21,3,distance,cathedral,numerosity_judgement,4,1,6,countries_forward,"['_Yemen_', '_Britain_', '_Syria_', '_Peru_', '_Mali_', '_Oman_']","['m', 'f', 'm', 'm', 'f', 'f']","['p256', 'p248', 'p318', 'p229', 'p268', 'p245']","[10, 2, 4, 3, 5, 1]","[93.00003341222717, 87.57049330475357, 89.31368318402099, 89.14911522239515, 90.34149293193902, 86.2038576498559]",4.0,False,6.166666666666667,3.1885210782848317,3.04742169380188,0.8378504142549086
0,,sub_115,2024-07-30 16:39:25,3,distance,cathedral,numerosity_judgement,4,2,5,countries_forward,"['_Oman_', '_Peru_', '_Yemen_', '_Mali_', '_Togo_']","['m', 'm', 'f', 'f', 'm']","['p256', 'p307', 'p245', 'p248', 'p318']","[4, 5, 9, 2, 6]","[89.31368318402099, 90.34149293193902, 92.00610777531934, 87.57049330475357, 91.58892582949886]",3.0,False,7.2,2.588435821108957,1.7344000339508057,0.733083645443196
0,,sub_115,2024-07-30 16:39:28,3,distance,cathedral,numerosity_judgement,4,3,3,countries_forward,"['_Britain_', '_Togo_', '_Syria_']","['f', 'f', 'm']","['p284', 'p245', 'p318']","[7, 0, 4]","[91.73820004985969, 84.40078082039426, 89.31368318402099]",3.0,True,5.666666666666667,3.5118845842842465,2.0623562335968018,0.93391215526047
0,,sub_115,2024-07-30 16:39:32,3,distance,cathedral,numerosity_judgement,4,4,2,countries_forward,"['_Sudan_', '_Yemen_']","['f', 'm']","['p284', 'p318']","[6, 2]","[91.58892582949886, 87.57049330475357]",2.0,True,6.0,2.8284271247461903,1.687382698059082,0.9518442855521508
0,,sub_115,2024-07-30 16:39:36,3,distance,cathedral,numerosity_judgement,4,5,4,countries_forward,"['_Cuba_', '_Yemen_', '_Congo_', '_Oman_']","['m', 'f', 'f', 'f']","['p307', 'p268', 'p245', 'p248']","[7, 8, 4, 3]","[91.73820004985969, 92.0152836843556, 89.31368318402099, 89.14911522239515]",3.0,False,7.5,2.3804761428476167,2.936973810195923,0.629043241402792
0,,sub_115,2024-07-30 16:39:40,3,distance,cathedral,numerosity_judgement,4,6,5,countries_forward,"['_Oman_', '_Belgium_', '_Syria_', '_Cuba_', '_Britain_']","['f', 'f', 'f', 'm', 'm']","['p284', 'p245', 'p248', 'p307', 'p256']","[9, 2, 5, 7, 3]","[92.00610777531934, 87.57049330475357, 90.34149293193902, 91.73820004985969, 89.14911522239515]",3.0,False,7.2,2.863564212655271,2.235135555267334,0.8273862217682443
0,,sub_115,2024-07-30 16:39:45,3,distance,cathedral,numerosity_judgement,4,7,6,countries_forward,"['_Syria_', '_Oman_', '_Japan_', '_Tonga_', '_Yemen_', '_Britain_']","['m', 'm', 'm', 'm', 'f', 'f']","['p318', 'p256', 'p307', 'p229', 'p245', 'p248']","[1, 9, 8, 2, 7, 4]","[86.2038576498559, 92.00610777531934, 92.0152836843556, 87.57049330475357, 91.73820004985969, 89.31368318402099]",4.0,False,7.166666666666667,3.3115957885386114,2.3133487701416016,0.7841448189762796
0,,sub_115,2024-07-30 16:39:48,3,distance,cathedral,numerosity_judgement,4,8,3,countries_forward,"['_Cuba_', '_Belgium_', '_Britain_']","['f', 'f', 'f']","['p248', 'p245', 'p284']","[8, 5, 10]","[92.0152836843556, 90.34149293193902, 93.00003341222717]",3.0,True,9.666666666666666,2.516611478423583,2.0623574256896973,0.8606741573033708
0,,sub_115,2024-07-30 16:39:51,3,distance,cathedral,numerosity_judgement,4,9,2,countries_forward,"['_Oman_', '_Britain_']","['m', 'f']","['p256', 'p245']","[5, 7]","[90.34149293193902, 91.73820004985969]",2.0,True,8.0,1.4142135623730951,1.062453031539917,0.6869481330155488
0,,sub_115,2024-07-30 16:39:55,3,distance,cathedral,numerosity_judgement,4,10,3,countries_forward,"['_Peru_', '_Mali_', '_Sudan_']","['f', 'm', 'm']","['p268', 'p229', 'p307']","[1, 3, 9]","[86.2038576498559, 89.14911522239515, 92.00610777531934]",2.0,False,6.333333333333333,4.163331998932266,2.860208511352539,0.8072749971626376
0,,sub_115,2024-07-30 16:39:59,3,distance,cathedral,numerosity_judgement,4,11,4,countries_forward,"['_Peru_', '_Oman_', '_Japan_', '_Yemen_']","['m', 'm', 'f', 'f']","['p229', 'p256', 'p268', 'p284']","[0, 10, 1, 8]","[84.40078082039426, 93.00003341222717, 86.2038576498559, 92.0152836843556]",3.0,False,6.75,4.9916597106239795,1.8718044757843018,0.7322437861763704
0,,sub_115,2024-07-30 16:40:02,3,distance,cathedral,numerosity_judgement,4,12,2,countries_forward,"['_Peru_', '_Oman_']","['f', 'f']","['p268', 'p284']","[10, 5]","[93.00003341222717, 90.34149293193902]",2.0,True,9.5,3.5355339059327378,1.187462329864502,0.7291226875496538
0,,sub_115,2024-07-30 16:40:06,3,distance,cathedral,numerosity_judgement,4,13,5,countries_forward,"['_Mali_', '_Cuba_', '_Peru_', '_Tonga_', '_Oman_']","['m', 'f', 'm', 'm', 'f']","['p318', 'p245', 'p229', 'p307', 'p248']","[10, 6, 4, 7, 9]","[93.00003341222717, 91.58892582949886, 89.31368318402099, 91.73820004985969, 92.00610777531934]",5.0,True,9.2,2.3874672772626644,2.6735117435455322,0.7428555215072069
0,,sub_115,2024-07-30 16:40:09,3,distance,cathedral,numerosity_judgement,4,14,6,countries_forward,"['_Tonga_', '_Peru_', '_Mali_', '_Yemen_', '_Japan_', '_Sudan_']","['f', 'f', 'm', 'f', 'm', 'm']","['p245', 'p284', 'p256', 'p248', 'p307', 'p229']","[5, 10, 3, 6, 2, 1]","[90.34149293193902, 93.00003341222717, 89.14911522239515, 91.58892582949886, 87.57049330475357, 86.2038576498559]",6.0,True,6.5,3.271085446759225,1.0604197978973389,0.7466462376574736
0,,sub_115,2024-07-30 16:40:12,3,distance,cathedral,numerosity_judgement,4,15,2,countries_forward,"['_Tonga_', '_Belgium_']","['f', 'f']","['p245', 'p268']","[10, 3]","[93.00003341222717, 89.14911522239515]",2.0,True,8.5,4.949747468305833,1.0624253749847412,0.7903416184315061
0,,sub_115,2024-07-30 16:40:16,3,distance,cathedral,numerosity_judgement,4,16,5,countries_forward,"['_Sudan_', '_Mali_', '_Congo_', '_Syria_', '_Belgium_']","['m', 'f', 'm', 'f', 'm']","['p318', 'p245', 'p256', 'p268', 'p307']","[9, 1, 2, 7, 3]","[92.00610777531934, 86.2038576498559, 87.57049330475357, 91.73820004985969, 89.14911522239515]",4.0,False,6.4,3.4351128074635335,2.250607490539551,0.9111224605606628
0,,sub_115,2024-07-30 16:40:20,3,distance,cathedral,numerosity_judgement,4,17,4,countries_forward,"['_Japan_', '_Oman_', '_Sudan_', '_Peru_']","['f', 'm', 'f', 'm']","['p284', 'p229', 'p245', 'p318']","[5, 0, 10, 3]","[90.34149293193902, 84.40078082039426, 93.00003341222717, 89.14911522239515]",3.0,False,6.5,4.203173404306164,2.0465643405914307,0.9305640676427194
0,,sub_115,2024-07-30 16:40:25,3,distance,cathedral,numerosity_judgement,4,18,6,countries_forward,"['_Cuba_', '_Mali_', '_Britain_', '_Japan_', '_Peru_', '_Tonga_']","['f', 'm', 'f', 'm', 'f', 'm']","['p284', 'p256', 'p248', 'p318', 'p245', 'p307']","[1, 7, 3, 8, 0, 9]","[86.2038576498559, 91.73820004985969, 89.14911522239515, 92.0152836843556, 84.40078082039426, 92.00610777531934]",4.0,False,6.666666666666667,3.8297084310253524,3.2508344650268555,0.8659403018953581
0,,sub_115,2024-07-30 16:40:28,3,distance,cathedral,numerosity_judgement,4,19,3,countries_forward,"['_Britain_', '_Oman_', '_Cuba_']","['m', 'm', 'm']","['p256', 'p229', 'p318']","[4, 10, 6]","[89.31368318402099, 93.00003341222717, 91.58892582949886]",2.0,False,8.666666666666666,3.055050463303893,1.4998950958251953,0.7245488593803201
0,,sub_115,2024-07-30 16:40:31,3,distance,cathedral,numerosity_judgement,4,20,6,countries_forward,"['_Mali_', '_Peru_', '_Cuba_', '_Yemen_', '_Oman_', '_Belgium_']","['f', 'm', 'f', 'm', 'm', 'f']","['p284', 'p318', 'p248', 'p256', 'p229', 'p268']","[4, 5, 8, 2, 1, 9]","[89.31368318402099, 90.34149293193902, 92.0152836843556, 87.57049330475357, 86.2038576498559, 92.00610777531934]",3.0,False,6.833333333333333,3.188521078284832,1.249912977218628,0.7885030076041312
0,,sub_115,2024-07-30 16:40:34,3,distance,cathedral,numerosity_judgement,4,21,3,countries_forward,"['_Peru_', '_Yemen_', '_Oman_']","['m', 'm', 'm']","['p307', 'p256', 'p229']","[3, 1, 10]","[89.14911522239515, 86.2038576498559, 93.00003341222717]",2.0,False,6.666666666666667,4.725815626252608,1.1252939701080322,0.6106230847803882
0,,sub_115,2024-07-30 16:40:39,3,distance,cathedral,numerosity_judgement,4,22,5,countries_forward,"['_Togo_', '_Oman_', '_Mali_', '_Cuba_', '_Yemen_']","['f', 'f', 'm', 'm', 'f']","['p284', 'p248', 'p229', 'p307', 'p268']","[5, 1, 10, 8, 6]","[90.34149293193902, 86.2038576498559, 93.00003341222717, 92.0152836843556, 91.58892582949886]",4.0,False,8.0,3.391164991562634,3.3113632202148438,0.7988310066961752
0,,sub_115,2024-07-30 16:40:43,3,distance,cathedral,numerosity_judgement,4,23,4,countries_forward,"['_Tonga_', '_Togo_', '_Yemen_', '_Oman_']","['f', 'f', 'f', 'm']","['p245', 'p284', 'p248', 'p229']","[9, 2, 6, 10]","[92.00610777531934, 87.57049330475357, 91.58892582949886, 93.00003341222717]",3.0,False,8.75,3.593976442141304,1.749877691268921,0.7469072749971626
0,,sub_115,2024-07-30 16:40:46,3,distance,cathedral,numerosity_judgement,4,24,2,countries_forward,"['_Belgium_', '_Yemen_']","['m', 'f']","['p229', 'p245']","[1, 7]","[86.2038576498559, 91.73820004985969]",2.0,True,6.0,4.242640687119285,1.4415576457977295,0.7624900692316423
0,,sub_115,2024-07-30 16:40:49,3,distance,cathedral,numerosity_judgement,4,25,3,countries_forward,"['_Peru_', '_Mali_', '_Belgium_']","['m', 'm', 'f']","['p229', 'p307', 'p248']","[10, 6, 1]","[93.00003341222717, 91.58892582949886, 86.2038576498559]",2.0,False,7.666666666666667,4.509249752822894,2.0045719146728516,0.9062421972534332
0,,sub_115,2024-07-30 16:40:56,3,distance,cathedral,numerosity_judgement,4,26,4,countries_forward,"['_Congo_', '_Cuba_', '_Togo_', '_Yemen_']","['f', 'm', 'm', 'm']","['p268', 'p307', 'p256', 'p318']","[0, 7, 1, 6]","[84.40078082039426, 91.73820004985969, 86.2038576498559, 91.58892582949886]",3.0,False,5.5,3.5118845842842465,4.563114881515503,0.7145272954261719
0,,sub_115,2024-07-30 16:40:59,3,distance,cathedral,numerosity_judgement,4,27,5,countries_forward,"['_Japan_', '_Peru_', '_Oman_', '_Belgium_', '_Togo_']","['m', 'f', 'f', 'f', 'f']","['p307', 'p248', 'p284', 'p268', 'p245']","[9, 10, 7, 3, 1]","[92.00610777531934, 93.00003341222717, 91.73820004985969, 89.14911522239515, 86.2038576498559]",5.0,True,8.0,3.872983346207417,1.4992504119873047,0.8794574963114289
0,,sub_115,2024-07-30 16:41:02,3,distance,cathedral,numerosity_judgement,4,28,2,countries_forward,"['_Peru_', '_Syria_']","['m', 'm']","['p307', 'p256']","[6, 0]","[91.58892582949886, 84.40078082039426]",2.0,True,5.0,4.242640687119285,1.3124079704284668,0.8581545795028941
0,,sub_115,2024-07-30 16:41:05,3,distance,cathedral,numerosity_judgement,4,29,6,countries_forward,"['_Cuba_', '_Congo_', '_Tonga_', '_Britain_', '_Peru_', '_Yemen_']","['m', 'f', 'm', 'm', 'f', 'm']","['p307', 'p268', 'p318', 'p256', 'p245', 'p229']","[10, 1, 4, 7, 6, 5]","[93.00003341222717, 86.2038576498559, 89.31368318402099, 91.73820004985969, 91.58892582949886, 90.34149293193902]",4.0,False,7.5,3.0166206257996713,1.3124806880950928,0.7524458063783906
0,,sub_115,2024-07-30 16:41:09,3,distance,cathedral,numerosity_judgement,4,30,4,countries_forward,"['_Yemen_', '_Peru_', '_Congo_', '_Oman_']","['f', 'm', 'm', 'm']","['p245', 'p318', 'p307', 'p256']","[4, 8, 3, 10]","[89.31368318402099, 92.0152836843556, 89.14911522239515, 93.00003341222717]",3.0,False,8.25,3.304037933599835,2.186283588409424,0.6971399387129724
0,,sub_115,2024-07-30 16:41:12,3,distance,cathedral,numerosity_judgement,4,31,2,countries_forward,"['_Congo_', '_Oman_']","['m', 'm']","['p256', 'p307']","[5, 9]","[90.34149293193902, 92.00610777531934]",2.0,True,9.0,2.8284271247461903,1.6873805522918701,0.7024741800022699
