,event_id,subject_id,timestamp,session_index,plane,setup,task,block,trial_index,stim_number,stim_type,stim_country_ids,stim_sexes,stim_talker_ids,speaker_ids,stim_level,resp_number,is_correct,speaker_distance_mean,speaker_distance_st_dev,reaction_time,spectral_coverage
0,,sub_113,2024-07-17 15:35:22,3,distance,cathedral,numerosity_judgement,1,0,5,countries_forward,"['_Oman_', '_Tonga_', '_Japan_', '_Peru_', '_Yemen_']","['f', 'm', 'm', 'm', 'f']","['p268', 'p307', 'p256', 'p229', 'p248']","[8, 3, 7, 1, 5]","[92.0152836843556, 89.14911522239515, 91.73820004985969, 86.2038576498559, 90.34149293193902]",3.0,False,6.8,2.863564212655271,4.1256396770477295,0.7620701395982294
0,,sub_113,2024-07-17 15:35:26,3,distance,cathedral,numerosity_judgement,1,1,3,countries_forward,"['_Peru_', '_Congo_', '_Mali_']","['m', 'f', 'f']","['p307', 'p284', 'p248']","[10, 0, 2]","[93.00003341222717, 84.40078082039426, 87.57049330475357]",3.0,True,6.0,5.291502622129181,2.9347565174102783,0.8386789240721825
0,,sub_113,2024-07-17 15:35:29,3,distance,cathedral,numerosity_judgement,1,2,2,countries_forward,"['_Congo_', '_Yemen_']","['m', 'm']","['p229', 'p256']","[4, 7]","[89.31368318402099, 91.73820004985969]",2.0,True,7.5,2.1213203435596424,1.7987685203552246,0.6806037907161503
0,,sub_113,2024-07-17 15:35:35,3,distance,cathedral,numerosity_judgement,1,3,6,countries_forward,"['_Yemen_', '_Tonga_', '_Peru_', '_Sudan_', '_Oman_', '_Syria_']","['m', 'f', 'm', 'm', 'm', 'f']","['p307', 'p268', 'p318', 'p229', 'p256', 'p248']","[2, 3, 6, 1, 4, 5]","[87.57049330475357, 89.14911522239515, 91.58892582949886, 86.2038576498559, 89.31368318402099, 90.34149293193902]",3.0,False,5.5,1.8708286933869707,3.500021457672119,0.8378617637044603
0,,sub_113,2024-07-17 15:35:40,3,distance,cathedral,numerosity_judgement,1,4,4,countries_forward,"['_Yemen_', '_Peru_', '_Britain_', '_Togo_']","['f', 'f', 'm', 'm']","['p248', 'p268', 'p256', 'p229']","[10, 6, 3, 1]","[93.00003341222717, 91.58892582949886, 89.14911522239515, 86.2038576498559]",3.0,False,7.0,3.9157800414902435,3.0008835792541504,0.7622517307910567
0,,sub_113,2024-07-17 15:35:52,3,distance,cathedral,numerosity_judgement,1,5,3,countries_forward,"['_Togo_', '_Congo_', '_Oman_']","['f', 'f', 'm']","['p284', 'p245', 'p307']","[2, 4, 6]","[87.57049330475357, 89.31368318402099, 91.58892582949886]",2.0,False,6.0,2.0,10.359236001968384,0.7506298944501192
0,,sub_113,2024-07-17 15:35:56,3,distance,cathedral,numerosity_judgement,1,6,6,countries_forward,"['_Yemen_', '_Tonga_', '_Mali_', '_Cuba_', '_Togo_', '_Congo_']","['m', 'f', 'f', 'm', 'm', 'f']","['p318', 'p268', 'p248', 'p307', 'p256', 'p245']","[5, 3, 10, 7, 2, 4]","[90.34149293193902, 89.14911522239515, 93.00003341222717, 91.73820004985969, 87.57049330475357, 89.31368318402099]",2.0,False,7.166666666666667,2.9268868558020253,2.3123390674591064,0.6946544092611509
0,,sub_113,2024-07-17 15:36:00,3,distance,cathedral,numerosity_judgement,1,7,5,countries_forward,"['_Britain_', '_Cuba_', '_Peru_', '_Tonga_', '_Togo_']","['m', 'm', 'f', 'm', 'f']","['p256', 'p318', 'p248', 'p229', 'p268']","[8, 6, 0, 10, 5]","[92.0152836843556, 91.58892582949886, 84.40078082039426, 93.00003341222717, 90.34149293193902]",3.0,False,7.8,3.7682887362833544,1.5630102157592773,0.8240948813982522
0,,sub_113,2024-07-17 15:36:03,3,distance,cathedral,numerosity_judgement,1,8,4,countries_forward,"['_Mali_', '_Tonga_', '_Britain_', '_Peru_']","['f', 'f', 'm', 'm']","['p284', 'p245', 'p307', 'p256']","[8, 3, 10, 4]","[92.0152836843556, 89.14911522239515, 93.00003341222717, 89.31368318402099]",4.0,True,8.25,3.304037933599835,2.001338481903076,0.788922937237544
0,,sub_113,2024-07-17 15:36:07,3,distance,cathedral,numerosity_judgement,1,9,2,countries_forward,"['_Yemen_', '_Cuba_']","['f', 'f']","['p284', 'p268']","[8, 6]","[92.0152836843556, 91.58892582949886]",2.0,True,9.0,1.4142135623730951,2.499825954437256,0.6411190557257973
0,,sub_113,2024-07-17 15:36:12,3,distance,cathedral,numerosity_judgement,1,10,4,countries_forward,"['_Yemen_', '_Oman_', '_Cuba_', '_Peru_']","['f', 'f', 'm', 'm']","['p248', 'p268', 'p318', 'p307']","[10, 8, 4, 6]","[93.00003341222717, 92.0152836843556, 89.31368318402099, 91.58892582949886]",3.0,False,9.0,2.581988897471611,2.874817132949829,0.7426171830666213
0,,sub_113,2024-07-17 15:36:16,3,distance,cathedral,numerosity_judgement,1,11,5,countries_forward,"['_Peru_', '_Oman_', '_Yemen_', '_Syria_', '_Mali_']","['f', 'm', 'f', 'f', 'f']","['p245', 'p307', 'p284', 'p248', 'p268']","[6, 4, 10, 3, 1]","[91.58892582949886, 89.31368318402099, 93.00003341222717, 89.14911522239515, 86.2038576498559]",3.0,False,6.8,3.420526275297414,2.562321901321411,0.7967313585291114
0,,sub_113,2024-07-17 15:36:21,3,distance,cathedral,numerosity_judgement,1,12,3,countries_forward,"['_Britain_', '_Peru_', '_Oman_']","['m', 'm', 'm']","['p307', 'p318', 'p229']","[10, 4, 3]","[93.00003341222717, 89.31368318402099, 89.14911522239515]",2.0,False,7.666666666666667,3.7859388972001824,3.063598155975342,0.6836681420951084
0,,sub_113,2024-07-17 15:36:25,3,distance,cathedral,numerosity_judgement,1,13,6,countries_forward,"['_Congo_', '_Oman_', '_Tonga_', '_Cuba_', '_Togo_', '_Belgium_']","['m', 'm', 'm', 'm', 'f', 'f']","['p256', 'p307', 'p318', 'p229', 'p245', 'p248']","[4, 3, 7, 10, 8, 0]","[89.31368318402099, 89.14911522239515, 91.73820004985969, 93.00003341222717, 92.0152836843556, 84.40078082039426]",4.0,False,7.333333333333333,3.669695718539436,1.9416847229003906,0.7491658154579502
0,,sub_113,2024-07-17 15:36:29,3,distance,cathedral,numerosity_judgement,1,14,2,countries_forward,"['_Sudan_', '_Tonga_']","['f', 'f']","['p268', 'p245']","[9, 2]","[92.00610777531934, 87.57049330475357]",2.0,True,7.5,4.949747468305833,2.1717898845672607,0.9627738054704348
0,,sub_113,2024-07-17 15:36:32,3,distance,cathedral,numerosity_judgement,1,15,4,countries_forward,"['_Yemen_', '_Oman_', '_Peru_', '_Togo_']","['m', 'm', 'f', 'm']","['p229', 'p307', 'p268', 'p256']","[9, 5, 3, 10]","[92.00610777531934, 90.34149293193902, 89.14911522239515, 93.00003341222717]",3.0,False,8.75,3.304037933599835,2.0623562335968018,0.6414935875610033
0,,sub_113,2024-07-17 15:36:37,3,distance,cathedral,numerosity_judgement,1,16,3,countries_forward,"['_Japan_', '_Togo_', '_Mali_']","['m', 'f', 'f']","['p229', 'p268', 'p284']","[3, 0, 7]","[89.14911522239515, 84.40078082039426, 91.73820004985969]",2.0,False,5.333333333333333,3.5118845842842465,2.3748624324798584,0.9046078765179888
0,,sub_113,2024-07-17 15:36:40,3,distance,cathedral,numerosity_judgement,1,17,2,countries_forward,"['_Syria_', '_Belgium_']","['f', 'm']","['p268', 'p307']","[4, 3]","[89.31368318402099, 89.14911522239515]",2.0,True,5.5,0.7071067811865476,2.2384676933288574,0.9328793553512654
0,,sub_113,2024-07-17 15:36:44,3,distance,cathedral,numerosity_judgement,1,18,6,countries_forward,"['_Togo_', '_Sudan_', '_Mali_', '_Syria_', '_Britain_', '_Japan_']","['f', 'f', 'f', 'f', 'm', 'm']","['p248', 'p284', 'p268', 'p245', 'p229', 'p256']","[5, 10, 4, 8, 0, 2]","[90.34149293193902, 93.00003341222717, 89.31368318402099, 92.0152836843556, 84.40078082039426, 87.57049330475357]",4.0,False,6.833333333333333,3.7103458958251676,1.4999973773956299,0.9510157757348768
0,,sub_113,2024-07-17 15:36:48,3,distance,cathedral,numerosity_judgement,1,19,5,countries_forward,"['_Belgium_', '_Togo_', '_Peru_', '_Syria_', '_Mali_']","['f', 'm', 'm', 'f', 'm']","['p245', 'p229', 'p318', 'p284', 'p307']","[3, 2, 9, 4, 1]","[89.14911522239515, 87.57049330475357, 92.00610777531934, 89.31368318402099, 86.2038576498559]",4.0,False,5.8,3.1144823004794877,2.74706768989563,0.9378958120531156
0,,sub_113,2024-07-17 15:36:53,3,distance,cathedral,numerosity_judgement,1,20,4,countries_forward,"['_Britain_', '_Togo_', '_Congo_', '_Mali_']","['m', 'm', 'm', 'm']","['p318', 'p256', 'p229', 'p307']","[2, 0, 1, 9]","[87.57049330475357, 84.40078082039426, 86.2038576498559, 92.00610777531934]",2.0,False,5.0,4.08248290463863,2.9347026348114014,0.8963568266939054
0,,sub_113,2024-07-17 15:36:56,3,distance,cathedral,numerosity_judgement,1,21,5,countries_forward,"['_Togo_', '_Sudan_', '_Mali_', '_Cuba_', '_Oman_']","['m', 'f', 'm', 'm', 'f']","['p229', 'p245', 'p256', 'p307', 'p284']","[8, 9, 10, 6, 7]","[92.0152836843556, 92.00610777531934, 93.00003341222717, 91.58892582949886, 91.73820004985969]",3.0,False,10.0,1.5811388300841898,1.4374001026153564,0.8972874815571444
0,,sub_113,2024-07-17 15:37:01,3,distance,cathedral,numerosity_judgement,1,22,6,countries_forward,"['_Togo_', '_Congo_', '_Peru_', '_Yemen_', '_Britain_', '_Oman_']","['m', 'f', 'f', 'm', 'm', 'f']","['p229', 'p245', 'p248', 'p307', 'p256', 'p268']","[0, 6, 1, 10, 7, 3]","[84.40078082039426, 91.58892582949886, 86.2038576498559, 93.00003341222717, 91.73820004985969, 89.14911522239515]",4.0,False,6.5,3.8340579025361627,2.560076951980591,0.7283282260810351
0,,sub_113,2024-07-17 15:37:05,3,distance,cathedral,numerosity_judgement,1,23,2,countries_forward,"['_Syria_', '_Togo_']","['m', 'm']","['p229', 'p307']","[7, 2]","[91.73820004985969, 87.57049330475357]",2.0,True,6.5,3.5355339059327378,1.9229004383087158,0.9047213710135058
0,,sub_113,2024-07-17 15:37:09,3,distance,cathedral,numerosity_judgement,1,24,3,countries_forward,"['_Cuba_', '_Togo_', '_Japan_']","['m', 'f', 'm']","['p229', 'p268', 'p307']","[9, 7, 0]","[92.00610777531934, 91.73820004985969, 84.40078082039426]",3.0,True,7.333333333333333,4.725815626252608,2.937251567840576,0.7717852684144819
0,,sub_113,2024-07-17 15:37:14,3,distance,cathedral,numerosity_judgement,1,25,5,countries_forward,"['_Yemen_', '_Belgium_', '_Britain_', '_Oman_', '_Tonga_']","['m', 'm', 'm', 'f', 'f']","['p229', 'p256', 'p307', 'p245', 'p248']","[5, 9, 3, 10, 2]","[90.34149293193902, 92.00610777531934, 89.14911522239515, 93.00003341222717, 87.57049330475357]",4.0,False,7.8,3.5637059362410923,2.6213431358337402,0.7539893315174214
0,,sub_113,2024-07-17 15:37:18,3,distance,cathedral,numerosity_judgement,1,26,4,countries_forward,"['_Japan_', '_Peru_', '_Belgium_', '_Britain_']","['m', 'f', 'f', 'm']","['p307', 'p268', 'p284', 'p256']","[1, 10, 9, 0]","[86.2038576498559, 93.00003341222717, 92.00610777531934, 84.40078082039426]",2.0,False,7.0,5.228129047119374,2.5607001781463623,0.8785608897968449
0,,sub_113,2024-07-17 15:37:23,3,distance,cathedral,numerosity_judgement,1,27,6,countries_forward,"['_Tonga_', '_Syria_', '_Sudan_', '_Yemen_', '_Togo_', '_Britain_']","['m', 'f', 'm', 'f', 'm', 'f']","['p256', 'p284', 'p229', 'p245', 'p307', 'p268']","[9, 10, 1, 4, 3, 5]","[92.00610777531934, 93.00003341222717, 86.2038576498559, 89.31368318402099, 89.14911522239515, 90.34149293193902]",2.0,False,7.333333333333333,3.5023801430836525,3.0592827796936035,0.9314152763590966
0,,sub_113,2024-07-17 15:37:28,3,distance,cathedral,numerosity_judgement,1,28,2,countries_forward,"['_Yemen_', '_Oman_']","['f', 'm']","['p248', 'p307']","[7, 9]","[91.73820004985969, 92.00610777531934]",2.0,True,10.0,1.4142135623730951,3.500062942504883,0.5863920099875156
0,,sub_113,2024-07-17 15:37:32,3,distance,cathedral,numerosity_judgement,1,29,3,countries_forward,"['_Peru_', '_Congo_', '_Belgium_']","['m', 'm', 'm']","['p307', 'p256', 'p318']","[10, 7, 4]","[93.00003341222717, 91.73820004985969, 89.31368318402099]",3.0,True,9.0,3.0,1.937364101409912,0.7316763136987856
0,,sub_113,2024-07-17 15:37:36,3,distance,cathedral,numerosity_judgement,1,30,6,countries_forward,"['_Peru_', '_Britain_', '_Tonga_', '_Sudan_', '_Syria_', '_Congo_']","['f', 'f', 'm', 'm', 'f', 'f']","['p248', 'p268', 'p318', 'p229', 'p284', 'p245']","[1, 5, 9, 10, 2, 7]","[86.2038576498559, 90.34149293193902, 92.00610777531934, 93.00003341222717, 87.57049330475357, 91.73820004985969]",4.0,False,7.666666666666667,3.669695718539436,1.9998605251312256,0.969050051072523
0,,sub_113,2024-07-17 15:37:41,3,distance,cathedral,numerosity_judgement,1,31,4,countries_forward,"['_Oman_', '_Peru_', '_Britain_', '_Cuba_']","['f', 'm', 'm', 'f']","['p248', 'p307', 'p318', 'p268']","[7, 5, 10, 3]","[91.73820004985969, 90.34149293193902, 93.00003341222717, 89.14911522239515]",3.0,False,8.25,2.9860788111948193,2.9375593662261963,0.6691067983202814
0,,sub_113,2024-07-17 15:37:44,3,distance,cathedral,numerosity_judgement,1,32,2,countries_forward,"['_Peru_', '_Tonga_']","['m', 'f']","['p256', 'p268']","[3, 5]","[89.14911522239515, 90.34149293193902]",2.0,True,6.0,1.4142135623730951,1.559598684310913,0.7715242310747928
0,,sub_113,2024-07-17 15:37:48,3,distance,cathedral,numerosity_judgement,1,33,5,countries_forward,"['_Oman_', '_Tonga_', '_Togo_', '_Yemen_', '_Japan_']","['m', 'm', 'm', 'f', 'f']","['p229', 'p307', 'p256', 'p245', 'p248']","[10, 5, 4, 9, 0]","[93.00003341222717, 90.34149293193902, 89.31368318402099, 92.00610777531934, 84.40078082039426]",3.0,False,7.6,4.03732584763727,2.748835563659668,0.7124730450573147
0,,sub_113,2024-07-17 15:37:52,3,distance,cathedral,numerosity_judgement,1,34,3,countries_forward,"['_Peru_', '_Congo_', '_Yemen_']","['f', 'm', 'm']","['p245', 'p229', 'p256']","[9, 5, 7]","[92.00610777531934, 90.34149293193902, 91.73820004985969]",4.0,False,9.0,2.0,1.6248865127563477,0.6861423220973782
0,,sub_113,2024-07-17 15:37:56,3,distance,cathedral,numerosity_judgement,1,35,5,countries_forward,"['_Syria_', '_Mali_', '_Belgium_', '_Japan_', '_Congo_']","['f', 'f', 'f', 'm', 'm']","['p248', 'p284', 'p245', 'p307', 'p256']","[1, 6, 2, 4, 3]","[86.2038576498559, 91.58892582949886, 87.57049330475357, 89.31368318402099, 89.14911522239515]",3.0,False,5.2,1.9235384061671346,2.873232841491699,0.9232209737827716
0,,sub_113,2024-07-17 15:38:00,3,distance,cathedral,numerosity_judgement,1,36,6,countries_forward,"['_Tonga_', '_Congo_', '_Yemen_', '_Oman_', '_Japan_', '_Mali_']","['m', 'm', 'f', 'f', 'm', 'm']","['p229', 'p318', 'p245', 'p248', 'p256', 'p307']","[2, 0, 3, 10, 6, 5]","[87.57049330475357, 84.40078082039426, 89.14911522239515, 93.00003341222717, 91.58892582949886, 90.34149293193902]",4.0,False,6.333333333333333,3.5023801430836525,1.6245474815368652,0.7731131540120304
0,,sub_113,2024-07-17 15:38:04,3,distance,cathedral,numerosity_judgement,1,37,3,countries_forward,"['_Mali_', '_Syria_', '_Japan_']","['f', 'f', 'm']","['p284', 'p248', 'p256']","[9, 4, 1]","[92.00610777531934, 89.31368318402099, 86.2038576498559]",3.0,True,6.666666666666667,4.041451884327381,2.1879353523254395,0.9656792645556692
0,,sub_113,2024-07-17 15:38:07,3,distance,cathedral,numerosity_judgement,1,38,2,countries_forward,"['_Belgium_', '_Peru_']","['m', 'f']","['p229', 'p248']","[7, 8]","[91.73820004985969, 92.0152836843556]",2.0,True,9.5,0.7071067811865476,1.4373984336853027,0.8566905005107253
0,,sub_113,2024-07-17 15:38:11,3,distance,cathedral,numerosity_judgement,1,39,4,countries_forward,"['_Togo_', '_Syria_', '_Oman_', '_Japan_']","['f', 'f', 'm', 'f']","['p268', 'p284', 'p318', 'p245']","[2, 1, 4, 5]","[87.57049330475357, 86.2038576498559, 89.31368318402099, 90.34149293193902]",3.0,False,5.0,1.8257418583505538,2.00141978263855,0.9112359550561798
0,,sub_113,2024-07-17 15:38:14,3,distance,cathedral,numerosity_judgement,1,40,6,countries_forward,"['_Sudan_', '_Mali_', '_Syria_', '_Oman_', '_Tonga_', '_Japan_']","['m', 'm', 'm', 'f', 'f', 'f']","['p318', 'p229', 'p307', 'p248', 'p268', 'p245']","[10, 0, 4, 5, 6, 3]","[93.00003341222717, 84.40078082039426, 89.31368318402099, 90.34149293193902, 91.58892582949886, 89.14911522239515]",4.0,False,6.666666666666667,3.32665998663324,1.3756401538848877,0.8755646351151969
0,,sub_113,2024-07-17 15:38:21,3,distance,cathedral,numerosity_judgement,1,41,3,countries_forward,"['_Tonga_', '_Sudan_', '_Cuba_']","['m', 'm', 'm']","['p229', 'p256', 'p318']","[0, 3, 2]","[84.40078082039426, 89.14911522239515, 87.57049330475357]",2.0,False,3.6666666666666665,1.5275252316519468,5.063398122787476,0.8129043241402792
0,,sub_113,2024-07-17 15:38:25,3,distance,cathedral,numerosity_judgement,1,42,5,countries_forward,"['_Japan_', '_Congo_', '_Syria_', '_Oman_', '_Britain_']","['f', 'f', 'f', 'm', 'f']","['p284', 'p248', 'p268', 'p318', 'p245']","[6, 9, 2, 1, 8]","[91.58892582949886, 92.00610777531934, 87.57049330475357, 86.2038576498559, 92.0152836843556]",3.0,False,7.2,3.5637059362410923,2.1246957778930664,0.9527635909658382
0,,sub_113,2024-07-17 15:38:27,3,distance,cathedral,numerosity_judgement,1,43,2,countries_forward,"['_Britain_', '_Yemen_']","['m', 'm']","['p229', 'p256']","[6, 3]","[91.58892582949886, 89.14911522239515]",2.0,True,6.5,2.1213203435596424,1.4374008178710938,0.7906026557711952
0,,sub_113,2024-07-17 15:38:30,3,distance,cathedral,numerosity_judgement,1,44,4,countries_forward,"['_Tonga_', '_Sudan_', '_Belgium_', '_Togo_']","['f', 'm', 'f', 'f']","['p248', 'p318', 'p245', 'p284']","[9, 2, 8, 6]","[92.00610777531934, 87.57049330475357, 92.0152836843556, 91.58892582949886]",4.0,True,8.25,3.095695936834452,1.124922275543213,0.931290432414028
0,,sub_113,2024-07-17 15:38:33,3,distance,cathedral,numerosity_judgement,1,45,2,countries_forward,"['_Oman_', '_Mali_']","['m', 'm']","['p256', 'p307']","[3, 10]","[89.14911522239515, 93.00003341222717]",3.0,False,8.5,4.949747468305833,1.1210620403289795,0.6125524912041767
0,,sub_113,2024-07-17 15:38:37,3,distance,cathedral,numerosity_judgement,1,46,6,countries_forward,"['_Tonga_', '_Togo_', '_Cuba_', '_Belgium_', '_Oman_', '_Syria_']","['m', 'f', 'm', 'm', 'm', 'f']","['p229', 'p268', 'p318', 'p256', 'p307', 'p284']","[4, 2, 6, 5, 10, 7]","[89.31368318402099, 87.57049330475357, 91.58892582949886, 90.34149293193902, 93.00003341222717, 91.73820004985969]",5.0,False,7.666666666666667,2.7325202042558927,1.6873829364776611,0.8873680626489615
0,,sub_113,2024-07-17 15:38:41,3,distance,cathedral,numerosity_judgement,1,47,5,countries_forward,"['_Peru_', '_Oman_', '_Mali_', '_Congo_', '_Japan_']","['m', 'f', 'm', 'f', 'm']","['p318', 'p245', 'p307', 'p284', 'p256']","[7, 3, 4, 10, 5]","[91.73820004985969, 89.14911522239515, 89.31368318402099, 93.00003341222717, 90.34149293193902]",4.0,False,7.8,2.7748873851023212,2.2508580684661865,0.7862898649415503
0,,sub_113,2024-07-17 15:38:45,3,distance,cathedral,numerosity_judgement,1,48,3,countries_forward,"['_Congo_', '_Sudan_', '_Syria_']","['f', 'm', 'm']","['p284', 'p256', 'p318']","[3, 4, 0]","[89.14911522239515, 89.31368318402099, 84.40078082039426]",3.0,True,4.333333333333333,2.0816659994661326,2.2500381469726562,0.9484054023379866
0,,sub_113,2024-07-17 15:38:49,3,distance,cathedral,numerosity_judgement,1,49,4,countries_forward,"['_Belgium_', '_Syria_', '_Cuba_', '_Yemen_']","['f', 'f', 'f', 'm']","['p245', 'p248', 'p268', 'p229']","[8, 1, 5, 7]","[92.0152836843556, 86.2038576498559, 90.34149293193902, 91.73820004985969]",4.0,True,7.25,3.095695936834452,2.750661849975586,0.8191692202928158
0,,sub_113,2024-07-17 15:38:54,3,distance,cathedral,numerosity_judgement,1,50,3,countries_forward,"['_Oman_', '_Yemen_', '_Mali_']","['m', 'm', 'f']","['p229', 'p256', 'p245']","[6, 1, 0]","[91.58892582949886, 86.2038576498559, 84.40078082039426]",2.0,False,4.333333333333333,3.2145502536643185,3.0646700859069824,0.7943593235728067
0,,sub_113,2024-07-17 15:38:58,3,distance,cathedral,numerosity_judgement,1,51,2,countries_forward,"['_Belgium_', '_Yemen_']","['m', 'm']","['p256', 'p229']","[10, 6]","[93.00003341222717, 91.58892582949886]",3.0,False,10.0,2.8284271247461903,2.3748350143432617,0.8283963227783453
0,,sub_113,2024-07-17 15:39:01,3,distance,cathedral,numerosity_judgement,1,52,4,countries_forward,"['_Yemen_', '_Congo_', '_Tonga_', '_Cuba_']","['m', 'm', 'm', 'f']","['p229', 'p307', 'p256', 'p268']","[2, 10, 5, 9]","[87.57049330475357, 93.00003341222717, 90.34149293193902, 92.00610777531934]",4.0,True,8.5,3.696845502136472,1.4374003410339355,0.7087390761548065
0,,sub_113,2024-07-17 15:39:05,3,distance,cathedral,numerosity_judgement,1,53,5,countries_forward,"['_Cuba_', '_Mali_', '_Britain_', '_Japan_', '_Yemen_']","['f', 'm', 'm', 'f', 'm']","['p284', 'p256', 'p318', 'p248', 'p229']","[1, 9, 0, 4, 10]","[86.2038576498559, 92.00610777531934, 84.40078082039426, 89.31368318402099, 93.00003341222717]",3.0,False,6.8,4.54972526643093,2.1263315677642822,0.8604131199636817
0,,sub_113,2024-07-17 15:39:09,3,distance,cathedral,numerosity_judgement,1,54,6,countries_forward,"['_Yemen_', '_Cuba_', '_Belgium_', '_Peru_', '_Japan_', '_Britain_']","['f', 'f', 'f', 'm', 'm', 'm']","['p245', 'p284', 'p268', 'p229', 'p256', 'p307']","[1, 3, 9, 5, 6, 7]","[86.2038576498559, 89.14911522239515, 92.00610777531934, 90.34149293193902, 91.58892582949886, 91.73820004985969]",5.0,False,7.166666666666667,2.857738033247041,1.6883225440979004,0.844160708205652
0,,sub_113,2024-07-17 15:39:39,3,distance,cathedral,numerosity_judgement,1,55,5,countries_forward,"['_Togo_', '_Tonga_', '_Oman_', '_Belgium_', '_Peru_']","['m', 'f', 'm', 'f', 'f']","['p229', 'p268', 'p256', 'p248', 'p284']","[7, 2, 4, 6, 10]","[91.73820004985969, 87.57049330475357, 89.31368318402099, 91.58892582949886, 93.00003341222717]",5.0,True,7.8,3.03315017762062,27.93720555305481,0.8489842242651231
0,,sub_113,2024-07-17 15:39:44,3,distance,cathedral,numerosity_judgement,1,56,4,countries_forward,"['_Sudan_', '_Togo_', '_Britain_', '_Belgium_']","['m', 'f', 'm', 'f']","['p229', 'p284', 'p307', 'p268']","[0, 8, 5, 1]","[84.40078082039426, 92.0152836843556, 90.34149293193902, 86.2038576498559]",3.0,False,5.5,3.696845502136472,3.254086971282959,0.9596640562932698
0,,sub_113,2024-07-17 15:39:49,3,distance,cathedral,numerosity_judgement,1,57,6,countries_forward,"['_Peru_', '_Togo_', '_Mali_', '_Congo_', '_Tonga_', '_Yemen_']","['m', 'f', 'm', 'f', 'f', 'm']","['p229', 'p284', 'p256', 'p268', 'p245', 'p307']","[1, 6, 10, 9, 8, 4]","[86.2038576498559, 91.58892582949886, 93.00003341222717, 92.00610777531934, 92.0152836843556, 89.31368318402099]",4.0,False,8.333333333333334,3.3862466931200785,3.562157154083252,0.7975598683463851
0,,sub_113,2024-07-17 15:39:53,3,distance,cathedral,numerosity_judgement,1,58,2,countries_forward,"['_Yemen_', '_Japan_']","['f', 'm']","['p284', 'p318']","[2, 7]","[87.57049330475357, 91.73820004985969]",2.0,True,6.5,3.5355339059327378,2.1873483657836914,0.8758824197026445
0,,sub_113,2024-07-17 15:39:56,3,distance,cathedral,numerosity_judgement,1,59,3,countries_forward,"['_Britain_', '_Mali_', '_Yemen_']","['f', 'f', 'm']","['p248', 'p284', 'p229']","[7, 1, 0]","[91.73820004985969, 86.2038576498559, 84.40078082039426]",3.0,True,4.666666666666667,3.7859388972001824,1.437401533126831,0.9271819316763136
0,,sub_113,2024-07-17 15:40:01,3,distance,cathedral,numerosity_judgement,1,60,5,countries_forward,"['_Oman_', '_Cuba_', '_Togo_', '_Yemen_', '_Congo_']","['f', 'f', 'm', 'm', 'm']","['p284', 'p268', 'p307', 'p256', 'p318']","[1, 10, 4, 3, 7]","[86.2038576498559, 93.00003341222717, 89.31368318402099, 89.14911522239515, 91.73820004985969]",3.0,False,7.0,3.5355339059327378,3.047461748123169,0.6794347974123255
0,,sub_113,2024-07-17 15:40:05,3,distance,cathedral,numerosity_judgement,1,61,3,countries_forward,"['_Oman_', '_Yemen_', '_Britain_']","['f', 'f', 'm']","['p245', 'p268', 'p318']","[6, 10, 5]","[91.58892582949886, 93.00003341222717, 90.34149293193902]",4.0,False,9.0,2.6457513110645907,2.9385058879852295,0.6508001361933946
0,,sub_113,2024-07-17 15:40:09,3,distance,cathedral,numerosity_judgement,1,62,4,countries_forward,"['_Togo_', '_Belgium_', '_Japan_', '_Yemen_']","['m', 'm', 'm', 'f']","['p229', 'p318', 'p307', 'p268']","[5, 8, 9, 2]","[90.34149293193902, 92.0152836843556, 92.00610777531934, 87.57049330475357]",3.0,False,8.0,3.1622776601683795,1.5618155002593994,0.8605039155600953
0,,sub_113,2024-07-17 15:40:12,3,distance,cathedral,numerosity_judgement,1,63,6,countries_forward,"['_Britain_', '_Yemen_', '_Peru_', '_Togo_', '_Congo_', '_Tonga_']","['m', 'f', 'f', 'm', 'f', 'f']","['p256', 'p245', 'p284', 'p307', 'p248', 'p268']","[2, 10, 1, 3, 8, 4]","[87.57049330475357, 93.00003341222717, 86.2038576498559, 89.14911522239515, 92.0152836843556, 89.31368318402099]",4.0,False,6.666666666666667,3.559026084010437,1.8123750686645508,0.8205538531381228
0,,sub_113,2024-07-17 15:40:15,3,distance,cathedral,numerosity_judgement,1,64,2,countries_forward,"['_Peru_', '_Cuba_']","['m', 'f']","['p307', 'p245']","[0, 5]","[84.40078082039426, 90.34149293193902]",2.0,True,4.5,3.5355339059327378,1.119769811630249,0.7241175802973556
0,,sub_113,2024-07-17 15:40:19,3,distance,cathedral,numerosity_judgement,1,65,4,countries_forward,"['_Tonga_', '_Peru_', '_Oman_', '_Britain_']","['f', 'f', 'm', 'f']","['p245', 'p248', 'p256', 'p268']","[7, 0, 9, 2]","[91.73820004985969, 84.40078082039426, 92.00610777531934, 87.57049330475357]",3.0,False,6.5,4.203173404306164,2.4227752685546875,0.6797185336511179
0,,sub_113,2024-07-17 15:40:22,3,distance,cathedral,numerosity_judgement,1,66,3,countries_forward,"['_Oman_', '_Britain_', '_Yemen_']","['m', 'm', 'f']","['p229', 'p256', 'p248']","[7, 8, 3]","[91.73820004985969, 92.0152836843556, 89.14911522239515]",4.0,False,8.0,2.6457513110645907,1.4374268054962158,0.616956077630235
0,,sub_113,2024-07-17 15:40:26,3,distance,cathedral,numerosity_judgement,1,67,5,countries_forward,"['_Mali_', '_Cuba_', '_Yemen_', '_Tonga_', '_Peru_']","['m', 'f', 'f', 'm', 'f']","['p318', 'p245', 'p284', 'p229', 'p268']","[6, 5, 4, 1, 7]","[91.58892582949886, 90.34149293193902, 89.31368318402099, 86.2038576498559, 91.73820004985969]",3.0,False,6.6,2.3021728866442674,2.062356472015381,0.7294745204857565
0,,sub_113,2024-07-17 15:40:29,3,distance,cathedral,numerosity_judgement,1,68,2,countries_forward,"['_Cuba_', '_Tonga_']","['m', 'f']","['p229', 'p248']","[7, 5]","[91.73820004985969, 90.34149293193902]",2.0,True,8.0,1.4142135623730951,1.1845927238464355,0.7132221087277267
0,,sub_113,2024-07-17 15:40:33,3,distance,cathedral,numerosity_judgement,1,69,6,countries_forward,"['_Mali_', '_Sudan_', '_Syria_', '_Cuba_', '_Peru_', '_Belgium_']","['f', 'm', 'm', 'm', 'f', 'f']","['p245', 'p318', 'p307', 'p256', 'p284', 'p248']","[3, 10, 7, 1, 8, 9]","[89.14911522239515, 93.00003341222717, 91.73820004985969, 86.2038576498559, 92.0152836843556, 92.00610777531934]",4.0,False,8.333333333333334,3.559026084010437,2.2495155334472656,0.904562478719782
0,,sub_113,2024-07-17 15:40:36,3,distance,cathedral,numerosity_judgement,1,70,4,countries_forward,"['_Oman_', '_Congo_', '_Mali_', '_Belgium_']","['m', 'm', 'f', 'm']","['p307', 'p318', 'p248', 'p229']","[5, 2, 4, 8]","[90.34149293193902, 87.57049330475357, 89.31368318402099, 92.0152836843556]",2.0,False,6.75,2.5,1.249912977218628,0.8069572125751902
0,,sub_113,2024-07-17 15:40:40,3,distance,cathedral,numerosity_judgement,1,71,3,countries_forward,"['_Oman_', '_Japan_', '_Belgium_']","['m', 'm', 'm']","['p256', 'p229', 'p318']","[4, 2, 1]","[89.31368318402099, 87.57049330475357, 86.2038576498559]",2.0,False,4.333333333333333,1.5275252316519465,2.249497652053833,0.8746793780501646
0,,sub_113,2024-07-17 15:40:44,3,distance,cathedral,numerosity_judgement,1,72,5,countries_forward,"['_Togo_', '_Oman_', '_Cuba_', '_Japan_', '_Syria_']","['f', 'f', 'm', 'm', 'f']","['p284', 'p245', 'p318', 'p229', 'p248']","[9, 8, 5, 1, 6]","[92.00610777531934, 92.0152836843556, 90.34149293193902, 86.2038576498559, 91.58892582949886]",4.0,False,7.8,3.1144823004794877,1.8146376609802246,0.8726932243786176
0,,sub_113,2024-07-17 15:40:47,3,distance,cathedral,numerosity_judgement,1,73,2,countries_forward,"['_Mali_', '_Oman_']","['m', 'm']","['p307', 'p256']","[5, 7]","[90.34149293193902, 91.73820004985969]",3.0,False,8.0,1.4142135623730951,1.6248869895935059,0.5621949835432981
0,,sub_113,2024-07-17 15:40:51,3,distance,cathedral,numerosity_judgement,1,74,6,countries_forward,"['_Mali_', '_Britain_', '_Yemen_', '_Oman_', '_Cuba_', '_Tonga_']","['f', 'f', 'f', 'f', 'm', 'm']","['p248', 'p268', 'p284', 'p245', 'p307', 'p229']","[9, 7, 8, 6, 4, 5]","[92.00610777531934, 91.73820004985969, 92.0152836843556, 91.58892582949886, 89.31368318402099, 90.34149293193902]",3.0,False,8.5,1.8708286933869707,2.31434965133667,0.7638406537282941
0,,sub_113,2024-07-17 15:42:09,3,distance,cathedral,numerosity_judgement,2,0,3,countries_forward,"['_Congo_', '_Cuba_', '_Sudan_']","['f', 'f', 'm']","['p268', 'p284', 'p256']","[9, 5, 10]","[92.00610777531934, 90.34149293193902, 93.00003341222717]",2.0,False,10.0,2.6457513110645907,3.8737826347351074,0.8389513108614233
0,,sub_113,2024-07-17 15:42:13,3,distance,cathedral,numerosity_judgement,2,1,4,countries_forward,"['_Mali_', '_Belgium_', '_Togo_', '_Peru_']","['f', 'm', 'f', 'm']","['p284', 'p318', 'p268', 'p256']","[0, 10, 8, 1]","[84.40078082039426, 93.00003341222717, 92.0152836843556, 86.2038576498559]",3.0,False,6.75,4.9916597106239795,2.4373319149017334,0.9119169220292817
0,,sub_113,2024-07-17 15:42:17,3,distance,cathedral,numerosity_judgement,2,2,6,countries_forward,"['_Oman_', '_Peru_', '_Britain_', '_Mali_', '_Tonga_', '_Yemen_']","['f', 'f', 'm', 'm', 'm', 'f']","['p268', 'p284', 'p229', 'p256', 'p307', 'p248']","[2, 8, 10, 5, 9, 4]","[87.57049330475357, 92.0152836843556, 93.00003341222717, 90.34149293193902, 92.00610777531934, 89.31368318402099]",4.0,False,8.333333333333334,3.141125063837266,1.6248672008514404,0.7859720803541028
0,,sub_113,2024-07-17 15:42:21,3,distance,cathedral,numerosity_judgement,2,3,5,countries_forward,"['_Togo_', '_Oman_', '_Yemen_', '_Britain_', '_Tonga_']","['f', 'm', 'm', 'f', 'm']","['p245', 'p256', 'p307', 'p248', 'p318']","[2, 6, 8, 1, 0]","[87.57049330475357, 91.58892582949886, 92.0152836843556, 86.2038576498559, 84.40078082039426]",3.0,False,5.4,3.4351128074635335,2.4986484050750732,0.7287254568153445
0,,sub_113,2024-07-17 15:42:25,3,distance,cathedral,numerosity_judgement,2,4,2,countries_forward,"['_Syria_', '_Peru_']","['f', 'm']","['p268', 'p318']","[0, 8]","[84.40078082039426, 92.0152836843556]",2.0,True,6.0,5.656854249492381,2.250974416732788,0.9310293950743388
0,,sub_113,2024-07-17 15:42:30,3,distance,cathedral,numerosity_judgement,2,5,4,countries_forward,"['_Peru_', '_Yemen_', '_Tonga_', '_Japan_']","['m', 'm', 'm', 'f']","['p256', 'p318', 'p229', 'p245']","[5, 4, 0, 8]","[90.34149293193902, 89.31368318402099, 84.40078082039426, 92.0152836843556]",2.0,False,6.25,3.304037933599835,2.937185049057007,0.8606060606060606
0,,sub_113,2024-07-17 15:42:33,3,distance,cathedral,numerosity_judgement,2,6,5,countries_forward,"['_Britain_', '_Belgium_', '_Oman_', '_Sudan_', '_Syria_']","['f', 'm', 'm', 'f', 'm']","['p284', 'p307', 'p256', 'p248', 'p229']","[0, 5, 8, 2, 9]","[84.40078082039426, 90.34149293193902, 92.0152836843556, 87.57049330475357, 92.00610777531934]",3.0,False,6.8,3.8340579025361627,1.8748693466186523,0.8803881511746681
0,,sub_113,2024-07-17 15:42:37,3,distance,cathedral,numerosity_judgement,2,7,6,countries_forward,"['_Congo_', '_Japan_', '_Belgium_', '_Cuba_', '_Togo_', '_Peru_']","['f', 'f', 'm', 'f', 'm', 'f']","['p248', 'p268', 'p229', 'p284', 'p256', 'p245']","[1, 5, 10, 6, 0, 3]","[86.2038576498559, 90.34149293193902, 93.00003341222717, 91.58892582949886, 84.40078082039426, 89.14911522239515]",4.0,False,6.166666666666667,3.65604522218567,1.687382459640503,0.8930087390761549
0,,sub_113,2024-07-17 15:42:41,3,distance,cathedral,numerosity_judgement,2,8,3,countries_forward,"['_Oman_', '_Cuba_', '_Congo_']","['m', 'm', 'm']","['p256', 'p318', 'p229']","[5, 0, 6]","[90.34149293193902, 84.40078082039426, 91.58892582949886]",3.0,True,5.666666666666667,3.2145502536643185,2.2994110584259033,0.6797752808988764
0,,sub_113,2024-07-17 15:42:44,3,distance,cathedral,numerosity_judgement,2,9,2,countries_forward,"['_Oman_', '_Sudan_']","['m', 'f']","['p256', 'p248']","[4, 3]","[89.31368318402099, 89.14911522239515]",2.0,True,5.5,0.7071067811865476,1.4408576488494873,0.8527862898649415
0,,sub_113,2024-07-17 15:42:47,3,distance,cathedral,numerosity_judgement,2,10,3,countries_forward,"['_Mali_', '_Congo_', '_Peru_']","['m', 'm', 'f']","['p256', 'p229', 'p268']","[0, 3, 6]","[84.40078082039426, 89.14911522239515, 91.58892582949886]",3.0,True,5.0,3.0,1.9373655319213867,0.7265577119509704
0,,sub_113,2024-07-17 15:42:51,3,distance,cathedral,numerosity_judgement,2,11,6,countries_forward,"['_Oman_', '_Cuba_', '_Peru_', '_Tonga_', '_Congo_', '_Yemen_']","['f', 'm', 'm', 'm', 'm', 'f']","['p268', 'p318', 'p256', 'p229', 'p307', 'p284']","[6, 7, 10, 4, 3, 0]","[91.58892582949886, 91.73820004985969, 93.00003341222717, 89.31368318402099, 89.14911522239515, 84.40078082039426]",4.0,False,7.0,3.4641016151377544,1.4373979568481445,0.7936329588014981
0,,sub_113,2024-07-17 15:42:56,3,distance,cathedral,numerosity_judgement,2,12,5,countries_forward,"['_Togo_', '_Tonga_', '_Sudan_', '_Mali_', '_Cuba_']","['m', 'f', 'm', 'm', 'f']","['p229', 'p248', 'p318', 'p256', 'p245']","[5, 6, 9, 10, 3]","[90.34149293193902, 91.58892582949886, 92.00610777531934, 93.00003341222717, 89.14911522239515]",4.0,False,8.6,2.8809720581775866,2.9363973140716553,0.8343774826920894
0,,sub_113,2024-07-17 15:42:58,3,distance,cathedral,numerosity_judgement,2,13,2,countries_forward,"['_Britain_', '_Yemen_']","['f', 'm']","['p248', 'p256']","[2, 6]","[87.57049330475357, 91.58892582949886]",2.0,True,6.0,2.8284271247461903,1.1873888969421387,0.7034388832141641
0,,sub_113,2024-07-17 15:43:02,3,distance,cathedral,numerosity_judgement,2,14,4,countries_forward,"['_Oman_', '_Mali_', '_Yemen_', '_Britain_']","['f', 'f', 'm', 'f']","['p248', 'p268', 'p256', 'p245']","[3, 6, 9, 7]","[89.14911522239515, 91.58892582949886, 92.00610777531934, 91.73820004985969]",3.0,False,8.25,2.5,1.624887466430664,0.6700034048348655
0,,sub_113,2024-07-17 15:43:06,3,distance,cathedral,numerosity_judgement,2,15,6,countries_forward,"['_Mali_', '_Britain_', '_Tonga_', '_Belgium_', '_Japan_', '_Oman_']","['m', 'f', 'm', 'f', 'm', 'f']","['p256', 'p268', 'p307', 'p245', 'p318', 'p248']","[9, 10, 2, 8, 1, 3]","[92.00610777531934, 93.00003341222717, 87.57049330475357, 92.0152836843556, 86.2038576498559, 89.14911522239515]",4.0,False,7.5,3.9370039370059056,2.062791109085083,0.8512427647259108
0,,sub_113,2024-07-17 15:43:09,3,distance,cathedral,numerosity_judgement,2,16,3,countries_forward,"['_Peru_', '_Togo_', '_Oman_']","['m', 'f', 'm']","['p307', 'p248', 'p229']","[10, 5, 6]","[93.00003341222717, 90.34149293193902, 91.58892582949886]",3.0,True,9.0,2.6457513110645907,1.7493667602539062,0.6995346725683804
0,,sub_113,2024-07-17 15:43:12,3,distance,cathedral,numerosity_judgement,2,17,2,countries_forward,"['_Yemen_', '_Cuba_']","['m', 'f']","['p318', 'p268']","[7, 6]","[91.73820004985969, 91.58892582949886]",2.0,True,8.5,0.7071067811865476,1.687382459640503,0.6559981840880718
0,,sub_113,2024-07-17 15:43:16,3,distance,cathedral,numerosity_judgement,2,18,5,countries_forward,"['_Mali_', '_Sudan_', '_Congo_', '_Togo_', '_Belgium_']","['m', 'm', 'f', 'm', 'm']","['p256', 'p229', 'p284', 'p318', 'p307']","[1, 9, 4, 5, 0]","[86.2038576498559, 92.00610777531934, 89.31368318402099, 90.34149293193902, 84.40078082039426]",5.0,True,5.8,3.5637059362410923,1.8150553703308105,0.9642719328112588
0,,sub_113,2024-07-17 15:43:20,3,distance,cathedral,numerosity_judgement,2,19,4,countries_forward,"['_Britain_', '_Peru_', '_Syria_', '_Congo_']","['f', 'f', 'm', 'm']","['p284', 'p245', 'p229', 'p256']","[2, 7, 5, 10]","[87.57049330475357, 91.73820004985969, 90.34149293193902, 93.00003341222717]",5.0,False,8.0,3.366501646120693,1.6250624656677246,0.888400862558166
0,,sub_113,2024-07-17 15:43:24,3,distance,cathedral,numerosity_judgement,2,20,5,countries_forward,"['_Mali_', '_Cuba_', '_Tonga_', '_Belgium_', '_Yemen_']","['m', 'f', 'f', 'm', 'f']","['p307', 'p268', 'p245', 'p229', 'p284']","[4, 6, 3, 7, 2]","[89.31368318402099, 91.58892582949886, 89.14911522239515, 91.73820004985969, 87.57049330475357]",5.0,True,6.4,2.073644135332772,2.6253302097320557,0.705799568720917
0,,sub_113,2024-07-17 15:43:28,3,distance,cathedral,numerosity_judgement,2,21,3,countries_forward,"['_Oman_', '_Yemen_', '_Mali_']","['m', 'f', 'm']","['p318', 'p248', 'p307']","[8, 7, 1]","[92.0152836843556, 91.73820004985969, 86.2038576498559]",3.0,True,7.333333333333333,3.7859388972001824,2.3123390674591064,0.635103847463398
0,,sub_113,2024-07-17 15:43:31,3,distance,cathedral,numerosity_judgement,2,22,2,countries_forward,"['_Oman_', '_Yemen_']","['m', 'm']","['p229', 'p256']","[3, 6]","[89.14911522239515, 91.58892582949886]",2.0,True,6.5,2.1213203435596424,1.3749053478240967,0.5410623084780388
0,,sub_113,2024-07-17 15:43:33,3,distance,cathedral,numerosity_judgement,2,23,6,countries_forward,"['_Mali_', '_Peru_', '_Togo_', '_Sudan_', '_Syria_', '_Congo_']","['m', 'f', 'm', 'm', 'f', 'f']","['p318', 'p248', 'p256', 'p229', 'p284', 'p245']","[1, 4, 0, 2, 10, 5]","[86.2038576498559, 89.31368318402099, 84.40078082039426, 87.57049330475357, 93.00003341222717, 90.34149293193902]",2.0,False,5.666666666666667,3.6147844564602556,0.06249570846557617,0.9625241175802972
0,,sub_113,2024-07-17 15:43:37,3,distance,cathedral,numerosity_judgement,2,24,4,countries_forward,"['_Togo_', '_Britain_', '_Mali_', '_Cuba_']","['f', 'm', 'f', 'm']","['p245', 'p256', 'p284', 'p307']","[6, 0, 8, 7]","[91.58892582949886, 84.40078082039426, 92.0152836843556, 91.73820004985969]",3.0,False,7.25,3.593976442141304,2.1248526573181152,0.6877085461355125
0,,sub_113,2024-07-17 15:43:40,3,distance,cathedral,numerosity_judgement,2,25,2,countries_forward,"['_Togo_', '_Tonga_']","['m', 'f']","['p318', 'p284']","[4, 5]","[89.31368318402099, 90.34149293193902]",2.0,True,6.5,0.7071067811865476,1.9382591247558594,0.8769379185109523
0,,sub_113,2024-07-17 15:43:46,3,distance,cathedral,numerosity_judgement,2,26,4,countries_forward,"['_Japan_', '_Peru_', '_Tonga_', '_Britain_']","['m', 'f', 'm', 'f']","['p256', 'p248', 'p318', 'p245']","[8, 10, 7, 1]","[92.0152836843556, 93.00003341222717, 91.73820004985969, 86.2038576498559]",4.0,True,8.5,3.872983346207417,3.7510461807250977,0.7794347974123255
0,,sub_113,2024-07-17 15:43:50,3,distance,cathedral,numerosity_judgement,2,27,3,countries_forward,"['_Japan_', '_Mali_', '_Togo_']","['m', 'm', 'f']","['p229', 'p256', 'p248']","[2, 6, 7]","[87.57049330475357, 91.58892582949886, 91.73820004985969]",3.0,True,7.0,2.6457513110645907,3.3124217987060547,0.8879014867778913
0,,sub_113,2024-07-17 15:44:00,3,distance,cathedral,numerosity_judgement,2,28,6,countries_forward,"['_Mali_', '_Tonga_', '_Syria_', '_Yemen_', '_Oman_', '_Britain_']","['f', 'f', 'm', 'm', 'm', 'm']","['p268', 'p248', 'p256', 'p318', 'p229', 'p307']","[2, 9, 5, 6, 8, 7]","[87.57049330475357, 92.00610777531934, 90.34149293193902, 91.58892582949886, 92.0152836843556, 91.73820004985969]",4.0,False,8.166666666666666,2.48327740429189,7.501130104064941,0.7663602315287709
0,,sub_113,2024-07-17 15:44:04,3,distance,cathedral,numerosity_judgement,2,29,5,countries_forward,"['_Peru_', '_Congo_', '_Cuba_', '_Japan_', '_Belgium_']","['m', 'f', 'f', 'm', 'f']","['p229', 'p248', 'p245', 'p318', 'p284']","[1, 7, 0, 10, 6]","[86.2038576498559, 91.73820004985969, 84.40078082039426, 93.00003341222717, 91.58892582949886]",3.0,False,6.8,4.207136793592526,1.6244735717773438,0.9163999546022018
0,,sub_113,2024-07-17 15:44:08,3,distance,cathedral,numerosity_judgement,2,30,4,countries_forward,"['_Britain_', '_Tonga_', '_Japan_', '_Oman_']","['f', 'f', 'm', 'm']","['p248', 'p245', 'p229', 'p256']","[3, 4, 0, 5]","[89.14911522239515, 89.31368318402099, 84.40078082039426, 90.34149293193902]",4.0,True,5.0,2.160246899469287,2.4998273849487305,0.7376007263647714
0,,sub_113,2024-07-17 15:44:12,3,distance,cathedral,numerosity_judgement,2,31,5,countries_forward,"['_Yemen_', '_Oman_', '_Sudan_', '_Cuba_', '_Congo_']","['f', 'm', 'f', 'm', 'm']","['p268', 'p256', 'p248', 'p307', 'p229']","[10, 9, 0, 5, 2]","[93.00003341222717, 92.00610777531934, 84.40078082039426, 90.34149293193902, 87.57049330475357]",4.0,False,7.2,4.324349662087931,1.9373679161071777,0.6902962206332993
0,,sub_113,2024-07-17 15:44:15,3,distance,cathedral,numerosity_judgement,2,32,2,countries_forward,"['_Oman_', '_Syria_']","['m', 'm']","['p229', 'p256']","[3, 0]","[89.14911522239515, 84.40078082039426]",2.0,True,3.5,2.1213203435596424,2.3117733001708984,0.8294745204857564
0,,sub_113,2024-07-17 15:44:19,3,distance,cathedral,numerosity_judgement,2,33,3,countries_forward,"['_Sudan_', '_Togo_', '_Britain_']","['f', 'f', 'm']","['p268', 'p245', 'p256']","[5, 9, 0]","[90.34149293193902, 92.00610777531934, 84.40078082039426]",3.0,True,6.666666666666667,4.509249752822894,1.4998600482940674,0.9450913630688912
0,,sub_113,2024-07-17 15:44:22,3,distance,cathedral,numerosity_judgement,2,34,6,countries_forward,"['_Japan_', '_Cuba_', '_Congo_', '_Tonga_', '_Britain_', '_Yemen_']","['f', 'm', 'm', 'f', 'm', 'm']","['p284', 'p256', 'p229', 'p268', 'p307', 'p318']","[9, 3, 4, 7, 10, 2]","[92.00610777531934, 89.14911522239515, 89.31368318402099, 91.73820004985969, 93.00003341222717, 87.57049330475357]",4.0,False,7.833333333333333,3.3115957885386114,1.562391757965088,0.917818635796164
0,,sub_113,2024-07-17 15:44:26,3,distance,cathedral,numerosity_judgement,2,35,3,countries_forward,"['_Japan_', '_Peru_', '_Yemen_']","['m', 'm', 'f']","['p256', 'p229', 'p245']","[10, 1, 7]","[93.00003341222717, 86.2038576498559, 91.73820004985969]",5.0,False,8.0,4.58257569495584,2.623258113861084,0.7865736011803428
0,,sub_113,2024-07-17 15:44:33,3,distance,cathedral,numerosity_judgement,2,36,2,countries_forward,"['_Cuba_', '_Tonga_']","['m', 'm']","['p307', 'p256']","[7, 2]","[91.73820004985969, 87.57049330475357]",3.0,False,6.5,3.5355339059327378,5.376068353652954,0.6708773124503462
0,,sub_113,2024-07-17 15:44:37,3,distance,cathedral,numerosity_judgement,2,37,4,countries_forward,"['_Tonga_', '_Peru_', '_Congo_', '_Japan_']","['f', 'f', 'f', 'm']","['p284', 'p245', 'p268', 'p256']","[6, 10, 3, 7]","[91.58892582949886, 93.00003341222717, 89.14911522239515, 91.73820004985969]",4.0,True,8.5,2.886751345948129,1.9373657703399658,0.7926342072409488
0,,sub_113,2024-07-17 15:44:42,3,distance,cathedral,numerosity_judgement,2,38,5,countries_forward,"['_Peru_', '_Congo_', '_Syria_', '_Sudan_', '_Tonga_']","['m', 'm', 'm', 'f', 'f']","['p318', 'p229', 'p256', 'p268', 'p245']","[0, 4, 1, 5, 2]","[84.40078082039426, 89.31368318402099, 86.2038576498559, 90.34149293193902, 87.57049330475357]",5.0,True,4.4,2.073644135332772,2.873785972595215,0.9498581318806038
0,,sub_113,2024-07-17 15:44:48,3,distance,cathedral,numerosity_judgement,2,39,6,countries_forward,"['_Tonga_', '_Belgium_', '_Oman_', '_Cuba_', '_Sudan_', '_Britain_']","['f', 'f', 'm', 'f', 'f', 'm']","['p268', 'p245', 'p229', 'p248', 'p284', 'p307']","[10, 8, 9, 6, 2, 0]","[93.00003341222717, 92.0152836843556, 92.00610777531934, 91.58892582949886, 87.57049330475357, 84.40078082039426]",3.0,False,7.833333333333333,4.02077936060494,4.046326160430908,0.8997162637612076
0,,sub_113,2024-07-17 15:44:51,3,distance,cathedral,numerosity_judgement,2,40,2,countries_forward,"['_Cuba_', '_Japan_']","['m', 'm']","['p307', 'p229']","[5, 1]","[90.34149293193902, 86.2038576498559]",2.0,True,5.0,2.8284271247461903,2.1184613704681396,0.7341391442515038
0,,sub_113,2024-07-17 15:44:55,3,distance,cathedral,numerosity_judgement,2,41,5,countries_forward,"['_Sudan_', '_Syria_', '_Togo_', '_Cuba_', '_Britain_']","['m', 'm', 'f', 'f', 'm']","['p307', 'p256', 'p245', 'p268', 'p229']","[9, 10, 2, 5, 3]","[92.00610777531934, 93.00003341222717, 87.57049330475357, 90.34149293193902, 89.14911522239515]",3.0,False,7.8,3.5637059362410923,2.1249818801879883,0.8011689933038247
0,,sub_113,2024-07-17 15:45:00,3,distance,cathedral,numerosity_judgement,2,42,3,countries_forward,"['_Togo_', '_Tonga_', '_Britain_']","['f', 'm', 'm']","['p248', 'p229', 'p256']","[0, 2, 5]","[84.40078082039426, 87.57049330475357, 90.34149293193902]",3.0,True,4.333333333333333,2.516611478423583,2.827667236328125,0.8574168652820339
0,,sub_113,2024-07-17 15:45:06,3,distance,cathedral,numerosity_judgement,2,43,6,countries_forward,"['_Peru_', '_Oman_', '_Tonga_', '_Yemen_', '_Togo_', '_Syria_']","['m', 'f', 'f', 'f', 'm', 'f']","['p229', 'p245', 'p284', 'p248', 'p307', 'p268']","[0, 2, 1, 10, 5, 4]","[84.40078082039426, 87.57049330475357, 86.2038576498559, 93.00003341222717, 90.34149293193902, 89.31368318402099]",4.0,False,5.666666666666667,3.6147844564602556,4.690568447113037,0.8048462149585746
0,,sub_113,2024-07-17 15:45:11,3,distance,cathedral,numerosity_judgement,2,44,4,countries_forward,"['_Tonga_', '_Cuba_', '_Mali_', '_Yemen_']","['f', 'm', 'f', 'm']","['p284', 'p229', 'p248', 'p307']","[10, 2, 0, 6]","[93.00003341222717, 87.57049330475357, 84.40078082039426, 91.58892582949886]",3.0,False,6.5,4.43471156521669,3.248558282852173,0.8295880149812734
0,,sub_113,2024-07-17 15:45:16,3,distance,cathedral,numerosity_judgement,2,45,6,countries_forward,"['_Sudan_', '_Belgium_', '_Togo_', '_Tonga_', '_Britain_', '_Cuba_']","['f', 'm', 'm', 'f', 'f', 'm']","['p248', 'p318', 'p307', 'p268', 'p284', 'p256']","[7, 9, 3, 1, 4, 5]","[91.73820004985969, 92.00610777531934, 89.14911522239515, 86.2038576498559, 89.31368318402099, 90.34149293193902]",3.0,False,6.833333333333333,2.857738033247041,3.0014169216156006,0.9337305640676428
0,,sub_113,2024-07-17 15:45:20,3,distance,cathedral,numerosity_judgement,2,46,4,countries_forward,"['_Japan_', '_Britain_', '_Mali_', '_Togo_']","['f', 'm', 'f', 'f']","['p284', 'p318', 'p268', 'p248']","[9, 6, 7, 10]","[92.00610777531934, 91.58892582949886, 91.73820004985969, 93.00003341222717]",4.0,True,10.0,1.8257418583505538,1.7492280006408691,0.9468391782998524
0,,sub_113,2024-07-17 15:45:26,3,distance,cathedral,numerosity_judgement,2,47,2,countries_forward,"['_Yemen_', '_Britain_']","['f', 'f']","['p245', 'p248']","[10, 8]","[93.00003341222717, 92.0152836843556]",3.0,False,11.0,1.4142135623730951,4.438262224197388,0.7586539552831688
0,,sub_113,2024-07-17 15:45:29,3,distance,cathedral,numerosity_judgement,2,48,3,countries_forward,"['_Yemen_', '_Congo_', '_Belgium_']","['f', 'm', 'm']","['p284', 'p256', 'p307']","[9, 5, 2]","[92.00610777531934, 90.34149293193902, 87.57049330475357]",3.0,True,7.333333333333333,3.5118845842842465,2.1862404346466064,0.8282828282828283
0,,sub_113,2024-07-17 15:45:38,3,distance,cathedral,numerosity_judgement,2,49,5,countries_forward,"['_Syria_', '_Yemen_', '_Cuba_', '_Oman_', '_Togo_']","['f', 'f', 'm', 'f', 'm']","['p268', 'p245', 'p318', 'p248', 'p307']","[0, 7, 6, 10, 5]","[84.40078082039426, 91.73820004985969, 91.58892582949886, 93.00003341222717, 90.34149293193902]",4.0,False,7.6,3.646916505762094,6.8150224685668945,0.8268868459879696
0,,sub_113,2024-07-17 15:45:43,3,distance,cathedral,numerosity_judgement,2,50,2,countries_forward,"['_Belgium_', '_Sudan_']","['f', 'f']","['p248', 'p268']","[1, 5]","[86.2038576498559, 90.34149293193902]",2.0,True,5.0,2.8284271247461903,3.0622878074645996,0.9631256384065372
0,,sub_113,2024-07-17 15:45:48,3,distance,cathedral,numerosity_judgement,2,51,5,countries_forward,"['_Peru_', '_Cuba_', '_Britain_', '_Congo_', '_Yemen_']","['f', 'f', 'm', 'f', 'm']","['p284', 'p245', 'p318', 'p248', 'p229']","[1, 6, 7, 3, 2]","[86.2038576498559, 91.58892582949886, 91.73820004985969, 89.14911522239515, 87.57049330475357]",3.0,False,5.8,2.588435821108957,3.4998226165771484,0.8573033707865169
0,,sub_113,2024-07-17 15:45:54,3,distance,cathedral,numerosity_judgement,2,52,4,countries_forward,"['_Yemen_', '_Oman_', '_Tonga_', '_Peru_']","['f', 'm', 'f', 'm']","['p268', 'p229', 'p245', 'p307']","[7, 2, 4, 10]","[91.73820004985969, 87.57049330475357, 89.31368318402099, 93.00003341222717]",3.0,False,7.75,3.5,3.687243700027466,0.7081148564294631
0,,sub_113,2024-07-17 15:45:58,3,distance,cathedral,numerosity_judgement,2,53,6,countries_forward,"['_Yemen_', '_Tonga_', '_Mali_', '_Cuba_', '_Togo_', '_Congo_']","['m', 'f', 'f', 'm', 'm', 'f']","['p318', 'p268', 'p248', 'p307', 'p256', 'p245']","[5, 3, 10, 7, 2, 4]","[90.34149293193902, 89.14911522239515, 93.00003341222717, 91.73820004985969, 87.57049330475357, 89.31368318402099]",4.0,False,7.166666666666667,2.9268868558020253,2.812305212020874,0.6946544092611509
0,,sub_113,2024-07-17 15:46:03,3,distance,cathedral,numerosity_judgement,2,54,3,countries_forward,"['_Sudan_', '_Yemen_', '_Togo_']","['m', 'f', 'f']","['p307', 'p248', 'p284']","[5, 7, 4]","[90.34149293193902, 91.73820004985969, 89.31368318402099]",3.0,True,7.333333333333333,1.5275252316519465,3.187213659286499,0.7573828169333787
0,,sub_113,2024-07-17 15:46:07,3,distance,cathedral,numerosity_judgement,2,55,5,countries_forward,"['_Cuba_', '_Britain_', '_Congo_', '_Yemen_', '_Sudan_']","['f', 'm', 'f', 'm', 'm']","['p268', 'p256', 'p248', 'p229', 'p307']","[4, 8, 5, 9, 2]","[89.31368318402099, 92.0152836843556, 90.34149293193902, 92.00610777531934, 87.57049330475357]",4.0,False,7.6,2.8809720581775866,2.124880790710449,0.7549994325275224
0,,sub_113,2024-07-17 15:46:11,3,distance,cathedral,numerosity_judgement,2,56,2,countries_forward,"['_Yemen_', '_Oman_']","['m', 'm']","['p307', 'p256']","[7, 10]","[91.73820004985969, 93.00003341222717]",2.0,True,10.5,2.1213203435596424,1.9386296272277832,0.610327999092044
0,,sub_113,2024-07-17 15:46:16,3,distance,cathedral,numerosity_judgement,2,57,6,countries_forward,"['_Sudan_', '_Tonga_', '_Peru_', '_Japan_', '_Cuba_', '_Congo_']","['m', 'f', 'f', 'f', 'f', 'm']","['p318', 'p284', 'p245', 'p268', 'p248', 'p256']","[2, 1, 10, 9, 7, 3]","[87.57049330475357, 86.2038576498559, 93.00003341222717, 92.00610777531934, 91.73820004985969, 89.14911522239515]",3.0,False,7.333333333333333,3.8297084310253524,3.4997432231903076,0.8389172625127681
0,,sub_113,2024-07-17 15:46:22,3,distance,cathedral,numerosity_judgement,2,58,3,countries_forward,"['_Yemen_', '_Sudan_', '_Syria_']","['m', 'f', 'f']","['p318', 'p284', 'p268']","[0, 9, 8]","[84.40078082039426, 92.00610777531934, 92.0152836843556]",4.0,False,7.666666666666667,4.932882862316247,4.250428199768066,0.9577913971172398
0,,sub_113,2024-07-17 15:46:28,3,distance,cathedral,numerosity_judgement,2,59,4,countries_forward,"['_Tonga_', '_Mali_', '_Japan_', '_Peru_']","['f', 'm', 'f', 'f']","['p268', 'p318', 'p248', 'p245']","[9, 5, 10, 4]","[92.00610777531934, 90.34149293193902, 93.00003341222717, 89.31368318402099]",4.0,True,9.0,2.943920288775949,3.9998841285705566,0.957223924639655
0,,sub_113,2024-07-17 15:46:33,3,distance,cathedral,numerosity_judgement,2,60,3,countries_forward,"['_Congo_', '_Togo_', '_Belgium_']","['m', 'm', 'm']","['p318', 'p229', 'p307']","[6, 4, 7]","[91.58892582949886, 89.31368318402099, 91.73820004985969]",3.0,True,7.666666666666667,1.5275252316519465,3.6241018772125244,0.9113267506525934
0,,sub_113,2024-07-17 15:46:36,3,distance,cathedral,numerosity_judgement,2,61,2,countries_forward,"['_Yemen_', '_Oman_']","['f', 'm']","['p248', 'p307']","[7, 9]","[91.73820004985969, 92.00610777531934]",2.0,True,10.0,1.4142135623730951,1.748898983001709,0.5863920099875156
0,,sub_113,2024-07-17 15:46:40,3,distance,cathedral,numerosity_judgement,2,62,6,countries_forward,"['_Congo_', '_Cuba_', '_Tonga_', '_Britain_', '_Peru_', '_Mali_']","['m', 'm', 'f', 'f', 'm', 'm']","['p229', 'p307', 'p248', 'p268', 'p318', 'p256']","[5, 7, 4, 8, 0, 1]","[90.34149293193902, 91.73820004985969, 89.31368318402099, 92.0152836843556, 84.40078082039426, 86.2038576498559]",4.0,False,6.166666666666667,3.188521078284832,1.9372448921203613,0.7363863352627398
0,,sub_113,2024-07-17 15:46:45,3,distance,cathedral,numerosity_judgement,2,63,5,countries_forward,"['_Syria_', '_Oman_', '_Japan_', '_Cuba_', '_Tonga_']","['f', 'm', 'f', 'm', 'f']","['p245', 'p256', 'p248', 'p307', 'p284']","[0, 5, 3, 7, 1]","[84.40078082039426, 90.34149293193902, 89.14911522239515, 91.73820004985969, 86.2038576498559]",3.0,False,5.2,2.863564212655271,3.1869232654571533,0.7791397117239813
0,,sub_113,2024-07-17 15:46:49,3,distance,cathedral,numerosity_judgement,2,64,4,countries_forward,"['_Congo_', '_Britain_', '_Oman_', '_Mali_']","['f', 'm', 'f', 'm']","['p248', 'p318', 'p245', 'p307']","[1, 5, 4, 7]","[86.2038576498559, 90.34149293193902, 89.31368318402099, 91.73820004985969]",4.0,True,6.25,2.5,1.6248869895935059,0.7512314152763591
0,,sub_113,2024-07-17 15:46:51,3,distance,cathedral,numerosity_judgement,2,65,2,countries_forward,"['_Togo_', '_Congo_']","['m', 'f']","['p307', 'p284']","[1, 2]","[86.2038576498559, 87.57049330475357]",2.0,True,3.5,0.7071067811865476,1.3749034404754639,0.9002837362387924
0,,sub_113,2024-07-17 15:46:56,3,distance,cathedral,numerosity_judgement,2,66,3,countries_forward,"['_Oman_', '_Cuba_', '_Japan_']","['m', 'f', 'm']","['p229', 'p245', 'p318']","[0, 5, 3]","[84.40078082039426, 90.34149293193902, 89.14911522239515]",2.0,False,4.666666666666667,2.516611478423583,3.0619966983795166,0.7593008739076155
0,,sub_113,2024-07-17 15:47:00,3,distance,cathedral,numerosity_judgement,2,67,5,countries_forward,"['_Mali_', '_Syria_', '_Togo_', '_Britain_', '_Tonga_']","['f', 'f', 'f', 'm', 'f']","['p245', 'p248', 'p284', 'p318', 'p268']","[10, 0, 9, 1, 5]","[93.00003341222717, 84.40078082039426, 92.00610777531934, 86.2038576498559, 90.34149293193902]",3.0,False,7.0,4.527692569068709,2.1258158683776855,0.9070593576211554
0,,sub_113,2024-07-17 15:47:06,3,distance,cathedral,numerosity_judgement,2,68,4,countries_forward,"['_Cuba_', '_Yemen_', '_Congo_', '_Oman_']","['m', 'f', 'f', 'f']","['p307', 'p268', 'p245', 'p248']","[7, 8, 4, 3]","[91.73820004985969, 92.0152836843556, 89.31368318402099, 89.14911522239515]",3.0,False,7.5,2.3804761428476167,4.249772548675537,0.629043241402792
0,,sub_113,2024-07-17 15:47:11,3,distance,cathedral,numerosity_judgement,2,69,6,countries_forward,"['_Cuba_', '_Congo_', '_Togo_', '_Yemen_', '_Mali_', '_Peru_']","['m', 'f', 'f', 'f', 'm', 'f']","['p307', 'p245', 'p268', 'p248', 'p256', 'p284']","[4, 2, 10, 3, 6, 8]","[89.31368318402099, 87.57049330475357, 93.00003341222717, 89.14911522239515, 91.58892582949886, 92.0152836843556]",4.0,False,7.5,3.082207001484488,3.1882054805755615,0.721632050845534
0,,sub_113,2024-07-17 15:47:18,3,distance,cathedral,numerosity_judgement,2,70,2,countries_forward,"['_Yemen_', '_Togo_']","['f', 'f']","['p245', 'p268']","[3, 9]","[89.14911522239515, 92.00610777531934]",3.0,False,8.0,4.242640687119285,4.859276294708252,0.777698331630916
0,,sub_113,2024-07-17 15:47:20,3,distance,cathedral,numerosity_judgement,2,71,3,countries_forward,"['_Congo_', '_Oman_', '_Yemen_']","['f', 'm', 'f']","['p268', 'p307', 'p245']","[3, 4, 6]","[89.14911522239515, 89.31368318402099, 91.58892582949886]",2.0,False,6.333333333333333,1.5275252316519465,1.3125202655792236,0.6248439450686641
0,,sub_113,2024-07-17 15:47:24,3,distance,cathedral,numerosity_judgement,2,72,5,countries_forward,"['_Mali_', '_Congo_', '_Togo_', '_Cuba_', '_Oman_']","['f', 'f', 'm', 'f', 'm']","['p268', 'p248', 'p256', 'p284', 'p229']","[1, 10, 0, 6, 3]","[86.2038576498559, 93.00003341222717, 84.40078082039426, 91.58892582949886, 89.14911522239515]",4.0,False,6.0,4.06201920231798,1.437398910522461,0.7709454091476563
0,,sub_113,2024-07-17 15:47:28,3,distance,cathedral,numerosity_judgement,2,73,6,countries_forward,"['_Britain_', '_Syria_', '_Tonga_', '_Peru_', '_Congo_', '_Oman_']","['m', 'f', 'm', 'm', 'm', 'f']","['p307', 'p248', 'p318', 'p229', 'p256', 'p268']","[9, 8, 6, 0, 3, 5]","[92.00610777531934, 92.0152836843556, 91.58892582949886, 84.40078082039426, 89.14911522239515, 90.34149293193902]",3.0,False,7.166666666666667,3.3115957885386114,1.7498493194580078,0.8712291453864488
0,,sub_113,2024-07-17 15:47:32,3,distance,cathedral,numerosity_judgement,2,74,4,countries_forward,"['_Britain_', '_Sudan_', '_Peru_', '_Oman_']","['m', 'm', 'f', 'f']","['p256', 'p318', 'p245', 'p284']","[10, 4, 0, 7]","[93.00003341222717, 89.31368318402099, 84.40078082039426, 91.73820004985969]",3.0,False,7.25,4.272001872658765,2.622131586074829,0.8613437748269209
0,,sub_113,2024-07-17 15:48:51,3,distance,cathedral,numerosity_judgement,3,0,3,countries_reversed,"['_Cuba_reversed', '_Togo_reversed', '_Yemen_reversed']","['f', 'm', 'f']","['p268', 'p318', 'p284']","[1, 0, 7]","[86.2038576498559, 84.40078082039426, 91.73820004985969]",3.0,True,4.666666666666667,3.7859388972001824,3.126927375793457,0.8261718306662127
0,,sub_113,2024-07-17 15:48:55,3,distance,cathedral,numerosity_judgement,3,1,2,countries_reversed,"['_Cuba_reversed', '_Britain_reversed']","['f', 'm']","['p248', 'p256']","[8, 10]","[92.0152836843556, 93.00003341222717]",3.0,False,11.0,1.4142135623730951,3.2498326301574707,0.5812280104414936
0,,sub_113,2024-07-17 15:48:58,3,distance,cathedral,numerosity_judgement,3,2,4,countries_reversed,"['_Oman_reversed', '_Syria_reversed', '_Peru_reversed', '_Togo_reversed']","['m', 'f', 'm', 'f']","['p229', 'p245', 'p318', 'p248']","[2, 4, 10, 7]","[87.57049330475357, 89.31368318402099, 93.00003341222717, 91.73820004985969]",4.0,True,7.75,3.5,1.49989652633667,0.8858245375099307
0,,sub_113,2024-07-17 15:49:01,3,distance,cathedral,numerosity_judgement,3,3,6,countries_reversed,"['_Syria_reversed', '_Britain_reversed', '_Cuba_reversed', '_Belgium_reversed', '_Congo_reversed', '_Oman_reversed']","['m', 'm', 'm', 'f', 'f', 'm']","['p318', 'p229', 'p256', 'p284', 'p245', 'p307']","[5, 8, 9, 2, 4, 3]","[90.34149293193902, 92.0152836843556, 92.00610777531934, 87.57049330475357, 89.31368318402099, 89.14911522239515]",5.0,False,7.166666666666667,2.786873995477131,1.6265819072723389,0.8527068437180797
0,,sub_113,2024-07-17 15:49:08,3,distance,cathedral,numerosity_judgement,3,4,5,countries_reversed,"['_Sudan_reversed', '_Tonga_reversed', '_Cuba_reversed', '_Yemen_reversed', '_Syria_reversed']","['m', 'm', 'f', 'f', 'm']","['p318', 'p229', 'p284', 'p245', 'p307']","[1, 4, 5, 0, 2]","[86.2038576498559, 89.31368318402099, 90.34149293193902, 84.40078082039426, 87.57049330475357]",4.0,False,4.4,2.073644135332772,6.311869144439697,0.8924980138463284
0,,sub_113,2024-07-17 15:49:12,3,distance,cathedral,numerosity_judgement,3,5,3,countries_reversed,"['_Belgium_reversed', '_Mali_reversed', '_Japan_reversed']","['f', 'f', 'f']","['p248', 'p284', 'p268']","[8, 0, 10]","[92.0152836843556, 84.40078082039426, 93.00003341222717]",3.0,True,8.0,5.291502622129181,2.615351915359497,0.939518783339008
0,,sub_113,2024-07-17 15:49:16,3,distance,cathedral,numerosity_judgement,3,6,6,countries_reversed,"['_Congo_reversed', '_Yemen_reversed', '_Britain_reversed', '_Cuba_reversed', '_Belgium_reversed', '_Japan_reversed']","['f', 'm', 'm', 'f', 'f', 'm']","['p245', 'p307', 'p256', 'p248', 'p284', 'p318']","[1, 8, 4, 9, 3, 7]","[86.2038576498559, 92.0152836843556, 89.31368318402099, 92.00610777531934, 89.14911522239515, 91.73820004985969]",4.0,False,7.333333333333333,3.141125063837266,2.374769449234009,0.8082283509249801
0,,sub_113,2024-07-17 15:49:19,3,distance,cathedral,numerosity_judgement,3,7,4,countries_reversed,"['_Tonga_reversed', '_Togo_reversed', '_Syria_reversed', '_Belgium_reversed']","['m', 'f', 'f', 'm']","['p318', 'p245', 'p284', 'p256']","[5, 8, 0, 9]","[90.34149293193902, 92.0152836843556, 84.40078082039426, 92.00610777531934]",5.0,False,7.5,4.041451884327381,1.687382459640503,0.8018953580751333
0,,sub_113,2024-07-17 15:49:21,3,distance,cathedral,numerosity_judgement,3,8,2,countries_reversed,"['_Mali_reversed', '_Syria_reversed']","['f', 'f']","['p284', 'p245']","[7, 3]","[91.73820004985969, 89.14911522239515]",2.0,True,7.0,2.8284271247461903,1.2499139308929443,0.916172965611168
0,,sub_113,2024-07-17 15:49:25,3,distance,cathedral,numerosity_judgement,3,9,5,countries_reversed,"['_Britain_reversed', '_Yemen_reversed', '_Tonga_reversed', '_Togo_reversed', '_Japan_reversed']","['f', 'm', 'm', 'f', 'm']","['p284', 'p256', 'p229', 'p245', 'p307']","[7, 6, 8, 3, 1]","[91.73820004985969, 91.58892582949886, 92.0152836843556, 89.14911522239515, 86.2038576498559]",4.0,False,7.0,2.9154759474226504,2.437333345413208,0.7179207808421292
0,,sub_113,2024-07-17 15:49:28,3,distance,cathedral,numerosity_judgement,3,10,6,countries_reversed,"['_Peru_reversed', '_Mali_reversed', '_Syria_reversed', '_Togo_reversed', '_Oman_reversed', '_Sudan_reversed']","['f', 'm', 'm', 'f', 'm', 'f']","['p248', 'p229', 'p318', 'p284', 'p256', 'p268']","[6, 2, 7, 9, 0, 8]","[91.58892582949886, 87.57049330475357, 91.73820004985969, 92.00610777531934, 84.40078082039426, 92.0152836843556]",3.0,False,7.333333333333333,3.559026084010437,1.9373934268951416,0.9394166382930428
0,,sub_113,2024-07-17 15:49:32,3,distance,cathedral,numerosity_judgement,3,11,4,countries_reversed,"['_Yemen_reversed', '_Sudan_reversed', '_Japan_reversed', '_Britain_reversed']","['m', 'f', 'm', 'f']","['p307', 'p268', 'p318', 'p248']","[0, 9, 6, 4]","[84.40078082039426, 92.00610777531934, 91.58892582949886, 89.31368318402099]",3.0,False,6.75,3.774917217635375,2.562607526779175,0.9494836000453978
0,,sub_113,2024-07-17 15:49:35,3,distance,cathedral,numerosity_judgement,3,12,5,countries_reversed,"['_Yemen_reversed', '_Mali_reversed', '_Belgium_reversed', '_Togo_reversed', '_Peru_reversed']","['f', 'm', 'm', 'f', 'f']","['p268', 'p256', 'p307', 'p245', 'p248']","[10, 7, 2, 6, 5]","[93.00003341222717, 91.73820004985969, 87.57049330475357, 91.58892582949886, 90.34149293193902]",4.0,False,8.0,2.9154759474226504,1.3128411769866943,0.8189081829531267
0,,sub_113,2024-07-17 15:49:37,3,distance,cathedral,numerosity_judgement,3,13,2,countries_reversed,"['_Mali_reversed', '_Oman_reversed']","['f', 'f']","['p245', 'p268']","[10, 2]","[93.00003341222717, 87.57049330475357]",2.0,True,8.0,5.656854249492381,1.249912977218628,0.757371467483827
0,,sub_113,2024-07-17 15:49:41,3,distance,cathedral,numerosity_judgement,3,14,3,countries_reversed,"['_Britain_reversed', '_Oman_reversed', '_Congo_reversed']","['m', 'm', 'm']","['p229', 'p256', 'p307']","[10, 7, 8]","[93.00003341222717, 91.73820004985969, 92.0152836843556]",3.0,True,10.333333333333334,1.5275252316519468,2.251223087310791,0.6780955623652253
0,,sub_113,2024-07-17 15:49:45,3,distance,cathedral,numerosity_judgement,3,15,6,countries_reversed,"['_Peru_reversed', '_Togo_reversed', '_Japan_reversed', '_Yemen_reversed', '_Cuba_reversed', '_Britain_reversed']","['f', 'm', 'f', 'f', 'm', 'm']","['p284', 'p307', 'p268', 'p248', 'p318', 'p229']","[7, 10, 3, 5, 8, 0]","[91.73820004985969, 93.00003341222717, 89.14911522239515, 90.34149293193902, 92.0152836843556, 84.40078082039426]",3.0,False,7.5,3.6193922141707713,3.0630979537963867,0.8707070707070707
0,,sub_113,2024-07-17 15:49:48,3,distance,cathedral,numerosity_judgement,3,16,4,countries_reversed,"['_Cuba_reversed', '_Sudan_reversed', '_Japan_reversed', '_Tonga_reversed']","['m', 'f', 'f', 'f']","['p307', 'p284', 'p245', 'p248']","[4, 8, 1, 9]","[89.31368318402099, 92.0152836843556, 86.2038576498559, 92.00610777531934]",4.0,True,7.5,3.696845502136472,1.3749101161956787,0.9256497559868346
0,,sub_113,2024-07-17 15:49:54,3,distance,cathedral,numerosity_judgement,3,17,2,countries_reversed,"['_Cuba_reversed', '_Britain_reversed']","['f', 'm']","['p248', 'p307']","[8, 4]","[92.0152836843556, 89.31368318402099]",3.0,False,8.0,2.8284271247461903,4.74948263168335,0.6924866643967768
0,,sub_113,2024-07-17 15:49:59,3,distance,cathedral,numerosity_judgement,3,18,3,countries_reversed,"['_Cuba_reversed', '_Tonga_reversed', '_Oman_reversed']","['m', 'f', 'f']","['p307', 'p284', 'p245']","[7, 9, 5]","[91.73820004985969, 92.00610777531934, 90.34149293193902]",3.0,True,9.0,2.0,4.248024225234985,0.5873453637498581
0,,sub_113,2024-07-17 15:50:02,3,distance,cathedral,numerosity_judgement,3,19,5,countries_reversed,"['_Yemen_reversed', '_Cuba_reversed', '_Peru_reversed', '_Congo_reversed', '_Togo_reversed']","['f', 'f', 'f', 'm', 'm']","['p245', 'p284', 'p268', 'p307', 'p229']","[8, 3, 2, 5, 7]","[92.0152836843556, 89.14911522239515, 87.57049330475357, 90.34149293193902, 91.73820004985969]",4.0,False,7.0,2.5495097567963922,1.249912977218628,0.7745999319033027
0,,sub_113,2024-07-17 15:50:06,3,distance,cathedral,numerosity_judgement,3,20,6,countries_reversed,"['_Mali_reversed', '_Tonga_reversed', '_Togo_reversed', '_Oman_reversed', '_Belgium_reversed', '_Yemen_reversed']","['f', 'f', 'm', 'f', 'm', 'm']","['p245', 'p284', 'p256', 'p268', 'p229', 'p307']","[0, 7, 4, 6, 2, 9]","[84.40078082039426, 91.73820004985969, 89.31368318402099, 91.58892582949886, 87.57049330475357, 92.00610777531934]",5.0,False,6.666666666666667,3.32665998663324,2.438359022140503,0.9010327999092044
0,,sub_113,2024-07-17 15:50:10,3,distance,cathedral,numerosity_judgement,3,21,3,countries_reversed,"['_Cuba_reversed', '_Mali_reversed', '_Peru_reversed']","['f', 'm', 'f']","['p245', 'p307', 'p248']","[3, 4, 5]","[89.14911522239515, 89.31368318402099, 90.34149293193902]",3.0,True,6.0,1.0,3.311748743057251,0.6981386902735217
0,,sub_113,2024-07-17 15:50:13,3,distance,cathedral,numerosity_judgement,3,22,5,countries_reversed,"['_Britain_reversed', '_Oman_reversed', '_Cuba_reversed', '_Congo_reversed', '_Peru_reversed']","['f', 'f', 'f', 'm', 'm']","['p245', 'p268', 'p248', 'p307', 'p256']","[3, 9, 10, 5, 4]","[89.14911522239515, 92.00610777531934, 93.00003341222717, 90.34149293193902, 89.31368318402099]",4.0,False,8.2,3.1144823004794873,1.4998955726623535,0.6833163091590058
0,,sub_113,2024-07-17 15:50:16,3,distance,cathedral,numerosity_judgement,3,23,2,countries_reversed,"['_Sudan_reversed', '_Tonga_reversed']","['f', 'f']","['p248', 'p284']","[7, 4]","[91.73820004985969, 89.31368318402099]",2.0,True,7.5,2.1213203435596424,1.5007359981536865,0.8836113948473499
0,,sub_113,2024-07-17 15:50:19,3,distance,cathedral,numerosity_judgement,3,24,4,countries_reversed,"['_Peru_reversed', '_Yemen_reversed', '_Togo_reversed', '_Cuba_reversed']","['m', 'f', 'm', 'f']","['p229', 'p248', 'p318', 'p245']","[2, 10, 0, 5]","[87.57049330475357, 93.00003341222717, 84.40078082039426, 90.34149293193902]",3.0,False,6.25,4.349329450233296,1.749878168106079,0.6749290659403019
0,,sub_113,2024-07-17 15:50:21,3,distance,cathedral,numerosity_judgement,3,25,3,countries_reversed,"['_Oman_reversed', '_Sudan_reversed', '_Tonga_reversed']","['f', 'f', 'f']","['p245', 'p268', 'p284']","[7, 9, 8]","[91.73820004985969, 92.00610777531934, 92.0152836843556]",4.0,False,10.0,1.0,1.5032134056091309,0.9036885711043016
0,,sub_113,2024-07-17 15:50:27,3,distance,cathedral,numerosity_judgement,3,26,6,countries_reversed,"['_Tonga_reversed', '_Japan_reversed', '_Oman_reversed', '_Mali_reversed', '_Congo_reversed', '_Cuba_reversed']","['f', 'f', 'f', 'f', 'm', 'm']","['p268', 'p248', 'p284', 'p245', 'p318', 'p307']","[6, 10, 2, 5, 1, 7]","[91.58892582949886, 93.00003341222717, 87.57049330475357, 90.34149293193902, 86.2038576498559, 91.73820004985969]",3.0,False,7.166666666666667,3.3115957885386114,4.499178647994995,0.6877879922823743
0,,sub_113,2024-07-17 15:50:31,3,distance,cathedral,numerosity_judgement,3,27,4,countries_reversed,"['_Britain_reversed', '_Mali_reversed', '_Tonga_reversed', '_Syria_reversed']","['f', 'm', 'f', 'm']","['p284', 'p307', 'p268', 'p318']","[5, 3, 1, 4]","[90.34149293193902, 89.14911522239515, 86.2038576498559, 89.31368318402099]",4.0,True,5.25,1.707825127659933,2.297668218612671,0.9025990239473386
0,,sub_113,2024-07-17 15:50:34,3,distance,cathedral,numerosity_judgement,3,28,5,countries_reversed,"['_Britain_reversed', '_Mali_reversed', '_Yemen_reversed', '_Congo_reversed', '_Peru_reversed']","['f', 'm', 'f', 'm', 'f']","['p245', 'p307', 'p248', 'p229', 'p268']","[4, 10, 6, 1, 2]","[89.31368318402099, 93.00003341222717, 91.58892582949886, 86.2038576498559, 87.57049330475357]",4.0,False,6.6,3.5777087639996634,2.31207537651062,0.7427987742594484
0,,sub_113,2024-07-17 15:50:37,3,distance,cathedral,numerosity_judgement,3,29,2,countries_reversed,"['_Oman_reversed', '_Cuba_reversed']","['f', 'f']","['p245', 'p268']","[5, 2]","[90.34149293193902, 87.57049330475357]",2.0,True,5.5,2.1213203435596424,1.6873841285705566,0.6371921461809102
0,,sub_113,2024-07-17 15:50:41,3,distance,cathedral,numerosity_judgement,3,30,3,countries_reversed,"['_Cuba_reversed', '_Sudan_reversed', '_Togo_reversed']","['f', 'm', 'm']","['p245', 'p256', 'p307']","[8, 7, 5]","[92.0152836843556, 91.73820004985969, 90.34149293193902]",3.0,True,8.666666666666666,1.5275252316519468,2.2516207695007324,0.7717625695153785
0,,sub_113,2024-07-17 15:50:44,3,distance,cathedral,numerosity_judgement,3,31,2,countries_reversed,"['_Cuba_reversed', '_Sudan_reversed']","['m', 'm']","['p256', 'p318']","[6, 1]","[91.58892582949886, 86.2038576498559]",3.0,False,5.5,3.5355339059327378,2.435190200805664,0.9308818522301668
0,,sub_113,2024-07-17 15:50:52,3,distance,cathedral,numerosity_judgement,3,32,6,countries_reversed,"['_Syria_reversed', '_Yemen_reversed', '_Sudan_reversed', '_Mali_reversed', '_Oman_reversed', '_Peru_reversed']","['m', 'm', 'f', 'm', 'f', 'f']","['p229', 'p256', 'p248', 'p318', 'p245', 'p268']","[2, 7, 9, 8, 5, 6]","[87.57049330475357, 91.73820004985969, 92.00610777531934, 92.0152836843556, 90.34149293193902, 91.58892582949886]",5.0,False,8.166666666666666,2.48327740429189,5.93851375579834,0.7433321983883782
0,,sub_113,2024-07-17 15:50:55,3,distance,cathedral,numerosity_judgement,3,33,5,countries_reversed,"['_Congo_reversed', '_Peru_reversed', '_Britain_reversed', '_Sudan_reversed', '_Belgium_reversed']","['m', 'f', 'f', 'm', 'm']","['p229', 'p284', 'p268', 'p318', 'p307']","[7, 9, 6, 1, 0]","[91.73820004985969, 92.00610777531934, 91.58892582949886, 86.2038576498559, 84.40078082039426]",4.0,False,6.6,3.9115214431215892,2.3119964599609375,0.9487004880263308
0,,sub_113,2024-07-17 15:50:59,3,distance,cathedral,numerosity_judgement,3,34,4,countries_reversed,"['_Mali_reversed', '_Britain_reversed', '_Togo_reversed', '_Peru_reversed']","['m', 'm', 'm', 'f']","['p307', 'p256', 'p318', 'p245']","[8, 10, 6, 5]","[92.0152836843556, 93.00003341222717, 91.58892582949886, 90.34149293193902]",4.0,True,9.25,2.217355782608345,2.687311887741089,0.7044716831233685
0,,sub_113,2024-07-17 15:51:02,3,distance,cathedral,numerosity_judgement,3,35,2,countries_reversed,"['_Yemen_reversed', '_Cuba_reversed']","['f', 'm']","['p248', 'p307']","[9, 5]","[92.00610777531934, 90.34149293193902]",2.0,True,9.0,2.8284271247461903,1.999861240386963,0.5836227442969016
0,,sub_113,2024-07-17 15:51:06,3,distance,cathedral,numerosity_judgement,3,36,4,countries_reversed,"['_Congo_reversed', '_Sudan_reversed', '_Japan_reversed', '_Cuba_reversed']","['m', 'f', 'f', 'f']","['p256', 'p268', 'p284', 'p248']","[8, 7, 6, 0]","[92.0152836843556, 91.73820004985969, 91.58892582949886, 84.40078082039426]",4.0,True,7.25,3.593976442141304,1.8751373291015625,0.8466348882079219
0,,sub_113,2024-07-17 15:51:10,3,distance,cathedral,numerosity_judgement,3,37,6,countries_reversed,"['_Belgium_reversed', '_Mali_reversed', '_Britain_reversed', '_Cuba_reversed', '_Peru_reversed', '_Yemen_reversed']","['m', 'm', 'm', 'f', 'f', 'f']","['p307', 'p256', 'p318', 'p268', 'p245', 'p284']","[7, 5, 3, 1, 8, 9]","[91.73820004985969, 90.34149293193902, 89.14911522239515, 86.2038576498559, 92.0152836843556, 92.00610777531934]",5.0,False,7.5,3.082207001484488,2.876227378845215,0.7314266258086483
0,,sub_113,2024-07-17 15:51:17,3,distance,cathedral,numerosity_judgement,3,38,5,countries_reversed,"['_Cuba_reversed', '_Sudan_reversed', '_Britain_reversed', '_Oman_reversed', '_Syria_reversed']","['f', 'f', 'm', 'f', 'm']","['p248', 'p245', 'p229', 'p284', 'p256']","[10, 9, 2, 4, 8]","[93.00003341222717, 92.00610777531934, 87.57049330475357, 89.31368318402099, 92.0152836843556]",3.0,False,8.6,3.4351128074635335,5.751096963882446,0.8807853819089774
0,,sub_113,2024-07-17 15:51:20,3,distance,cathedral,numerosity_judgement,3,39,3,countries_reversed,"['_Yemen_reversed', '_Japan_reversed', '_Tonga_reversed']","['m', 'f', 'm']","['p229', 'p245', 'p318']","[2, 10, 6]","[87.57049330475357, 93.00003341222717, 91.58892582949886]",3.0,True,8.0,4.0,2.2493245601654053,0.8731358529111338
0,,sub_113,2024-07-17 15:51:23,3,distance,cathedral,numerosity_judgement,3,40,4,countries_reversed,"['_Oman_reversed', '_Yemen_reversed', '_Britain_reversed', '_Mali_reversed']","['m', 'm', 'm', 'm']","['p229', 'p318', 'p307', 'p256']","[5, 7, 9, 6]","[90.34149293193902, 91.73820004985969, 92.00610777531934, 91.58892582949886]",4.0,True,8.75,1.707825127659933,1.8123247623443604,0.6135966405629327
0,,sub_113,2024-07-17 15:51:27,3,distance,cathedral,numerosity_judgement,3,41,2,countries_reversed,"['_Tonga_reversed', '_Syria_reversed']","['m', 'm']","['p256', 'p229']","[3, 7]","[89.14911522239515, 91.73820004985969]",4.0,False,7.0,2.8284271247461903,2.8762195110321045,0.826308024060833
0,,sub_113,2024-07-17 15:51:32,3,distance,cathedral,numerosity_judgement,3,42,3,countries_reversed,"['_Yemen_reversed', '_Belgium_reversed', '_Oman_reversed']","['m', 'm', 'm']","['p307', 'p318', 'p229']","[8, 1, 5]","[92.0152836843556, 86.2038576498559, 90.34149293193902]",3.0,True,6.666666666666667,3.5118845842842465,3.250140428543091,0.7395868800363182
0,,sub_113,2024-07-17 15:51:38,3,distance,cathedral,numerosity_judgement,3,43,5,countries_reversed,"['_Britain_reversed', '_Cuba_reversed', '_Japan_reversed', '_Syria_reversed', '_Sudan_reversed']","['m', 'f', 'm', 'f', 'm']","['p229', 'p245', 'p318', 'p268', 'p256']","[8, 2, 6, 7, 0]","[92.0152836843556, 87.57049330475357, 91.58892582949886, 91.73820004985969, 84.40078082039426]",3.0,False,6.6,3.4351128074635335,4.625461578369141,0.9535807513335604
0,,sub_113,2024-07-17 15:51:41,3,distance,cathedral,numerosity_judgement,3,44,6,countries_reversed,"['_Japan_reversed', '_Tonga_reversed', '_Peru_reversed', '_Togo_reversed', '_Belgium_reversed', '_Mali_reversed']","['f', 'f', 'm', 'f', 'f', 'm']","['p248', 'p245', 'p229', 'p284', 'p268', 'p318']","[8, 2, 7, 5, 6, 4]","[92.0152836843556, 87.57049330475357, 91.73820004985969, 90.34149293193902, 91.58892582949886, 89.31368318402099]",5.0,False,7.333333333333333,2.160246899469287,1.5625076293945312,0.9240608330495972
0,,sub_113,2024-07-17 15:51:46,3,distance,cathedral,numerosity_judgement,3,45,5,countries_reversed,"['_Oman_reversed', '_Tonga_reversed', '_Cuba_reversed', '_Britain_reversed', '_Yemen_reversed']","['f', 'm', 'm', 'm', 'f']","['p284', 'p256', 'p229', 'p318', 'p245']","[7, 2, 5, 9, 1]","[91.73820004985969, 87.57049330475357, 90.34149293193902, 92.00610777531934, 86.2038576498559]",4.0,False,6.8,3.3466401061363023,3.938661575317383,0.789070480081716
0,,sub_113,2024-07-17 15:51:49,3,distance,cathedral,numerosity_judgement,3,46,3,countries_reversed,"['_Yemen_reversed', '_Peru_reversed', '_Cuba_reversed']","['m', 'm', 'f']","['p256', 'p229', 'p268']","[9, 3, 6]","[92.00610777531934, 89.14911522239515, 91.58892582949886]",3.0,True,8.0,3.0,1.8748700618743896,0.6228237430484621
0,,sub_113,2024-07-17 15:51:53,3,distance,cathedral,numerosity_judgement,3,47,2,countries_reversed,"['_Tonga_reversed', '_Cuba_reversed']","['f', 'f']","['p245', 'p248']","[9, 10]","[92.00610777531934, 93.00003341222717]",2.0,True,11.5,0.7071067811865476,2.5623862743377686,0.6613437748269209
0,,sub_113,2024-07-17 15:51:57,3,distance,cathedral,numerosity_judgement,3,48,6,countries_reversed,"['_Cuba_reversed', '_Sudan_reversed', '_Japan_reversed', '_Mali_reversed', '_Yemen_reversed', '_Peru_reversed']","['f', 'f', 'm', 'm', 'f', 'm']","['p284', 'p248', 'p256', 'p307', 'p245', 'p229']","[7, 3, 4, 6, 0, 1]","[91.73820004985969, 89.14911522239515, 89.31368318402099, 91.58892582949886, 84.40078082039426, 86.2038576498559]",3.0,False,5.5,2.7386127875258306,2.9383108615875244,0.8453297015094768
0,,sub_113,2024-07-17 15:52:01,3,distance,cathedral,numerosity_judgement,3,49,4,countries_reversed,"['_Tonga_reversed', '_Peru_reversed', '_Mali_reversed', '_Britain_reversed']","['m', 'm', 'f', 'f']","['p307', 'p229', 'p284', 'p245']","[0, 6, 9, 7]","[84.40078082039426, 91.58892582949886, 92.00610777531934, 91.73820004985969]",4.0,True,7.5,3.872983346207417,2.2498581409454346,0.861491317671093
0,,sub_113,2024-07-17 15:52:04,3,distance,cathedral,numerosity_judgement,3,50,6,countries_reversed,"['_Syria_reversed', '_Yemen_reversed', '_Cuba_reversed', '_Oman_reversed', '_Mali_reversed', '_Japan_reversed']","['m', 'm', 'f', 'f', 'f', 'm']","['p256', 'p318', 'p268', 'p248', 'p284', 'p229']","[4, 1, 3, 9, 2, 10]","[89.31368318402099, 86.2038576498559, 89.14911522239515, 92.00610777531934, 87.57049330475357, 93.00003341222717]",4.0,False,6.833333333333333,3.763863263545405,1.9998619556427002,0.7930995346725683
0,,sub_113,2024-07-17 15:52:09,3,distance,cathedral,numerosity_judgement,3,51,3,countries_reversed,"['_Togo_reversed', '_Yemen_reversed', '_Sudan_reversed']","['f', 'f', 'm']","['p268', 'p248', 'p307']","[3, 6, 4]","[89.14911522239515, 91.58892582949886, 89.31368318402099]",3.0,True,6.333333333333333,1.5275252316519465,3.3116490840911865,0.7112359550561798
0,,sub_113,2024-07-17 15:52:13,3,distance,cathedral,numerosity_judgement,3,52,4,countries_reversed,"['_Oman_reversed', '_Cuba_reversed', '_Tonga_reversed', '_Yemen_reversed']","['f', 'm', 'f', 'f']","['p248', 'p318', 'p268', 'p245']","[5, 7, 8, 9]","[90.34149293193902, 91.73820004985969, 92.0152836843556, 92.00610777531934]",4.0,True,9.25,1.707825127659933,2.751220941543579,0.7357961638860515
0,,sub_113,2024-07-17 15:52:17,3,distance,cathedral,numerosity_judgement,3,53,5,countries_reversed,"['_Peru_reversed', '_Cuba_reversed', '_Japan_reversed', '_Yemen_reversed', '_Sudan_reversed']","['f', 'f', 'f', 'm', 'm']","['p284', 'p268', 'p245', 'p318', 'p256']","[0, 6, 8, 10, 5]","[84.40078082039426, 91.58892582949886, 92.0152836843556, 93.00003341222717, 90.34149293193902]",4.0,False,7.8,3.7682887362833544,2.9391987323760986,0.7045170809215753
0,,sub_113,2024-07-17 15:52:20,3,distance,cathedral,numerosity_judgement,3,54,2,countries_reversed,"['_Japan_reversed', '_Peru_reversed']","['m', 'm']","['p256', 'p318']","[9, 4]","[92.00610777531934, 89.31368318402099]",2.0,True,8.5,3.5355339059327378,1.872790813446045,0.7872886165020997
0,,sub_113,2024-07-17 15:52:23,3,distance,cathedral,numerosity_judgement,3,55,5,countries_reversed,"['_Belgium_reversed', '_Britain_reversed', '_Cuba_reversed', '_Syria_reversed', '_Congo_reversed']","['f', 'm', 'f', 'f', 'm']","['p248', 'p307', 'p268', 'p245', 'p318']","[3, 0, 6, 9, 1]","[89.14911522239515, 84.40078082039426, 91.58892582949886, 92.00610777531934, 86.2038576498559]",5.0,True,5.8,3.7013511046643495,1.687354564666748,0.8581999773011009
0,,sub_113,2024-07-17 15:52:27,3,distance,cathedral,numerosity_judgement,3,56,6,countries_reversed,"['_Oman_reversed', '_Tonga_reversed', '_Peru_reversed', '_Cuba_reversed', '_Britain_reversed', '_Belgium_reversed']","['m', 'f', 'f', 'm', 'm', 'f']","['p229', 'p268', 'p245', 'p318', 'p256', 'p284']","[3, 10, 4, 6, 7, 0]","[89.14911522239515, 93.00003341222717, 89.31368318402099, 91.58892582949886, 91.73820004985969, 84.40078082039426]",3.0,False,7.0,3.4641016151377544,2.938603162765503,0.776756327318125
0,,sub_113,2024-07-17 15:52:31,3,distance,cathedral,numerosity_judgement,3,57,4,countries_reversed,"['_Togo_reversed', '_Oman_reversed', '_Yemen_reversed', '_Belgium_reversed']","['m', 'm', 'm', 'f']","['p256', 'p229', 'p318', 'p268']","[1, 9, 2, 5]","[86.2038576498559, 92.00610777531934, 87.57049330475357, 90.34149293193902]",4.0,True,6.25,3.593976442141304,2.93691349029541,0.8184201566224039
0,,sub_113,2024-07-17 15:52:34,3,distance,cathedral,numerosity_judgement,3,58,3,countries_reversed,"['_Peru_reversed', '_Tonga_reversed', '_Oman_reversed']","['m', 'm', 'f']","['p307', 'p256', 'p268']","[3, 0, 8]","[89.14911522239515, 84.40078082039426, 92.0152836843556]",3.0,True,5.666666666666667,4.041451884327381,1.8741140365600586,0.8086255816592895
0,,sub_113,2024-07-17 15:52:39,3,distance,cathedral,numerosity_judgement,3,59,2,countries_reversed,"['_Yemen_reversed', '_Syria_reversed']","['f', 'f']","['p284', 'p245']","[9, 6]","[92.00610777531934, 91.58892582949886]",3.0,False,9.5,2.1213203435596424,2.8123042583465576,0.7053228918397457
0,,sub_113,2024-07-17 15:52:42,3,distance,cathedral,numerosity_judgement,3,60,6,countries_reversed,"['_Sudan_reversed', '_Japan_reversed', '_Mali_reversed', '_Britain_reversed', '_Oman_reversed', '_Yemen_reversed']","['f', 'f', 'm', 'f', 'f', 'm']","['p268', 'p284', 'p307', 'p245', 'p248', 'p229']","[5, 3, 4, 1, 0, 2]","[90.34149293193902, 89.14911522239515, 89.31368318402099, 86.2038576498559, 84.40078082039426, 87.57049330475357]",4.0,False,4.5,1.8708286933869707,2.250417709350586,0.9480308705027806
0,,sub_113,2024-07-17 15:52:46,3,distance,cathedral,numerosity_judgement,3,61,2,countries_reversed,"['_Peru_reversed', '_Belgium_reversed']","['f', 'f']","['p245', 'p284']","[3, 2]","[89.14911522239515, 87.57049330475357]",3.0,False,4.5,0.7071067811865476,2.87459397315979,0.8595392123482011
0,,sub_113,2024-07-17 15:52:50,3,distance,cathedral,numerosity_judgement,3,62,5,countries_reversed,"['_Togo_reversed', '_Tonga_reversed', '_Oman_reversed', '_Mali_reversed', '_Yemen_reversed']","['f', 'm', 'm', 'm', 'f']","['p245', 'p256', 'p307', 'p318', 'p248']","[10, 3, 6, 9, 5]","[93.00003341222717, 89.14911522239515, 91.58892582949886, 92.00610777531934, 90.34149293193902]",5.0,True,8.6,2.8809720581775866,2.5600736141204834,0.6536828963795256
0,,sub_113,2024-07-17 15:52:54,3,distance,cathedral,numerosity_judgement,3,63,3,countries_reversed,"['_Cuba_reversed', '_Oman_reversed', '_Yemen_reversed']","['m', 'm', 'f']","['p307', 'p256', 'p284']","[7, 8, 10]","[91.73820004985969, 92.0152836843556, 93.00003341222717]",5.0,False,10.333333333333334,1.5275252316519468,2.6873133182525635,0.6293837248893429
0,,sub_113,2024-07-17 15:52:57,3,distance,cathedral,numerosity_judgement,3,64,4,countries_reversed,"['_Cuba_reversed', '_Sudan_reversed', '_Togo_reversed', '_Yemen_reversed']","['f', 'f', 'f', 'f']","['p268', 'p248', 'p245', 'p284']","[3, 0, 5, 2]","[89.14911522239515, 84.40078082039426, 90.34149293193902, 87.57049330475357]",4.0,True,4.5,2.0816659994661326,1.7537648677825928,0.7794688457609806
0,,sub_113,2024-07-17 15:53:02,3,distance,cathedral,numerosity_judgement,3,65,2,countries_reversed,"['_Syria_reversed', '_Oman_reversed']","['m', 'm']","['p307', 'p256']","[5, 7]","[90.34149293193902, 91.73820004985969]",2.0,True,8.0,1.4142135623730951,3.7516496181488037,0.7255930087390762
0,,sub_113,2024-07-17 15:53:05,3,distance,cathedral,numerosity_judgement,3,66,5,countries_reversed,"['_Togo_reversed', '_Tonga_reversed', '_Cuba_reversed', '_Sudan_reversed', '_Mali_reversed']","['f', 'm', 'm', 'm', 'f']","['p248', 'p229', 'p307', 'p256', 'p284']","[5, 0, 7, 1, 4]","[90.34149293193902, 84.40078082039426, 91.73820004985969, 86.2038576498559, 89.31368318402099]",4.0,False,5.4,2.8809720581775866,1.8752005100250244,0.8363068891158779
0,,sub_113,2024-07-17 15:53:09,3,distance,cathedral,numerosity_judgement,3,67,4,countries_reversed,"['_Britain_reversed', '_Congo_reversed', '_Oman_reversed', '_Mali_reversed']","['m', 'm', 'm', 'f']","['p318', 'p256', 'p307', 'p245']","[5, 8, 9, 7]","[90.34149293193902, 92.0152836843556, 92.00610777531934, 91.73820004985969]",4.0,True,9.25,1.707825127659933,2.7498087882995605,0.7122574055158325
0,,sub_113,2024-07-17 15:53:12,3,distance,cathedral,numerosity_judgement,3,68,6,countries_reversed,"['_Tonga_reversed', '_Britain_reversed', '_Yemen_reversed', '_Syria_reversed', '_Oman_reversed', '_Cuba_reversed']","['f', 'm', 'f', 'm', 'f', 'f']","['p248', 'p307', 'p284', 'p256', 'p245', 'p268']","[2, 6, 7, 8, 10, 3]","[87.57049330475357, 91.58892582949886, 91.73820004985969, 92.0152836843556, 93.00003341222717, 89.14911522239515]",5.0,False,8.0,3.03315017762062,1.7498786449432373,0.7033934854159574
0,,sub_113,2024-07-17 15:53:15,3,distance,cathedral,numerosity_judgement,3,69,3,countries_reversed,"['_Syria_reversed', '_Mali_reversed', '_Togo_reversed']","['m', 'm', 'm']","['p229', 'p307', 'p256']","[1, 0, 3]","[86.2038576498559, 84.40078082039426, 89.14911522239515]",3.0,True,3.3333333333333335,1.5275252316519468,1.7473251819610596,0.9547270457382816
0,,sub_113,2024-07-17 15:53:22,3,distance,cathedral,numerosity_judgement,3,70,6,countries_reversed,"['_Belgium_reversed', '_Yemen_reversed', '_Cuba_reversed', '_Tonga_reversed', '_Peru_reversed', '_Oman_reversed']","['f', 'm', 'm', 'f', 'm', 'm']","['p268', 'p318', 'p229', 'p245', 'p307', 'p256']","[5, 0, 3, 7, 1, 10]","[90.34149293193902, 84.40078082039426, 89.14911522239515, 91.73820004985969, 86.2038576498559, 93.00003341222717]",3.0,False,6.333333333333333,3.777124126457412,5.549479722976685,0.6814890477811826
0,,sub_113,2024-07-17 15:53:26,3,distance,cathedral,numerosity_judgement,3,71,2,countries_reversed,"['_Tonga_reversed', '_Syria_reversed']","['f', 'f']","['p268', 'p248']","[1, 2]","[86.2038576498559, 87.57049330475357]",2.0,True,3.5,0.7071067811865476,2.6239027976989746,0.9562705708773124
0,,sub_113,2024-07-17 15:53:29,3,distance,cathedral,numerosity_judgement,3,72,5,countries_reversed,"['_Belgium_reversed', '_Oman_reversed', '_Mali_reversed', '_Togo_reversed', '_Cuba_reversed']","['f', 'f', 'f', 'f', 'm']","['p245', 'p268', 'p284', 'p248', 'p256']","[2, 0, 8, 1, 5]","[87.57049330475357, 84.40078082039426, 92.0152836843556, 86.2038576498559, 90.34149293193902]",4.0,False,5.2,3.2710854467592254,1.9998457431793213,0.9211667234139144
0,,sub_113,2024-07-17 15:53:32,3,distance,cathedral,numerosity_judgement,3,73,4,countries_reversed,"['_Peru_reversed', '_Yemen_reversed', '_Britain_reversed', '_Congo_reversed']","['m', 'm', 'f', 'm']","['p307', 'p229', 'p245', 'p256']","[3, 6, 8, 2]","[89.14911522239515, 91.58892582949886, 92.0152836843556, 87.57049330475357]",5.0,False,6.75,2.753785273643051,1.5623910427093506,0.6608330495970945
0,,sub_113,2024-07-17 15:53:35,3,distance,cathedral,numerosity_judgement,3,74,3,countries_reversed,"['_Tonga_reversed', '_Togo_reversed', '_Syria_reversed']","['f', 'f', 'm']","['p245', 'p284', 'p229']","[4, 6, 3]","[89.31368318402099, 91.58892582949886, 89.14911522239515]",5.0,False,6.333333333333333,1.5275252316519465,1.8119158744812012,0.8587787992282374
0,,sub_113,2024-07-17 15:55:48,3,distance,cathedral,numerosity_judgement,4,0,6,countries_reversed,"['_Togo_reversed', '_Syria_reversed', '_Tonga_reversed', '_Japan_reversed', '_Britain_reversed', '_Oman_reversed']","['m', 'm', 'f', 'f', 'm', 'f']","['p307', 'p256', 'p284', 'p245', 'p318', 'p268']","[7, 0, 3, 6, 8, 5]","[91.73820004985969, 84.40078082039426, 89.14911522239515, 91.58892582949886, 92.0152836843556, 90.34149293193902]",3.0,False,6.833333333333333,2.9268868558020253,1.9373650550842285,0.8777891272273295
0,,sub_113,2024-07-17 15:55:51,3,distance,cathedral,numerosity_judgement,4,1,2,countries_reversed,"['_Togo_reversed', '_Oman_reversed']","['m', 'm']","['p307', 'p229']","[7, 10]","[91.73820004985969, 93.00003341222717]",2.0,True,10.5,2.1213203435596424,1.8750369548797607,0.6648507547383952
0,,sub_113,2024-07-17 15:55:55,3,distance,cathedral,numerosity_judgement,4,2,5,countries_reversed,"['_Japan_reversed', '_Mali_reversed', '_Tonga_reversed', '_Peru_reversed', '_Togo_reversed']","['f', 'm', 'm', 'f', 'm']","['p248', 'p318', 'p307', 'p284', 'p256']","[5, 3, 4, 0, 2]","[90.34149293193902, 89.14911522239515, 89.31368318402099, 84.40078082039426, 87.57049330475357]",3.0,False,4.8,1.9235384061671346,2.062356948852539,0.8645443196004994
0,,sub_113,2024-07-17 15:55:58,3,distance,cathedral,numerosity_judgement,4,3,4,countries_reversed,"['_Togo_reversed', '_Oman_reversed', '_Congo_reversed', '_Japan_reversed']","['m', 'f', 'm', 'm']","['p229', 'p245', 'p307', 'p318']","[1, 3, 2, 5]","[86.2038576498559, 89.14911522239515, 87.57049330475357, 90.34149293193902]",3.0,False,4.75,1.707825127659933,2.3748350143432617,0.8711723981386903
0,,sub_113,2024-07-17 15:56:04,3,distance,cathedral,numerosity_judgement,4,4,3,countries_reversed,"['_Belgium_reversed', '_Oman_reversed', '_Cuba_reversed']","['m', 'm', 'f']","['p256', 'p307', 'p268']","[5, 9, 3]","[90.34149293193902, 92.00610777531934, 89.14911522239515]",3.0,True,7.666666666666667,3.0550504633038935,4.374541282653809,0.6725116331857904
0,,sub_113,2024-07-17 15:56:06,3,distance,cathedral,numerosity_judgement,4,5,6,countries_reversed,"['_Belgium_reversed', '_Yemen_reversed', '_Cuba_reversed', '_Tonga_reversed', '_Peru_reversed', '_Oman_reversed']","['f', 'm', 'm', 'f', 'm', 'm']","['p268', 'p318', 'p229', 'p245', 'p307', 'p256']","[5, 0, 3, 7, 1, 10]","[90.34149293193902, 84.40078082039426, 89.14911522239515, 91.73820004985969, 86.2038576498559, 93.00003341222717]",4.0,False,6.333333333333333,3.777124126457412,1.0634045600891113,0.6814890477811826
0,,sub_113,2024-07-17 15:56:10,3,distance,cathedral,numerosity_judgement,4,6,3,countries_reversed,"['_Oman_reversed', '_Togo_reversed', '_Cuba_reversed']","['m', 'm', 'm']","['p256', 'p229', 'p307']","[6, 10, 5]","[91.58892582949886, 93.00003341222717, 90.34149293193902]",4.0,False,9.0,2.6457513110645907,2.561861753463745,0.616956077630235
0,,sub_113,2024-07-17 15:56:13,3,distance,cathedral,numerosity_judgement,4,7,2,countries_reversed,"['_Belgium_reversed', '_Sudan_reversed']","['f', 'm']","['p245', 'p318']","[1, 5]","[86.2038576498559, 90.34149293193902]",3.0,False,5.0,2.8284271247461903,1.9999279975891113,0.8619566451027125
0,,sub_113,2024-07-17 15:56:16,3,distance,cathedral,numerosity_judgement,4,8,5,countries_reversed,"['_Yemen_reversed', '_Mali_reversed', '_Syria_reversed', '_Cuba_reversed', '_Sudan_reversed']","['m', 'f', 'f', 'f', 'm']","['p229', 'p268', 'p284', 'p245', 'p256']","[9, 5, 7, 4, 8]","[92.00610777531934, 90.34149293193902, 91.73820004985969, 89.31368318402099, 92.0152836843556]",5.0,True,8.6,2.073644135332772,1.5011460781097412,0.7873680626489615
0,,sub_113,2024-07-17 15:56:19,3,distance,cathedral,numerosity_judgement,4,9,4,countries_reversed,"['_Britain_reversed', '_Syria_reversed', '_Japan_reversed', '_Congo_reversed']","['m', 'm', 'f', 'f']","['p229', 'p318', 'p268', 'p248']","[10, 5, 4, 7]","[93.00003341222717, 90.34149293193902, 89.31368318402099, 91.73820004985969]",4.0,True,8.5,2.6457513110645907,1.3123810291290283,0.8942231301781863
0,,sub_113,2024-07-17 15:56:22,3,distance,cathedral,numerosity_judgement,4,10,2,countries_reversed,"['_Congo_reversed', '_Japan_reversed']","['m', 'f']","['p318', 'p248']","[1, 2]","[86.2038576498559, 87.57049330475357]",3.0,False,3.5,0.7071067811865476,2.4374732971191406,0.9562024741800024
0,,sub_113,2024-07-17 15:56:27,3,distance,cathedral,numerosity_judgement,4,11,4,countries_reversed,"['_Mali_reversed', '_Oman_reversed', '_Britain_reversed', '_Peru_reversed']","['m', 'm', 'm', 'f']","['p318', 'p307', 'p256', 'p248']","[1, 5, 8, 3]","[86.2038576498559, 90.34149293193902, 92.0152836843556, 89.14911522239515]",3.0,False,6.25,2.9860788111948193,3.1879515647888184,0.6719441607082056
0,,sub_113,2024-07-17 15:56:30,3,distance,cathedral,numerosity_judgement,4,12,3,countries_reversed,"['_Tonga_reversed', '_Syria_reversed', '_Mali_reversed']","['f', 'm', 'f']","['p268', 'p229', 'p284']","[3, 4, 7]","[89.14911522239515, 89.31368318402099, 91.73820004985969]",4.0,False,6.666666666666667,2.0816659994661326,2.498368740081787,0.9045397798206788
0,,sub_113,2024-07-17 15:56:34,3,distance,cathedral,numerosity_judgement,4,13,5,countries_reversed,"['_Belgium_reversed', '_Mali_reversed', '_Congo_reversed', '_Sudan_reversed', '_Japan_reversed']","['f', 'f', 'm', 'm', 'm']","['p268', 'p248', 'p229', 'p256', 'p318']","[5, 9, 10, 8, 3]","[90.34149293193902, 92.00610777531934, 93.00003341222717, 92.0152836843556, 89.14911522239515]",3.0,False,9.0,2.9154759474226504,1.9998548030853271,0.8214050618545
0,,sub_113,2024-07-17 15:56:36,3,distance,cathedral,numerosity_judgement,4,14,6,countries_reversed,"['_Syria_reversed', '_Japan_reversed', '_Britain_reversed', '_Togo_reversed', '_Oman_reversed', '_Peru_reversed']","['f', 'm', 'm', 'f', 'f', 'm']","['p268', 'p229', 'p307', 'p248', 'p284', 'p318']","[6, 1, 8, 4, 3, 2]","[91.58892582949886, 86.2038576498559, 92.0152836843556, 89.31368318402099, 89.14911522239515, 87.57049330475357]",4.0,False,6.0,2.6076809620810595,1.434063196182251,0.942662580864828
0,,sub_113,2024-07-17 15:56:40,3,distance,cathedral,numerosity_judgement,4,15,4,countries_reversed,"['_Oman_reversed', '_Yemen_reversed', '_Britain_reversed', '_Mali_reversed']","['m', 'm', 'm', 'm']","['p229', 'p318', 'p307', 'p256']","[5, 7, 9, 6]","[90.34149293193902, 91.73820004985969, 92.00610777531934, 91.58892582949886]",4.0,True,8.75,1.707825127659933,1.9997940063476562,0.6135966405629327
0,,sub_113,2024-07-17 15:56:43,3,distance,cathedral,numerosity_judgement,4,16,2,countries_reversed,"['_Britain_reversed', '_Peru_reversed']","['m', 'm']","['p256', 'p307']","[8, 9]","[92.0152836843556, 92.00610777531934]",3.0,False,10.5,0.7071067811865476,1.749878168106079,0.7182499148791284
0,,sub_113,2024-07-17 15:56:46,3,distance,cathedral,numerosity_judgement,4,17,6,countries_reversed,"['_Britain_reversed', '_Cuba_reversed', '_Yemen_reversed', '_Congo_reversed', '_Oman_reversed', '_Tonga_reversed']","['m', 'm', 'f', 'f', 'f', 'f']","['p229', 'p307', 'p248', 'p245', 'p284', 'p268']","[4, 3, 9, 5, 8, 10]","[89.31368318402099, 89.14911522239515, 92.00610777531934, 90.34149293193902, 92.0152836843556, 93.00003341222717]",4.0,False,8.5,2.8809720581775866,1.7473595142364502,0.8916581545795029
0,,sub_113,2024-07-17 15:56:49,3,distance,cathedral,numerosity_judgement,4,18,5,countries_reversed,"['_Japan_reversed', '_Yemen_reversed', '_Syria_reversed', '_Tonga_reversed', '_Sudan_reversed']","['m', 'f', 'm', 'f', 'm']","['p307', 'p245', 'p256', 'p268', 'p229']","[8, 10, 0, 1, 7]","[92.0152836843556, 93.00003341222717, 84.40078082039426, 86.2038576498559, 91.73820004985969]",5.0,True,7.2,4.43846820423443,1.6874191761016846,0.9208716377255703
0,,sub_113,2024-07-17 15:56:52,3,distance,cathedral,numerosity_judgement,4,19,3,countries_reversed,"['_Yemen_reversed', '_Oman_reversed', '_Tonga_reversed']","['m', 'm', 'f']","['p256', 'p307', 'p245']","[2, 5, 10]","[87.57049330475357, 90.34149293193902, 93.00003341222717]",4.0,False,7.666666666666667,4.041451884327381,1.8773057460784912,0.5832936102599023
0,,sub_113,2024-07-17 15:56:55,3,distance,cathedral,numerosity_judgement,4,20,2,countries_reversed,"['_Cuba_reversed', '_Japan_reversed']","['f', 'f']","['p284', 'p248']","[9, 8]","[92.00610777531934, 92.0152836843556]",4.0,False,10.5,0.7071067811865476,1.941190242767334,0.793076835773465
0,,sub_113,2024-07-17 15:56:59,3,distance,cathedral,numerosity_judgement,4,21,6,countries_reversed,"['_Tonga_reversed', '_Sudan_reversed', '_Oman_reversed', '_Yemen_reversed', '_Syria_reversed', '_Congo_reversed']","['m', 'm', 'm', 'f', 'm', 'f']","['p256', 'p307', 'p229', 'p248', 'p318', 'p245']","[2, 3, 6, 4, 10, 1]","[87.57049330475357, 89.14911522239515, 91.58892582949886, 89.31368318402099, 93.00003341222717, 86.2038576498559]",4.0,False,6.333333333333333,3.265986323710904,2.3748347759246826,0.7638520031778459
0,,sub_113,2024-07-17 15:57:02,3,distance,cathedral,numerosity_judgement,4,22,3,countries_reversed,"['_Oman_reversed', '_Sudan_reversed', '_Britain_reversed']","['f', 'f', 'm']","['p284', 'p248', 'p256']","[5, 7, 10]","[90.34149293193902, 91.73820004985969, 93.00003341222717]",3.0,True,9.333333333333334,2.516611478423583,2.1146085262298584,0.7136079900124844
0,,sub_113,2024-07-17 15:57:06,3,distance,cathedral,numerosity_judgement,4,23,5,countries_reversed,"['_Belgium_reversed', '_Congo_reversed', '_Peru_reversed', '_Syria_reversed', '_Cuba_reversed']","['m', 'f', 'f', 'f', 'm']","['p307', 'p284', 'p245', 'p248', 'p318']","[2, 7, 4, 6, 1]","[87.57049330475357, 91.73820004985969, 89.31368318402099, 91.58892582949886, 86.2038576498559]",4.0,False,6.0,2.5495097567963922,2.0015180110931396,0.9369084099421178
0,,sub_113,2024-07-17 15:57:10,3,distance,cathedral,numerosity_judgement,4,24,4,countries_reversed,"['_Oman_reversed', '_Syria_reversed', '_Cuba_reversed', '_Togo_reversed']","['m', 'f', 'f', 'f']","['p307', 'p268', 'p248', 'p245']","[5, 3, 10, 0]","[90.34149293193902, 89.14911522239515, 93.00003341222717, 84.40078082039426]",3.0,False,6.5,4.203173404306164,2.937295436859131,0.7458971739870617
0,,sub_113,2024-07-17 15:57:13,3,distance,cathedral,numerosity_judgement,4,25,6,countries_reversed,"['_Cuba_reversed', '_Britain_reversed', '_Japan_reversed', '_Tonga_reversed', '_Sudan_reversed', '_Mali_reversed']","['m', 'm', 'f', 'm', 'f', 'f']","['p256', 'p307', 'p248', 'p229', 'p245', 'p284']","[1, 5, 8, 7, 4, 0]","[86.2038576498559, 90.34149293193902, 92.0152836843556, 91.73820004985969, 89.31368318402099, 84.40078082039426]",4.0,False,6.166666666666667,3.188521078284832,2.062357187271118,0.9121666099194188
0,,sub_113,2024-07-17 15:57:17,3,distance,cathedral,numerosity_judgement,4,26,3,countries_reversed,"['_Mali_reversed', '_Britain_reversed', '_Yemen_reversed']","['f', 'f', 'm']","['p248', 'p268', 'p318']","[2, 6, 7]","[87.57049330475357, 91.58892582949886, 91.73820004985969]",3.0,True,7.0,2.6457513110645907,2.18734073638916,0.8089887640449438
0,,sub_113,2024-07-17 15:57:20,3,distance,cathedral,numerosity_judgement,4,27,5,countries_reversed,"['_Mali_reversed', '_Oman_reversed', '_Britain_reversed', '_Peru_reversed', '_Yemen_reversed']","['f', 'm', 'm', 'm', 'f']","['p268', 'p256', 'p318', 'p307', 'p245']","[1, 6, 10, 9, 5]","[86.2038576498559, 91.58892582949886, 93.00003341222717, 92.00610777531934, 90.34149293193902]",4.0,False,8.2,3.5637059362410923,2.440091133117676,0.6607536034502327
0,,sub_113,2024-07-17 15:57:23,3,distance,cathedral,numerosity_judgement,4,28,2,countries_reversed,"['_Mali_reversed', '_Britain_reversed']","['m', 'f']","['p318', 'p284']","[0, 2]","[84.40078082039426, 87.57049330475357]",2.0,True,3.0,1.4142135623730951,1.3749048709869385,0.9412552491204176
0,,sub_113,2024-07-17 15:57:31,3,distance,cathedral,numerosity_judgement,4,29,4,countries_reversed,"['_Yemen_reversed', '_Tonga_reversed', '_Syria_reversed', '_Mali_reversed']","['f', 'm', 'f', 'm']","['p245', 'p256', 'p248', 'p318']","[5, 2, 3, 6]","[90.34149293193902, 87.57049330475357, 89.14911522239515, 91.58892582949886]",3.0,False,6.0,1.8257418583505538,6.564249515533447,0.8273862217682443
0,,sub_113,2024-07-17 15:57:34,3,distance,cathedral,numerosity_judgement,4,30,5,countries_reversed,"['_Sudan_reversed', '_Oman_reversed', '_Peru_reversed', '_Congo_reversed', '_Tonga_reversed']","['f', 'm', 'f', 'm', 'm']","['p284', 'p307', 'p245', 'p318', 'p256']","[6, 2, 8, 9, 0]","[91.58892582949886, 87.57049330475357, 92.0152836843556, 92.00610777531934, 84.40078082039426]",4.0,False,7.0,3.872983346207417,1.812373161315918,0.9613210759278176
0,,sub_113,2024-07-17 15:57:37,3,distance,cathedral,numerosity_judgement,4,31,4,countries_reversed,"['_Yemen_reversed', '_Cuba_reversed', '_Peru_reversed', '_Oman_reversed']","['m', 'm', 'm', 'f']","['p256', 'p318', 'p229', 'p245']","[10, 3, 8, 6]","[93.00003341222717, 89.14911522239515, 92.0152836843556, 91.58892582949886]",4.0,True,8.75,2.9860788111948193,2.0016818046569824,0.7306094654409261
0,,sub_113,2024-07-17 15:57:42,3,distance,cathedral,numerosity_judgement,4,32,6,countries_reversed,"['_Japan_reversed', '_Congo_reversed', '_Cuba_reversed', '_Oman_reversed', '_Yemen_reversed', '_Belgium_reversed']","['m', 'f', 'f', 'm', 'm', 'm']","['p256', 'p268', 'p245', 'p307', 'p229', 'p318']","[5, 4, 7, 3, 9, 10]","[90.34149293193902, 89.31368318402099, 91.73820004985969, 89.14911522239515, 92.00610777531934, 93.00003341222717]",4.0,False,8.333333333333334,2.804757862395017,3.812467336654663,0.7106117353308364
0,,sub_113,2024-07-17 15:57:45,3,distance,cathedral,numerosity_judgement,4,33,2,countries_reversed,"['_Cuba_reversed', '_Japan_reversed']","['f', 'f']","['p245', 'p284']","[5, 2]","[90.34149293193902, 87.57049330475357]",3.0,False,5.5,2.1213203435596424,1.1249217987060547,0.7535807513335603
0,,sub_113,2024-07-17 15:57:48,3,distance,cathedral,numerosity_judgement,4,34,3,countries_reversed,"['_Belgium_reversed', '_Yemen_reversed', '_Cuba_reversed']","['m', 'm', 'm']","['p256', 'p318', 'p229']","[10, 7, 0]","[93.00003341222717, 91.73820004985969, 84.40078082039426]",2.0,False,7.666666666666667,5.131601439446884,1.7389819622039795,0.9250255362614912
