,event_id,subject_id,timestamp,session_index,plane,setup,task,block,trial_index,stim_number,stim_type,stim_country_ids,stim_talker_ids,speaker_ids,stim_level,resp_number,is_correct,speaker_distance_mean,speaker_distance_st_dev,reaction_time
0,,101,2024-06-12 09:50:25,3,distance,cathedral,numerosity_judgement,99,0,4,countries_forward,"['_Syria_', '_Togo_', '_Peru_', '_Britain_']","['p284', 'p229', 'p248', 'p256']",[1 4 8 0],"[86.2038576498559, 89.31368318402099, 92.0152836843556, 84.40078082039426]",4.0,True,5.25,3.593976442141304,5.874558687210083
0,,101,2024-06-12 09:50:28,3,distance,cathedral,numerosity_judgement,99,1,3,countries_forward,"['_Britain_', '_Peru_', '_Togo_']","['p229', 'p284', 'p248']",[6 2 4],"[91.58892582949886, 87.57049330475357, 89.31368318402099]",6.0,False,6.0,2.0,1.374903917312622
0,,101,2024-06-12 09:50:34,3,distance,cathedral,numerosity_judgement,99,2,5,countries_forward,"['_Togo_', '_Japan_', '_Sudan_', '_Sudan_', '_Tonga_']","['p307', 'p318', 'p245', 'p318', 'p248']",[ 8  3  6  1 10],"[92.0152836843556, 89.14911522239515, 91.58892582949886, 86.2038576498559, 93.00003341222717]",6.0,False,7.6,3.646916505762094,3.124781608581543
0,,101,2024-06-12 09:50:36,3,distance,cathedral,numerosity_judgement,99,3,3,countries_forward,"['_Tonga_', '_Belgium_', '_Mali_']","['p284', 'p307', 'p318']",[8 4 9],"[92.0152836843556, 89.31368318402099, 92.00610777531934]",5.0,False,9.0,2.6457513110645907,0.18748998641967773
0,,101,2024-06-12 09:50:47,3,distance,cathedral,numerosity_judgement,99,4,4,countries_forward,"['_Oman_', '_Congo_', '_Britain_', '_Tonga_']","['p245', 'p245', 'p248', 'p268']",[10  0  3  7],"[93.00003341222717, 84.40078082039426, 89.14911522239515, 91.73820004985969]",2.0,False,7.0,4.396968652757639,9.56179165840149
0,,101,2024-06-12 09:50:53,3,distance,cathedral,numerosity_judgement,99,5,4,countries_forward,"['_Britain_', '_Oman_', '_Syria_', '_Sudan_']","['p245', 'p284', 'p256', 'p284']",[ 8  9 10  0],"[92.0152836843556, 92.00610777531934, 93.00003341222717, 84.40078082039426]",2.0,False,8.75,4.573474244670748,3.4997551441192627
0,,101,2024-06-12 09:50:58,3,distance,cathedral,numerosity_judgement,99,6,6,countries_forward,"['_Tonga_', '_Britain_', '_Tonga_', '_Congo_', '_Togo_', '_Syria_']","['p248', 'p229', 'p307', 'p268', 'p256', 'p229']",[ 7 10  3  0  9  5],"[91.73820004985969, 93.00003341222717, 89.14911522239515, 84.40078082039426, 92.00610777531934, 90.34149293193902]",5.0,False,7.666666666666667,3.777124126457412,2.124852180480957
0,,101,2024-06-12 09:51:02,3,distance,cathedral,numerosity_judgement,99,7,5,countries_forward,"['_Tonga_', '_Tonga_', '_Congo_', '_Mali_', '_Mali_']","['p256', 'p248', 'p245', 'p248', 'p256']",[8 7 9 4 0],"[92.0152836843556, 91.73820004985969, 92.00610777531934, 89.31368318402099, 84.40078082039426]",3.0,False,7.6,3.646916505762094,1.624861478805542
0,,101,2024-06-12 09:51:06,3,distance,cathedral,numerosity_judgement,99,8,5,countries_forward,"['_Belgium_', '_Sudan_', '_Yemen_', '_Congo_', '_Syria_']","['p284', 'p318', 'p245', 'p318', 'p284']",[7 3 9 8 5],"[91.73820004985969, 89.14911522239515, 92.00610777531934, 92.0152836843556, 90.34149293193902]",4.0,False,8.4,2.4083189157584592,1.4998929500579834
0,,101,2024-06-12 09:51:13,3,distance,cathedral,numerosity_judgement,99,9,4,countries_forward,"['_Mali_', '_Yemen_', '_Cuba_', '_Congo_']","['p268', 'p268', 'p307', 'p248']",[9 8 5 3],"[92.00610777531934, 92.0152836843556, 90.34149293193902, 89.14911522239515]",4.0,True,8.25,2.753785273643051,4.624676942825317
0,,101,2024-06-12 09:51:21,3,distance,cathedral,numerosity_judgement,99,10,3,countries_forward,"['_Yemen_', '_Cuba_', '_Japan_']","['p318', 'p245', 'p284']",[ 6  2 10],"[91.58892582949886, 87.57049330475357, 93.00003341222717]",1.0,False,8.0,4.0,5.9370856285095215
0,,101,2024-06-12 09:51:40,3,distance,cathedral,numerosity_judgement,99,11,2,countries_forward,"['_Japan_', '_Togo_']","['p307', 'p229']",[6 1],"[91.58892582949886, 86.2038576498559]",1.0,False,5.5,3.5355339059327378,17.81125497817993
0,,101,2024-06-12 09:51:44,3,distance,cathedral,numerosity_judgement,99,12,3,countries_forward,"['_Japan_', '_Oman_', '_Mali_']","['p284', 'p307', 'p318']",[0 2 8],"[84.40078082039426, 87.57049330475357, 92.0152836843556]",2.0,False,5.333333333333333,4.163331998932266,2.1248536109924316
0,,101,2024-06-12 09:51:51,3,distance,cathedral,numerosity_judgement,99,13,2,countries_forward,"['_Japan_', '_Congo_']","['p229', 'p268']",[6 4],"[91.58892582949886, 89.31368318402099]",2.0,True,7.0,1.4142135623730951,4.499714136123657
0,,101,2024-06-12 09:51:55,3,distance,cathedral,numerosity_judgement,99,14,5,countries_forward,"['_Yemen_', '_Japan_', '_Congo_', '_Sudan_', '_Togo_']","['p268', 'p245', 'p248', 'p307', 'p256']",[0 8 1 3 7],"[84.40078082039426, 92.0152836843556, 86.2038576498559, 89.14911522239515, 91.73820004985969]",3.0,False,5.8,3.5637059362410923,2.249842405319214
0,,101,2024-06-12 09:51:59,3,distance,cathedral,numerosity_judgement,99,15,4,countries_forward,"['_Congo_', '_Japan_', '_Belgium_', '_Oman_']","['p245', 'p229', 'p268', 'p248']",[ 7  2  0 10],"[91.73820004985969, 87.57049330475357, 84.40078082039426, 93.00003341222717]",4.0,True,6.75,4.573474244670748,1.5623829364776611
0,,101,2024-06-12 09:52:04,3,distance,cathedral,numerosity_judgement,99,16,4,countries_forward,"['_Cuba_', '_Yemen_', '_Tonga_', '_Togo_']","['p318', 'p248', 'p318', 'p229']",[1 6 8 5],"[86.2038576498559, 91.58892582949886, 92.0152836843556, 90.34149293193902]",4.0,True,7.0,2.943920288775949,2.9997904300689697
0,,101,2024-06-12 09:52:07,3,distance,cathedral,numerosity_judgement,99,17,2,countries_forward,"['_Mali_', '_Peru_']","['p284', 'p256']",[2 3],"[87.57049330475357, 89.14911522239515]",1.0,False,4.5,0.7071067811865476,1.3749277591705322
0,,101,2024-06-12 09:52:14,3,distance,cathedral,numerosity_judgement,99,18,3,countries_forward,"['_Japan_', '_Tonga_', '_Oman_']","['p284', 'p256', 'p284']",[2 4 1],"[87.57049330475357, 89.31368318402099, 86.2038576498559]",1.0,False,4.333333333333333,1.5275252316519465,4.124711036682129
0,,101,2024-06-12 09:52:18,3,distance,cathedral,numerosity_judgement,99,19,5,countries_forward,"['_Togo_', '_Belgium_', '_Oman_', '_Togo_', '_Belgium_']","['p229', 'p245', 'p248', 'p284', 'p307']",[10  9  7  2  4],"[93.00003341222717, 92.00610777531934, 91.73820004985969, 87.57049330475357, 89.31368318402099]",5.0,True,8.4,3.361547262794322,2.312337875366211
0,,101,2024-06-12 09:52:23,3,distance,cathedral,numerosity_judgement,99,20,4,countries_forward,"['_Togo_', '_Togo_', '_Syria_', '_Syria_']","['p245', 'p268', 'p229', 'p307']",[ 8  5 10  9],"[92.0152836843556, 90.34149293193902, 93.00003341222717, 92.00610777531934]",3.0,False,10.0,2.160246899469287,2.6248154640197754
0,,101,2024-06-12 09:52:27,3,distance,cathedral,numerosity_judgement,99,21,3,countries_forward,"['_Sudan_', '_Japan_', '_Yemen_']","['p248', 'p245', 'p284']",[ 1  2 10],"[86.2038576498559, 87.57049330475357, 93.00003341222717]",6.0,False,6.333333333333333,4.932882862316247,1.749877691268921
0,,101,2024-06-12 09:52:32,3,distance,cathedral,numerosity_judgement,99,22,5,countries_forward,"['_Togo_', '_Tonga_', '_Tonga_', '_Mali_', '_Sudan_']","['p284', 'p256', 'p318', 'p248', 'p318']",[ 3  4  9 10  5],"[89.14911522239515, 89.31368318402099, 92.00610777531934, 93.00003341222717, 90.34149293193902]",5.0,True,8.2,3.1144823004794873,2.3123393058776855
0,,101,2024-06-20 14:12:11,3,distance,cathedral,numerosity_judgement,99,0,2,countries_forward,"['_Syria_', '_Sudan_']","['f', 'm']","['p284', 'p229']","[4, 2]","[89.31368318402099, 87.57049330475357]",2,False,5.0,1.4142135623730951,5.124640464782715
0,,101,2024-06-20 14:12:28,3,distance,cathedral,numerosity_judgement,99,1,6,countries_forward,"['_Belgium_', '_Congo_', '_Japan_', '_Sudan_', '_Yemen_', '_Oman_']","['m', 'f', 'f', 'm', 'm', 'f']","['p318', 'p268', 'p248', 'p256', 'p307', 'p245']","[6, 0, 2, 8, 7, 3]","[91.58892582949886, 84.40078082039426, 87.57049330475357, 92.0152836843556, 91.73820004985969, 89.14911522239515]",5,False,6.333333333333333,3.141125063837266,7.155749082565308
0,,101,2024-06-20 14:12:40,3,distance,cathedral,numerosity_judgement,99,2,5,countries_forward,"['_Oman_', '_Togo_', '_Yemen_', '_Japan_', '_Cuba_']","['m', 'm', 'f', 'f', 'f']","['p318', 'p229', 'p248', 'p245', 'p284']","[8, 4, 3, 1, 10]","[92.0152836843556, 89.31368318402099, 89.14911522239515, 86.2038576498559, 93.00003341222717]",3,False,7.2,3.7013511046643495,4.218456745147705
0,,101,2024-06-20 14:15:31,3,distance,cathedral,numerosity_judgement,99,0,4,countries_forward,"['_Yemen_', '_Peru_', '_Mali_', '_Britain_']","['f', 'm', 'f', 'm']","['p248', 'p307', 'p284', 'p318']","[5, 7, 0, 9]","[90.34149293193902, 91.73820004985969, 84.40078082039426, 92.00610777531934]",4,False,7.25,3.8622100754188224,3.3747642040252686
0,,101,2024-06-20 14:15:35,3,distance,cathedral,numerosity_judgement,99,1,6,countries_forward,"['_Togo_', '_Britain_', '_Oman_', '_Mali_', '_Tonga_', '_Peru_']","['m', 'm', 'f', 'm', 'm', 'f']","['p229', 'p318', 'p284', 'p307', 'p256', 'p268']","[5, 8, 3, 10, 6, 4]","[90.34149293193902, 92.0152836843556, 89.14911522239515, 93.00003341222717, 91.58892582949886, 89.31368318402099]",6,False,8.0,2.6076809620810595,2.3279614448547363
0,,101,2024-06-20 14:20:04,3,distance,cathedral,numerosity_judgement,99,2,2,countries_forward,"['_Mali_', '_Tonga_']","['f', 'f']","['p245', 'p284']","[7, 2]","[91.73820004985969, 87.57049330475357]",3,False,6.5,3.5355339059327378,267.6843955516815
0,,101,2024-06-20 14:20:09,3,distance,cathedral,numerosity_judgement,99,3,5,countries_forward,"['_Sudan_', '_Britain_', '_Syria_', '_Oman_', '_Japan_']","['f', 'm', 'm', 'f', 'm']","['p284', 'p229', 'p307', 'p268', 'p256']","[1, 7, 10, 0, 3]","[86.2038576498559, 91.73820004985969, 93.00003341222717, 84.40078082039426, 89.14911522239515]",7,False,6.2,4.207136793592526,2.3592095375061035
0,,101,2024-06-20 14:20:15,3,distance,cathedral,numerosity_judgement,99,4,3,countries_forward,"['_Belgium_', '_Syria_', '_Togo_']","['m', 'f', 'm']","['p229', 'p248', 'p256']","[1, 3, 9]","[86.2038576498559, 89.14911522239515, 92.00610777531934]",7,False,6.333333333333333,4.163331998932266,4.382713794708252
0,,101,2024-06-20 14:20:20,3,distance,cathedral,numerosity_judgement,99,5,6,countries_forward,"['_Sudan_', '_Congo_', '_Tonga_', '_Syria_', '_Togo_', '_Mali_']","['f', 'm', 'm', 'm', 'm', 'f']","['p245', 'p256', 'p318', 'p229', 'p307', 'p284']","[10, 5, 3, 0, 7, 6]","[93.00003341222717, 90.34149293193902, 89.14911522239515, 84.40078082039426, 91.73820004985969, 91.58892582949886]",5,False,7.166666666666667,3.4302575219167823,2.5779457092285156
0,,101,2024-06-20 14:20:25,3,distance,cathedral,numerosity_judgement,99,6,2,countries_forward,"['_Yemen_', '_Peru_']","['f', 'm']","['p248', 'p318']","[10, 6]","[93.00003341222717, 91.58892582949886]",2,False,10.0,2.8284271247461903,3.5935006141662598
0,,101,2024-06-20 14:21:17,3,distance,cathedral,numerosity_judgement,99,7,4,countries_forward,"['_Cuba_', '_Belgium_', '_Japan_', '_Britain_']","['f', 'f', 'm', 'm']","['p248', 'p268', 'p229', 'p256']","[2, 6, 5, 3]","[87.57049330475357, 91.58892582949886, 90.34149293193902, 89.14911522239515]",7,False,6.0,1.8257418583505538,50.10952925682068
0,,101,2024-06-20 14:21:22,3,distance,cathedral,numerosity_judgement,99,8,5,countries_forward,"['_Tonga_', '_Cuba_', '_Peru_', '_Oman_', '_Congo_']","['m', 'f', 'f', 'm', 'f']","['p256', 'p268', 'p248', 'p307', 'p245']","[6, 9, 3, 5, 7]","[91.58892582949886, 92.00610777531934, 89.14911522239515, 90.34149293193902, 91.73820004985969]",2,False,8.0,2.23606797749979,3.2966439723968506
0,,101,2024-06-20 14:21:45,3,distance,cathedral,numerosity_judgement,99,9,3,countries_forward,"['_Sudan_', '_Congo_', '_Peru_']","['m', 'm', 'm']","['p256', 'p318', 'p307']","[7, 3, 5]","[91.73820004985969, 89.14911522239515, 90.34149293193902]",2,False,7.0,2.0,21.311009645462036
0,,101,2024-06-20 14:21:49,3,distance,cathedral,numerosity_judgement,99,10,5,countries_forward,"['_Japan_', '_Tonga_', '_Peru_', '_Togo_', '_Congo_']","['f', 'm', 'f', 'f', 'f']","['p268', 'p307', 'p245', 'p284', 'p248']","[9, 10, 1, 2, 8]","[92.00610777531934, 93.00003341222717, 86.2038576498559, 87.57049330475357, 92.0152836843556]",3,False,8.0,4.183300132670378,2.0154848098754883
0,,101,2024-06-20 14:21:54,3,distance,cathedral,numerosity_judgement,99,11,3,countries_forward,"['_Peru_', '_Yemen_', '_Oman_']","['m', 'f', 'm']","['p318', 'p248', 'p307']","[1, 6, 10]","[86.2038576498559, 91.58892582949886, 93.00003341222717]",3,False,7.666666666666667,4.509249752822894,3.609121799468994
0,,101,2024-06-20 14:21:58,3,distance,cathedral,numerosity_judgement,99,12,2,countries_forward,"['_Tonga_', '_Sudan_']","['f', 'f']","['p284', 'p268']","[10, 5]","[93.00003341222717, 90.34149293193902]",1,False,9.5,3.5355339059327378,1.8748691082000732
0,,101,2024-06-20 14:22:02,3,distance,cathedral,numerosity_judgement,99,13,4,countries_forward,"['_Cuba_', '_Peru_', '_Britain_', '_Oman_']","['m', 'f', 'f', 'f']","['p307', 'p284', 'p248', 'p268']","[10, 9, 1, 2]","[93.00003341222717, 92.00610777531934, 86.2038576498559, 87.57049330475357]",1,False,7.5,4.654746681256314,2.577944278717041
0,,101,2024-06-20 14:22:07,3,distance,cathedral,numerosity_judgement,99,14,6,countries_forward,"['_Togo_', '_Yemen_', '_Oman_', '_Mali_', '_Cuba_', '_Congo_']","['f', 'm', 'm', 'f', 'm', 'f']","['p284', 'p229', 'p256', 'p248', 'p307', 'p245']","[1, 3, 5, 2, 4, 0]","[86.2038576498559, 89.14911522239515, 90.34149293193902, 87.57049330475357, 89.31368318402099, 84.40078082039426]",5,False,4.5,1.8708286933869707,2.4529550075531006
0,,101,2024-06-20 14:22:12,3,distance,cathedral,numerosity_judgement,99,15,4,countries_forward,"['_Cuba_', '_Togo_', '_Britain_', '_Yemen_']","['m', 'f', 'f', 'm']","['p318', 'p268', 'p284', 'p256']","[3, 6, 7, 1]","[89.14911522239515, 91.58892582949886, 91.73820004985969, 86.2038576498559]",6,False,6.25,2.753785273643051,3.0622856616973877
0,,101,2024-06-20 14:22:16,3,distance,cathedral,numerosity_judgement,99,16,5,countries_forward,"['_Congo_', '_Peru_', '_Tonga_', '_Yemen_', '_Oman_']","['m', 'm', 'm', 'f', 'f']","['p256', 'p229', 'p318', 'p284', 'p245']","[5, 8, 3, 0, 9]","[90.34149293193902, 92.0152836843556, 89.14911522239515, 84.40078082039426, 92.00610777531934]",2,False,7.0,3.6742346141747673,2.4529547691345215
0,,101,2024-06-20 14:22:20,3,distance,cathedral,numerosity_judgement,99,17,3,countries_forward,"['_Yemen_', '_Tonga_', '_Cuba_']","['m', 'm', 'f']","['p307', 'p229', 'p248']","[7, 2, 5]","[91.73820004985969, 87.57049330475357, 90.34149293193902]",2,False,6.666666666666667,2.516611478423583,2.0936014652252197
0,,101,2024-06-20 14:22:24,3,distance,cathedral,numerosity_judgement,99,18,6,countries_forward,"['_Yemen_', '_Togo_', '_Congo_', '_Cuba_', '_Japan_', '_Oman_']","['m', 'f', 'f', 'm', 'f', 'm']","['p307', 'p245', 'p268', 'p256', 'p248', 'p318']","[5, 6, 7, 8, 3, 2]","[90.34149293193902, 91.58892582949886, 91.73820004985969, 92.0152836843556, 89.14911522239515, 87.57049330475357]",8,False,7.166666666666667,2.316606713852541,1.7811253070831299
0,,101,2024-06-20 14:22:58,3,distance,cathedral,numerosity_judgement,99,19,2,countries_forward,"['_Congo_', '_Togo_']","['f', 'm']","['p245', 'p256']","[2, 8]","[87.57049330475357, 92.0152836843556]",4,False,7.0,4.242640687119285,32.3883581161499
0,,101,2024-06-20 14:23:02,3,distance,cathedral,numerosity_judgement,99,20,3,countries_forward,"['_Yemen_', '_Congo_', '_Britain_']","['m', 'f', 'm']","['p229', 'p248', 'p307']","[7, 10, 8]","[91.73820004985969, 93.00003341222717, 92.0152836843556]",2,False,10.333333333333334,1.5275252316519468,2.5935661792755127
0,,101,2024-06-20 14:23:07,3,distance,cathedral,numerosity_judgement,99,21,6,countries_forward,"['_Japan_', '_Syria_', '_Yemen_', '_Belgium_', '_Togo_', '_Cuba_']","['f', 'm', 'm', 'f', 'm', 'f']","['p268', 'p229', 'p307', 'p284', 'p256', 'p248']","[3, 7, 6, 9, 10, 5]","[89.14911522239515, 91.73820004985969, 91.58892582949886, 92.00610777531934, 93.00003341222717, 90.34149293193902]",4,False,8.666666666666666,2.581988897471611,3.281019687652588
0,,101,2024-06-20 14:23:13,3,distance,cathedral,numerosity_judgement,99,22,4,countries_forward,"['_Belgium_', '_Mali_', '_Syria_', '_Britain_']","['f', 'f', 'f', 'm']","['p284', 'p248', 'p245', 'p318']","[9, 0, 2, 3]","[92.00610777531934, 84.40078082039426, 87.57049330475357, 89.14911522239515]",7,False,5.5,3.872983346207417,3.312268018722534
0,,101,2024-06-20 14:23:17,3,distance,cathedral,numerosity_judgement,99,23,2,countries_forward,"['_Japan_', '_Yemen_']","['m', 'm']","['p256', 'p229']","[7, 2]","[91.73820004985969, 87.57049330475357]",1,False,6.5,3.5355339059327378,3.0622901916503906
0,,101,2024-06-20 14:23:22,3,distance,cathedral,numerosity_judgement,99,24,5,countries_forward,"['_Congo_', '_Britain_', '_Syria_', '_Sudan_', '_Yemen_']","['f', 'f', 'm', 'f', 'm']","['p284', 'p248', 'p307', 'p245', 'p318']","[9, 8, 2, 6, 0]","[92.00610777531934, 92.0152836843556, 87.57049330475357, 91.58892582949886, 84.40078082039426]",8,False,7.0,3.872983346207417,3.2653968334198
0,,101,2024-06-20 14:23:27,3,distance,cathedral,numerosity_judgement,99,25,3,countries_forward,"['_Sudan_', '_Japan_', '_Tonga_']","['f', 'f', 'f']","['p248', 'p284', 'p245']","[10, 9, 0]","[93.00003341222717, 92.00610777531934, 84.40078082039426]",2,False,8.333333333333334,5.507570547286102,2.468578338623047
0,,101,2024-06-20 14:23:31,3,distance,cathedral,numerosity_judgement,99,26,5,countries_forward,"['_Belgium_', '_Togo_', '_Tonga_', '_Mali_', '_Oman_']","['m', 'f', 'f', 'm', 'f']","['p318', 'p268', 'p245', 'p256', 'p248']","[9, 0, 10, 6, 3]","[92.00610777531934, 84.40078082039426, 93.00003341222717, 91.58892582949886, 89.14911522239515]",3,False,7.6,4.159326868617084,2.0779786109924316
0,,101,2024-06-20 14:23:35,3,distance,cathedral,numerosity_judgement,99,27,6,countries_forward,"['_Mali_', '_Oman_', '_Cuba_', '_Japan_', '_Belgium_', '_Peru_']","['f', 'm', 'f', 'm', 'f', 'm']","['p248', 'p307', 'p284', 'p256', 'p268', 'p229']","[2, 6, 0, 8, 9, 4]","[87.57049330475357, 91.58892582949886, 84.40078082039426, 92.0152836843556, 92.00610777531934, 89.31368318402099]",5,False,6.833333333333333,3.488074922742725,2.32796049118042
0,,101,2024-06-20 14:23:41,3,distance,cathedral,numerosity_judgement,99,28,4,countries_forward,"['_Tonga_', '_Oman_', '_Mali_', '_Sudan_']","['m', 'm', 'f', 'm']","['p307', 'p256', 'p248', 'p318']","[0, 6, 1, 8]","[84.40078082039426, 91.58892582949886, 86.2038576498559, 92.0152836843556]",2,False,5.75,3.8622100754188224,3.7341132164001465
0,,101,2024-06-20 14:23:46,3,distance,cathedral,numerosity_judgement,99,29,2,countries_forward,"['_Tonga_', '_Sudan_']","['m', 'f']","['p318', 'p248']","[0, 4]","[84.40078082039426, 89.31368318402099]",2,False,4.0,2.8284271247461903,3.093535900115967
0,,101,2024-06-20 14:23:49,3,distance,cathedral,numerosity_judgement,99,30,3,countries_forward,"['_Syria_', '_Peru_', '_Cuba_']","['f', 'm', 'm']","['p248', 'p256', 'p229']","[6, 3, 8]","[91.58892582949886, 89.14911522239515, 92.0152836843556]",4,False,7.666666666666667,2.516611478423583,2.156099796295166
0,,101,2024-06-20 14:26:56,3,distance,cathedral,numerosity_judgement,99,0,5,countries_forward,"['_Britain_', '_Japan_', '_Yemen_', '_Oman_', '_Congo_']","['m', 'f', 'f', 'm', 'm']","['p256', 'p245', 'p248', 'p229', 'p318']","[0, 2, 5, 6, 8]","[84.40078082039426, 87.57049330475357, 90.34149293193902, 91.58892582949886, 92.0152836843556]",6,False,6.2,3.1937438845342623,4.140334129333496
0,,101,2024-06-20 14:27:00,3,distance,cathedral,numerosity_judgement,99,1,4,countries_forward,"['_Britain_', '_Congo_', '_Cuba_', '_Mali_']","['m', 'm', 'm', 'f']","['p307', 'p256', 'p318', 'p245']","[6, 5, 10, 8]","[91.58892582949886, 90.34149293193902, 93.00003341222717, 92.0152836843556]",1,False,9.25,2.217355782608345,2.1717214584350586
0,,101,2024-06-20 14:27:32,3,distance,cathedral,numerosity_judgement,99,2,2,countries_forward,"['_Syria_', '_Togo_']","['m', 'm']","['p229', 'p307']","[7, 5]","[91.73820004985969, 90.34149293193902]",5,False,8.0,1.4142135623730951,30.216634035110474
0,,101,2024-06-20 14:27:36,3,distance,cathedral,numerosity_judgement,99,3,3,countries_forward,"['_Togo_', '_Cuba_', '_Mali_']","['m', 'm', 'm']","['p307', 'p256', 'p229']","[1, 9, 10]","[86.2038576498559, 92.00610777531934, 93.00003341222717]",6,False,8.666666666666666,4.932882862316248,2.249842405319214
0,,101,2024-06-20 14:27:48,3,distance,cathedral,numerosity_judgement,99,4,6,countries_forward,"['_Tonga_', '_Peru_', '_Syria_', '_Oman_', '_Sudan_', '_Togo_']","['m', 'm', 'f', 'f', 'f', 'm']","['p318', 'p229', 'p284', 'p268', 'p248', 'p307']","[7, 8, 4, 10, 1, 9]","[91.73820004985969, 92.0152836843556, 89.31368318402099, 93.00003341222717, 86.2038576498559, 92.00610777531934]",5,False,8.5,3.391164991562634,9.405591249465942
0,,101,2024-06-20 14:27:52,3,distance,cathedral,numerosity_judgement,99,5,4,countries_forward,"['_Britain_', '_Cuba_', '_Tonga_', '_Syria_']","['f', 'm', 'm', 'm']","['p268', 'p256', 'p318', 'p307']","[6, 9, 10, 4]","[91.58892582949886, 92.00610777531934, 93.00003341222717, 89.31368318402099]",3,False,9.25,2.753785273643051,2.5623221397399902
0,,101,2024-06-20 14:27:57,3,distance,cathedral,numerosity_judgement,99,6,5,countries_forward,"['_Mali_', '_Japan_', '_Tonga_', '_Belgium_', '_Sudan_']","['m', 'm', 'f', 'f', 'm']","['p318', 'p256', 'p268', 'p248', 'p229']","[2, 1, 4, 9, 6]","[87.57049330475357, 86.2038576498559, 89.31368318402099, 92.00610777531934, 91.58892582949886]",4,False,6.4,3.2093613071762426,3.077908992767334
0,,101,2024-06-20 14:28:02,3,distance,cathedral,numerosity_judgement,99,7,6,countries_forward,"['_Peru_', '_Togo_', '_Cuba_', '_Yemen_', '_Japan_', '_Mali_']","['m', 'f', 'm', 'm', 'f', 'm']","['p318', 'p284', 'p229', 'p256', 'p268', 'p307']","[8, 1, 7, 6, 3, 10]","[92.0152836843556, 86.2038576498559, 91.73820004985969, 91.58892582949886, 89.14911522239515, 93.00003341222717]",5,False,7.833333333333333,3.3115957885386114,2.452953577041626
0,,101,2024-06-20 14:28:06,3,distance,cathedral,numerosity_judgement,99,8,2,countries_forward,"['_Congo_', '_Mali_']","['f', 'm']","['p284', 'p229']","[3, 5]","[89.14911522239515, 90.34149293193902]",5,False,6.0,1.4142135623730951,2.437328815460205
0,,101,2024-06-20 14:28:10,3,distance,cathedral,numerosity_judgement,99,9,3,countries_forward,"['_Congo_', '_Peru_', '_Syria_']","['f', 'm', 'f']","['p248', 'p256', 'p284']","[6, 9, 10]","[91.58892582949886, 92.00610777531934, 93.00003341222717]",2,False,10.333333333333334,2.0816659994661326,2.546696424484253
0,,101,2024-06-20 14:28:14,3,distance,cathedral,numerosity_judgement,99,10,5,countries_forward,"['_Oman_', '_Japan_', '_Togo_', '_Cuba_', '_Yemen_']","['m', 'm', 'm', 'm', 'f']","['p307', 'p256', 'p229', 'p318', 'p268']","[9, 5, 6, 7, 3]","[92.00610777531934, 90.34149293193902, 91.58892582949886, 91.73820004985969, 89.14911522239515]",4,False,8.0,2.23606797749979,2.3592112064361572
0,,101,2024-06-20 14:30:41,3,distance,cathedral,numerosity_judgement,99,0,3,countries_forward,"['_Japan_', '_Yemen_', '_Cuba_']","['m', 'm', 'f']","['p229', 'p307', 'p245']","[2, 3, 5]","[87.57049330475357, 89.14911522239515, 90.34149293193902]",2,False,5.333333333333333,1.5275252316519465,3.546626567840576
0,,101,2024-06-20 14:30:46,3,distance,cathedral,numerosity_judgement,99,1,6,countries_forward,"['_Congo_', '_Sudan_', '_Cuba_', '_Japan_', '_Britain_', '_Yemen_']","['f', 'm', 'f', 'm', 'm', 'f']","['p268', 'p229', 'p245', 'p318', 'p307', 'p248']","[10, 9, 7, 1, 5, 8]","[93.00003341222717, 92.00610777531934, 91.73820004985969, 86.2038576498559, 90.34149293193902, 92.0152836843556]",5,False,8.666666666666666,3.265986323710904,2.7185604572296143
0,,101,2024-06-20 14:30:51,3,distance,cathedral,numerosity_judgement,99,2,5,countries_forward,"['_Oman_', '_Peru_', '_Togo_', '_Cuba_', '_Syria_']","['m', 'f', 'f', 'f', 'm']","['p307', 'p284', 'p268', 'p248', 'p256']","[1, 6, 3, 2, 5]","[86.2038576498559, 91.58892582949886, 89.14911522239515, 87.57049330475357, 90.34149293193902]",3,False,5.4,2.073644135332772,2.3435816764831543
0,,101,2024-06-20 14:30:56,3,distance,cathedral,numerosity_judgement,99,3,4,countries_forward,"['_Congo_', '_Yemen_', '_Cuba_', '_Oman_']","['f', 'f', 'f', 'm']","['p268', 'p248', 'p284', 'p256']","[4, 6, 8, 7]","[89.31368318402099, 91.58892582949886, 92.0152836843556, 91.73820004985969]",5,False,8.25,1.707825127659933,2.6873111724853516
0,,101,2024-06-20 14:30:59,3,distance,cathedral,numerosity_judgement,99,4,2,countries_forward,"['_Oman_', '_Britain_']","['m', 'm']","['p229', 'p318']","[9, 3]","[92.00610777531934, 89.14911522239515]",1,False,8.0,4.242640687119285,2.187347412109375
0,,101,2024-06-20 14:31:03,3,distance,cathedral,numerosity_judgement,99,5,4,countries_forward,"['_Mali_', '_Oman_', '_Belgium_', '_Congo_']","['m', 'f', 'f', 'f']","['p256', 'p248', 'p245', 'p268']","[3, 5, 1, 9]","[89.14911522239515, 90.34149293193902, 86.2038576498559, 92.00610777531934]",6,False,6.5,3.415650255319866,1.984239101409912
0,,101,2024-06-20 14:31:10,3,distance,cathedral,numerosity_judgement,99,6,3,countries_forward,"['_Sudan_', '_Japan_', '_Belgium_']","['m', 'm', 'f']","['p229', 'p307', 'p268']","[9, 7, 3]","[92.00610777531934, 91.73820004985969, 89.14911522239515]",6,False,8.333333333333334,3.055050463303893,5.249631643295288
0,,101,2024-06-20 14:31:15,3,distance,cathedral,numerosity_judgement,99,7,6,countries_forward,"['_Mali_', '_Yemen_', '_Oman_', '_Tonga_', '_Peru_', '_Belgium_']","['f', 'm', 'm', 'f', 'f', 'm']","['p248', 'p318', 'p229', 'p268', 'p245', 'p307']","[5, 9, 4, 6, 1, 3]","[90.34149293193902, 92.00610777531934, 89.31368318402099, 91.58892582949886, 86.2038576498559, 89.14911522239515]",6,True,6.666666666666667,2.7325202042558927,2.2810893058776855
0,,101,2024-06-20 14:31:19,3,distance,cathedral,numerosity_judgement,99,8,5,countries_forward,"['_Syria_', '_Britain_', '_Tonga_', '_Cuba_', '_Sudan_']","['m', 'm', 'f', 'm', 'm']","['p256', 'p229', 'p268', 'p307', 'p318']","[5, 8, 3, 6, 9]","[90.34149293193902, 92.0152836843556, 89.14911522239515, 91.58892582949886, 92.00610777531934]",3,False,8.2,2.3874672772626644,1.765505075454712
0,,101,2024-06-20 14:31:22,3,distance,cathedral,numerosity_judgement,99,9,2,countries_forward,"['_Cuba_', '_Belgium_']","['f', 'f']","['p268', 'p248']","[10, 5]","[93.00003341222717, 90.34149293193902]",3,False,9.5,3.5355339059327378,1.5936367511749268
0,,101,2024-06-20 14:31:24,3,distance,cathedral,numerosity_judgement,99,10,3,countries_forward,"['_Cuba_', '_Japan_', '_Togo_']","['m', 'f', 'f']","['p318', 'p268', 'p248']","[0, 1, 6]","[84.40078082039426, 86.2038576498559, 91.58892582949886]",3,True,4.333333333333333,3.2145502536643185,0.6249558925628662
0,,101,2024-06-20 14:31:27,3,distance,cathedral,numerosity_judgement,99,11,2,countries_forward,"['_Peru_', '_Yemen_']","['m', 'm']","['p229', 'p318']","[4, 9]","[89.31368318402099, 92.00610777531934]",3,False,8.5,3.5355339059327378,1.1249234676361084
0,,101,2024-06-20 14:31:32,3,distance,cathedral,numerosity_judgement,99,12,6,countries_forward,"['_Yemen_', '_Sudan_', '_Mali_', '_Oman_', '_Peru_', '_Cuba_']","['f', 'm', 'f', 'm', 'f', 'f']","['p245', 'p256', 'p284', 'p318', 'p268', 'p248']","[2, 3, 1, 9, 5, 10]","[87.57049330475357, 89.14911522239515, 86.2038576498559, 92.00610777531934, 90.34149293193902, 93.00003341222717]",3,False,7.0,3.7416573867739413,2.9997923374176025
0,,101,2024-06-20 14:31:35,3,distance,cathedral,numerosity_judgement,99,13,5,countries_forward,"['_Sudan_', '_Britain_', '_Peru_', '_Syria_', '_Oman_']","['m', 'f', 'm', 'f', 'f']","['p307', 'p245', 'p256', 'p248', 'p284']","[6, 5, 10, 4, 3]","[91.58892582949886, 90.34149293193902, 93.00003341222717, 89.31368318402099, 89.14911522239515]",3,False,7.6,2.701851217221259,1.0936760902404785
0,,101,2024-06-20 14:31:38,3,distance,cathedral,numerosity_judgement,99,14,4,countries_forward,"['_Mali_', '_Peru_', '_Britain_', '_Oman_']","['m', 'm', 'f', 'm']","['p318', 'p256', 'p268', 'p307']","[6, 3, 4, 9]","[91.58892582949886, 89.14911522239515, 89.31368318402099, 92.00610777531934]",3,False,7.5,2.6457513110645907,0.8124434947967529
0,,101,2024-06-20 14:31:41,3,distance,cathedral,numerosity_judgement,99,15,3,countries_forward,"['_Mali_', '_Yemen_', '_Tonga_']","['f', 'f', 'm']","['p268', 'p248', 'p229']","[3, 4, 6]","[89.14911522239515, 89.31368318402099, 91.58892582949886]",3,True,6.333333333333333,1.5275252316519465,1.062425136566162
0,,101,2024-06-20 14:44:14,3,distance,cathedral,numerosity_judgement,99,0,4,countries_forward,"['_Britain_', '_Peru_', '_Tonga_', '_Sudan_']","['f', 'm', 'm', 'f']","['p248', 'p307', 'p229', 'p245']","[6, 2, 8, 4]","[91.58892582949886, 87.57049330475357, 92.0152836843556, 89.31368318402099]",5,False,7.0,2.581988897471611,1.9842360019683838,0.8933014354066986
0,,101,2024-06-20 14:44:29,3,distance,cathedral,numerosity_judgement,99,1,3,countries_forward,"['_Belgium_', '_Congo_', '_Syria_']","['f', 'f', 'm']","['p248', 'p245', 'p256']","[8, 0, 10]","[92.0152836843556, 84.40078082039426, 93.00003341222717]",5,False,8.0,5.291502622129181,13.405310869216919,0.9294463431305536
0,,101,2024-06-20 14:44:42,3,distance,cathedral,numerosity_judgement,99,2,6,countries_forward,"['_Oman_', '_Cuba_', '_Tonga_', '_Britain_', '_Japan_', '_Peru_']","['m', 'm', 'f', 'm', 'm', 'f']","['p307', 'p229', 'p268', 'p318', 'p256', 'p248']","[5, 8, 10, 4, 2, 3]","[90.34149293193902, 92.0152836843556, 93.00003341222717, 89.31368318402099, 87.57049330475357, 89.14911522239515]",6,True,7.333333333333333,3.0767948691238205,10.233659744262695,0.7582911825017088
0,,101,2024-06-20 14:44:52,3,distance,cathedral,numerosity_judgement,99,3,5,countries_forward,"['_Peru_', '_Congo_', '_Oman_', '_Mali_', '_Yemen_']","['f', 'f', 'm', 'm', 'm']","['p268', 'p248', 'p229', 'p256', 'p318']","[6, 0, 7, 5, 2]","[91.58892582949886, 84.40078082039426, 91.73820004985969, 90.34149293193902, 87.57049330475357]",5,True,6.0,2.9154759474226504,7.546347379684448,0.7387423103212577
0,,101,2024-06-20 14:44:59,3,distance,cathedral,numerosity_judgement,99,4,2,countries_forward,"['_Britain_', '_Congo_']","['m', 'm']","['p256', 'p307']","[5, 8]","[90.34149293193902, 92.0152836843556]",3,False,8.5,2.1213203435596424,5.343378782272339,0.708503075871497
0,,101,2024-06-20 14:45:04,3,distance,cathedral,numerosity_judgement,99,5,3,countries_forward,"['_Britain_', '_Cuba_', '_Mali_']","['m', 'f', 'f']","['p229', 'p248', 'p245']","[6, 0, 3]","[91.58892582949886, 84.40078082039426, 89.14911522239515]",4,False,5.0,3.0,2.796677827835083,0.7822419685577581
0,,101,2024-06-20 14:45:10,3,distance,cathedral,numerosity_judgement,99,6,6,countries_forward,"['_Sudan_', '_Belgium_', '_Congo_', '_Japan_', '_Oman_', '_Mali_']","['m', 'f', 'f', 'm', 'f', 'm']","['p256', 'p268', 'p245', 'p318', 'p284', 'p307']","[10, 1, 7, 4, 2, 9]","[93.00003341222717, 86.2038576498559, 91.73820004985969, 89.31368318402099, 87.57049330475357, 92.00610777531934]",7,False,7.5,3.7282703764614498,3.9372267723083496,0.8914012303485987
0,,101,2024-06-20 14:45:15,3,distance,cathedral,numerosity_judgement,99,7,2,countries_forward,"['_Sudan_', '_Cuba_']","['m', 'f']","['p229', 'p248']","[8, 4]","[92.0152836843556, 89.31368318402099]",2,True,8.0,2.8284271247461903,3.21852445602417,0.911373889268626
0,,101,2024-06-20 14:45:20,3,distance,cathedral,numerosity_judgement,99,8,4,countries_forward,"['_Oman_', '_Congo_', '_Sudan_', '_Cuba_']","['m', 'f', 'f', 'm']","['p307', 'p248', 'p268', 'p256']","[10, 2, 3, 4]","[93.00003341222717, 87.57049330475357, 89.14911522239515, 89.31368318402099]",3,False,6.75,3.593976442141304,2.390458822250366,0.8491182501708817
0,,101,2024-06-20 14:45:24,3,distance,cathedral,numerosity_judgement,99,9,5,countries_forward,"['_Syria_', '_Sudan_', '_Togo_', '_Cuba_', '_Peru_']","['f', 'f', 'm', 'm', 'f']","['p245', 'p284', 'p229', 'p256', 'p268']","[10, 3, 7, 2, 8]","[93.00003341222717, 89.14911522239515, 91.73820004985969, 87.57049330475357, 92.0152836843556]",5,True,8.0,3.391164991562634,2.5935680866241455,0.9124675324675324
0,,101,2024-06-20 14:45:29,3,distance,cathedral,numerosity_judgement,99,10,3,countries_forward,"['_Cuba_', '_Congo_', '_Japan_']","['m', 'f', 'f']","['p229', 'p248', 'p268']","[2, 4, 10]","[87.57049330475357, 89.31368318402099, 93.00003341222717]",6,False,7.333333333333333,4.163331998932266,2.9216699600219727,0.771660970608339
0,,101,2024-06-20 14:45:34,3,distance,cathedral,numerosity_judgement,99,11,2,countries_forward,"['_Sudan_', '_Belgium_']","['f', 'm']","['p268', 'p318']","[1, 2]","[86.2038576498559, 87.57049330475357]",2,True,3.5,0.7071067811865476,2.5779449939727783,0.971989063568011
0,,101,2024-06-20 14:45:39,3,distance,cathedral,numerosity_judgement,99,12,4,countries_forward,"['_Yemen_', '_Peru_', '_Mali_', '_Britain_']","['f', 'm', 'f', 'm']","['p248', 'p307', 'p284', 'p318']","[5, 7, 0, 9]","[90.34149293193902, 91.73820004985969, 84.40078082039426, 92.00610777531934]",6,False,7.25,3.8622100754188224,2.7185630798339844,0.703403964456596
0,,101,2024-06-20 14:45:43,3,distance,cathedral,numerosity_judgement,99,13,5,countries_forward,"['_Tonga_', '_Mali_', '_Togo_', '_Sudan_', '_Belgium_']","['m', 'f', 'm', 'f', 'm']","['p318', 'p268', 'p307', 'p284', 'p256']","[2, 1, 7, 0, 8]","[87.57049330475357, 86.2038576498559, 91.73820004985969, 84.40078082039426, 92.0152836843556]",7,False,5.6,3.6469165057620936,2.2029709815979004,0.8969788106630212
0,,101,2024-06-20 14:45:48,3,distance,cathedral,numerosity_judgement,99,14,6,countries_forward,"['_Syria_', '_Belgium_', '_Mali_', '_Sudan_', '_Togo_', '_Britain_']","['f', 'm', 'm', 'f', 'm', 'f']","['p248', 'p318', 'p229', 'p245', 'p307', 'p268']","[4, 8, 9, 1, 2, 7]","[89.31368318402099, 92.0152836843556, 92.00610777531934, 86.2038576498559, 87.57049330475357, 91.73820004985969]",3,False,7.166666666666667,3.3115957885386114,2.0779788494110107,0.9066985645933014
0,,101,2024-06-20 14:46:22,3,distance,cathedral,numerosity_judgement,99,15,3,countries_forward,"['_Cuba_', '_Japan_', '_Oman_']","['m', 'm', 'f']","['p229', 'p256', 'p284']","[8, 1, 0]","[92.0152836843556, 86.2038576498559, 84.40078082039426]",3,True,5.0,4.358898943540674,32.044633865356445,0.8161722488038278
0,,101,2024-06-20 14:46:26,3,distance,cathedral,numerosity_judgement,99,16,5,countries_forward,"['_Mali_', '_Togo_', '_Yemen_', '_Peru_', '_Oman_']","['m', 'f', 'm', 'f', 'm']","['p307', 'p268', 'p229', 'p284', 'p318']","[1, 3, 5, 7, 0]","[86.2038576498559, 89.14911522239515, 90.34149293193902, 91.73820004985969, 84.40078082039426]",2,False,5.2,2.863564212655271,1.8279995918273926,0.7138619275461381
0,,101,2024-06-20 14:46:30,3,distance,cathedral,numerosity_judgement,99,17,2,countries_forward,"['_Oman_', '_Congo_']","['m', 'f']","['p256', 'p268']","[3, 4]","[89.14911522239515, 89.31368318402099]",2,True,5.5,0.7071067811865476,2.2654669284820557,0.638796992481203
0,,101,2024-06-20 14:46:34,3,distance,cathedral,numerosity_judgement,99,18,4,countries_forward,"['_Congo_', '_Cuba_', '_Belgium_', '_Syria_']","['m', 'm', 'f', 'm']","['p307', 'p229', 'p248', 'p256']","[9, 2, 4, 3]","[92.00610777531934, 87.57049330475357, 89.31368318402099, 89.14911522239515]",3,False,6.5,3.1091263510296048,1.9842369556427002,0.857922077922078
0,,101,2024-06-20 14:46:39,3,distance,cathedral,numerosity_judgement,99,19,6,countries_forward,"['_Cuba_', '_Sudan_', '_Syria_', '_Mali_', '_Britain_', '_Yemen_']","['m', 'f', 'f', 'f', 'f', 'm']","['p229', 'p284', 'p245', 'p248', 'p268', 'p256']","[2, 1, 6, 8, 9, 0]","[87.57049330475357, 86.2038576498559, 91.58892582949886, 92.0152836843556, 92.00610777531934, 84.40078082039426]",5,False,6.333333333333333,3.8297084310253524,2.812303066253662,0.8676965140123035
0,,101,2024-06-20 14:46:44,3,distance,cathedral,numerosity_judgement,99,20,5,countries_forward,"['_Syria_', '_Oman_', '_Tonga_', '_Belgium_', '_Peru_']","['m', 'm', 'f', 'm', 'm']","['p256', 'p318', 'p268', 'p229', 'p307']","[10, 0, 2, 1, 3]","[93.00003341222717, 84.40078082039426, 87.57049330475357, 86.2038576498559, 89.14911522239515]",6,False,5.2,3.96232255123179,2.3123395442962646,0.7900068352699932
0,,101,2024-06-20 14:46:48,3,distance,cathedral,numerosity_judgement,99,21,4,countries_forward,"['_Syria_', '_Britain_', '_Oman_', '_Congo_']","['f', 'm', 'f', 'm']","['p284', 'p256', 'p245', 'p229']","[3, 1, 7, 6]","[89.14911522239515, 86.2038576498559, 91.73820004985969, 91.58892582949886]",2,False,6.25,2.753785273643051,2.046732187271118,0.9083116883116884
0,,101,2024-06-20 14:46:52,3,distance,cathedral,numerosity_judgement,99,22,3,countries_forward,"['_Oman_', '_Japan_', '_Yemen_']","['m', 'f', 'f']","['p307', 'p284', 'p268']","[5, 1, 10]","[90.34149293193902, 86.2038576498559, 93.00003341222717]",2,False,7.333333333333333,4.509249752822894,1.6561369895935059,0.7071086807928914
0,,101,2024-06-20 14:46:54,3,distance,cathedral,numerosity_judgement,99,23,2,countries_forward,"['_Peru_', '_Cuba_']","['m', 'm']","['p318', 'p307']","[5, 2]","[90.34149293193902, 87.57049330475357]",2,True,5.5,2.1213203435596424,0.6562047004699707,0.7139712918660287
0,,101,2024-06-20 14:46:57,3,distance,cathedral,numerosity_judgement,99,24,6,countries_forward,"['_Syria_', '_Cuba_', '_Japan_', '_Togo_', '_Sudan_', '_Congo_']","['f', 'f', 'm', 'm', 'f', 'm']","['p248', 'p245', 'p229', 'p307', 'p284', 'p318']","[5, 0, 4, 1, 9, 7]","[90.34149293193902, 84.40078082039426, 89.31368318402099, 86.2038576498559, 92.00610777531934, 91.73820004985969]",3,False,6.333333333333333,3.444802848737017,0.7968199253082275,0.9566643882433356
0,,101,2024-06-20 14:47:00,3,distance,cathedral,numerosity_judgement,99,25,4,countries_forward,"['_Oman_', '_Yemen_', '_Mali_', '_Togo_']","['m', 'f', 'm', 'f']","['p229', 'p268', 'p256', 'p248']","[4, 9, 10, 0]","[89.31368318402099, 92.00610777531934, 93.00003341222717, 84.40078082039426]",4,True,7.75,4.645786621588784,0.8124444484710693,0.7351879699248121
0,,101,2024-06-20 14:47:03,3,distance,cathedral,numerosity_judgement,99,26,3,countries_forward,"['_Britain_', '_Japan_', '_Belgium_']","['f', 'm', 'f']","['p268', 'p229', 'p284']","[3, 8, 5]","[89.14911522239515, 92.0152836843556, 90.34149293193902]",2,False,7.333333333333333,2.516611478423583,0.8124432563781738,0.9076008202323992
0,,101,2024-06-20 14:47:06,3,distance,cathedral,numerosity_judgement,99,27,6,countries_forward,"['_Cuba_', '_Syria_', '_Congo_', '_Togo_', '_Belgium_', '_Oman_']","['f', 'm', 'f', 'f', 'm', 'm']","['p248', 'p256', 'p245', 'p268', 'p318', 'p307']","[6, 9, 1, 7, 3, 5]","[91.58892582949886, 92.00610777531934, 86.2038576498559, 91.73820004985969, 89.14911522239515, 90.34149293193902]",3,False,7.166666666666667,2.857738033247041,0.874936580657959,0.7876418318523581
0,,101,2024-06-20 14:47:09,3,distance,cathedral,numerosity_judgement,99,28,5,countries_forward,"['_Cuba_', '_Belgium_', '_Congo_', '_Sudan_', '_Togo_']","['m', 'f', 'm', 'f', 'm']","['p256', 'p268', 'p307', 'p245', 'p318']","[7, 1, 9, 6, 2]","[91.73820004985969, 86.2038576498559, 92.00610777531934, 91.58892582949886, 87.57049330475357]",4,False,7.0,3.391164991562634,0.7343230247497559,0.8671086807928913
0,,101,2024-06-20 14:47:12,3,distance,cathedral,numerosity_judgement,99,29,2,countries_forward,"['_Japan_', '_Peru_']","['f', 'f']","['p284', 'p268']","[5, 2]","[90.34149293193902, 87.57049330475357]",3,False,5.5,2.1213203435596424,1.3905279636383057,0.9406288448393711
0,,101,2024-06-20 14:47:15,3,distance,cathedral,numerosity_judgement,99,30,5,countries_forward,"['_Sudan_', '_Congo_', '_Syria_', '_Belgium_', '_Cuba_']","['m', 'm', 'f', 'm', 'f']","['p318', 'p229', 'p284', 'p256', 'p248']","[1, 2, 7, 8, 9]","[86.2038576498559, 87.57049330475357, 91.73820004985969, 92.0152836843556, 92.00610777531934]",4,False,7.4,3.6469165057620936,1.1717932224273682,0.9091455912508544
0,,101,2024-06-20 14:47:18,3,distance,cathedral,numerosity_judgement,99,31,4,countries_forward,"['_Oman_', '_Peru_', '_Sudan_', '_Togo_']","['m', 'f', 'f', 'f']","['p318', 'p245', 'p248', 'p268']","[5, 10, 4, 9]","[90.34149293193902, 93.00003341222717, 89.31368318402099, 92.00610777531934]",3,False,9.0,2.943920288775949,0.6093344688415527,0.8776896787423103
0,,101,2024-06-20 14:47:21,3,distance,cathedral,numerosity_judgement,99,32,6,countries_forward,"['_Peru_', '_Tonga_', '_Oman_', '_Togo_', '_Sudan_', '_Britain_']","['f', 'm', 'm', 'm', 'f', 'f']","['p268', 'p307', 'p256', 'p229', 'p245', 'p284']","[2, 1, 9, 8, 4, 5]","[87.57049330475357, 86.2038576498559, 92.00610777531934, 92.0152836843556, 89.31368318402099, 90.34149293193902]",2,False,6.833333333333333,3.188521078284832,0.8124427795410156,0.8986876281613124
0,,101,2024-06-20 14:47:23,3,distance,cathedral,numerosity_judgement,99,33,2,countries_forward,"['_Congo_', '_Britain_']","['f', 'm']","['p268', 'p229']","[4, 10]","[89.31368318402099, 93.00003341222717]",3,False,9.0,4.242640687119285,0.859316349029541,0.8694326725905673
0,,101,2024-06-20 14:47:27,3,distance,cathedral,numerosity_judgement,99,34,3,countries_forward,"['_Oman_', '_Yemen_', '_Cuba_']","['m', 'm', 'f']","['p307', 'p229', 'p248']","[10, 5, 0]","[93.00003341222717, 90.34149293193902, 84.40078082039426]",3,True,7.0,5.0,1.5155186653137207,0.6635133287764867
0,,101,2024-06-20 14:47:31,3,distance,cathedral,numerosity_judgement,99,35,4,countries_forward,"['_Tonga_', '_Congo_', '_Oman_', '_Japan_']","['m', 'f', 'f', 'm']","['p229', 'p268', 'p245', 'p307']","[9, 7, 0, 2]","[92.00610777531934, 91.73820004985969, 84.40078082039426, 87.57049330475357]",3,False,6.5,4.203173404306164,1.6561338901519775,0.7948051948051948
0,,101,2024-06-20 14:47:33,3,distance,cathedral,numerosity_judgement,99,36,6,countries_forward,"['_Cuba_', '_Togo_', '_Belgium_', '_Oman_', '_Congo_', '_Peru_']","['f', 'm', 'f', 'm', 'f', 'f']","['p248', 'p256', 'p284', 'p307', 'p245', 'p268']","[2, 9, 3, 5, 10, 0]","[87.57049330475357, 92.00610777531934, 89.14911522239515, 90.34149293193902, 93.00003341222717, 84.40078082039426]",3,False,6.833333333333333,3.970726214015097,0.0,0.8004101161995899
0,,101,2024-06-20 14:47:36,3,distance,cathedral,numerosity_judgement,99,37,5,countries_forward,"['_Tonga_', '_Syria_', '_Congo_', '_Britain_', '_Togo_']","['f', 'f', 'f', 'm', 'f']","['p284', 'p268', 'p248', 'p307', 'p245']","[0, 2, 3, 9, 4]","[84.40078082039426, 87.57049330475357, 89.14911522239515, 92.00610777531934, 89.31368318402099]",3,False,5.6,3.361547262794322,0.7499475479125977,0.9232125768967874
0,,101,2024-06-20 14:47:53,3,distance,cathedral,numerosity_judgement,99,38,3,countries_forward,"['_Sudan_', '_Syria_', '_Britain_']","['f', 'f', 'm']","['p284', 'p245', 'p256']","[4, 10, 0]","[89.31368318402099, 93.00003341222717, 84.40078082039426]",5,False,6.666666666666667,5.033222956847167,15.217683792114258,0.9485577580314424
0,,101,2024-06-20 14:47:58,3,distance,cathedral,numerosity_judgement,99,39,2,countries_forward,"['_Yemen_', '_Togo_']","['m', 'm']","['p256', 'p229']","[7, 10]","[91.73820004985969, 93.00003341222717]",4,False,10.5,2.1213203435596424,2.6560635566711426,0.7563909774436091
0,,101,2024-06-20 14:48:02,3,distance,cathedral,numerosity_judgement,99,40,5,countries_forward,"['_Yemen_', '_Mali_', '_Japan_', '_Congo_', '_Belgium_']","['m', 'm', 'f', 'f', 'f']","['p307', 'p256', 'p245', 'p284', 'p268']","[7, 2, 4, 0, 5]","[91.73820004985969, 87.57049330475357, 89.31368318402099, 84.40078082039426, 90.34149293193902]",1,False,5.6,2.701851217221259,2.577943801879883,0.7836773752563226
0,,101,2024-06-20 14:48:09,3,distance,cathedral,numerosity_judgement,99,41,2,countries_forward,"['_Belgium_', '_Sudan_']","['m', 'f']","['p307', 'p268']","[3, 6]","[89.14911522239515, 91.58892582949886]",2,True,6.5,2.1213203435596424,4.171584844589233,0.9480109364319892
0,,101,2024-06-20 14:48:13,3,distance,cathedral,numerosity_judgement,99,42,6,countries_forward,"['_Peru_', '_Togo_', '_Cuba_', '_Yemen_', '_Japan_', '_Mali_']","['m', 'f', 'm', 'm', 'f', 'm']","['p318', 'p284', 'p229', 'p256', 'p268', 'p307']","[8, 1, 7, 6, 3, 10]","[92.0152836843556, 86.2038576498559, 91.73820004985969, 91.58892582949886, 89.14911522239515, 93.00003341222717]",5,False,7.833333333333333,3.3115957885386114,2.3748347759246826,0.7336705399863295
