,event_id,timestamp,subject_id,session_index,plane,setup,task,block,trial_index,stim_type,headpose_offset_azi,headpose_offset_ele,stim_filename,stim_level,mgb_level,fluctuation,speaker_id,speaker_proc,speaker_chan,stim_azi,stim_ele,stim_dist,resp_azi,resp_ele,resp_dist,reaction_time
0,,2024-06-26 13:01:10,sub_105,3,distance,cathedral,localisation_accuracy,1,0,pinknoise,,,pinknoise_0.wav,92.75173572491119,30,-0.3470461902179458,10,RX81,11,0.0,0.0,12.0,0,0,10.596774193548388,6.671329498291016
0,,2024-06-26 13:01:14,sub_105,3,distance,cathedral,localisation_accuracy,1,1,pinknoise,,,pinknoise_8.wav,87.62379006158214,30,0.07726574832368927,2,RX81,3,0.0,0.0,4.0,0,0,2.928152492668622,3.0466108322143555
0,,2024-06-26 13:01:18,sub_105,3,distance,cathedral,localisation_accuracy,1,2,pinknoise,,,pinknoise_6.wav,89.45453735502747,30,0.18867155363091048,4,RX81,5,0.0,0.0,6.0,0,0,5.391495601173021,2.7185285091400146
0,,2024-06-26 13:01:21,sub_105,3,distance,cathedral,localisation_accuracy,1,3,pinknoise,,,pinknoise_3.wav,91.82508343534592,30,0.33850335929725295,6,RX81,7,0.0,0.0,8.0,0,0,7.913489736070382,1.7342281341552734
0,,2024-06-26 13:01:24,sub_105,3,distance,cathedral,localisation_accuracy,1,4,pinknoise,,,pinknoise_5.wav,91.8916028771794,30,-0.1741961544409637,8,RX81,9,0.0,0.0,10.0,0,0,10.611436950146627,2.3122878074645996
0,,2024-06-26 13:01:28,sub_105,3,distance,cathedral,localisation_accuracy,1,5,pinknoise,,,pinknoise_4.wav,85.99495953904034,30,-0.30410487610584125,1,RX81,2,0.0,0.0,3.0,0,0,2.2536656891495603,2.5310006141662598
0,,2024-06-26 13:01:31,sub_105,3,distance,cathedral,localisation_accuracy,1,6,pinknoise,,,pinknoise_8.wav,90.36094779901538,30,0.02782788217433796,5,RX81,6,0.0,0.0,7.0,0,0,3.983870967741936,1.343651533126831
0,,2024-06-26 13:01:33,sub_105,3,distance,cathedral,localisation_accuracy,1,7,pinknoise,,,pinknoise_1.wav,92.30931131967407,30,0.42929432623246444,9,RX81,10,0.0,0.0,11.0,0,0,7.121700879765397,1.7967424392700195
0,,2024-06-26 13:01:36,sub_105,3,distance,cathedral,localisation_accuracy,1,8,pinknoise,,,pinknoise_5.wav,91.50537730092233,30,-0.3199255901666036,7,RX81,8,0.0,0.0,9.0,0,0,9.08651026392962,1.5467171669006348
0,,2024-06-26 13:01:39,sub_105,3,distance,cathedral,localisation_accuracy,1,9,pinknoise,,,pinknoise_0.wav,84.2826200743864,30,-0.17513662732933566,0,RX81,1,0.0,0.0,2.0,0,0,2.0337243401759535,1.6873111724853516
0,,2024-06-26 13:01:43,sub_105,3,distance,cathedral,localisation_accuracy,1,10,pinknoise,,,pinknoise_2.wav,89.01165707361352,30,-0.19515472266158118,3,RX81,4,0.0,0.0,5.0,0,0,3.4266862170087977,2.2810401916503906
0,,2024-06-26 13:01:46,sub_105,3,distance,cathedral,localisation_accuracy,1,11,pinknoise,,,pinknoise_3.wav,86.3996192355355,30,0.2878073118747372,1,RX81,2,0.0,0.0,3.0,0,0,2.048387096774194,2.5466244220733643
0,,2024-06-26 13:01:50,sub_105,3,distance,cathedral,localisation_accuracy,1,12,pinknoise,,,pinknoise_7.wav,91.52936516884778,30,-0.08477493778336598,6,RX81,7,0.0,0.0,8.0,0,0,5.860703812316716,2.156026840209961
0,,2024-06-26 13:01:52,sub_105,3,distance,cathedral,localisation_accuracy,1,13,pinknoise,,,pinknoise_4.wav,84.67758643668759,30,0.41431554831283135,0,RX81,1,0.0,0.0,2.0,0,0,1.9310850439882699,1.7185611724853516
0,,2024-06-26 13:01:55,sub_105,3,distance,cathedral,localisation_accuracy,1,14,pinknoise,,,pinknoise_8.wav,89.45160630367921,30,0.4339702727377557,3,RX81,4,0.0,0.0,5.0,0,0,3.7052785923753673,1.624880075454712
0,,2024-06-26 13:01:58,sub_105,3,distance,cathedral,localisation_accuracy,1,15,pinknoise,,,pinknoise_1.wav,90.0668894894483,30,-0.39004780934086947,5,RX81,6,0.0,0.0,7.0,0,0,5.831378299120235,1.3279616832733154
0,,2024-06-26 13:02:01,sub_105,3,distance,cathedral,localisation_accuracy,1,16,pinknoise,,,pinknoise_9.wav,87.32668837556196,30,-0.3509275619392923,2,RX81,3,0.0,0.0,4.0,0,0,2.4882697947214076,1.8747978210449219
0,,2024-06-26 13:02:05,sub_105,3,distance,cathedral,localisation_accuracy,1,17,pinknoise,,,pinknoise_3.wav,89.6188063899946,30,0.4102062381344902,4,RX81,5,0.0,0.0,6.0,0,0,4.409090909090909,2.765380620956421
0,,2024-06-26 13:02:08,sub_105,3,distance,cathedral,localisation_accuracy,1,18,pinknoise,,,pinknoise_3.wav,92.2219300128922,30,0.29332049319453257,8,RX81,9,0.0,0.0,10.0,0,0,6.725806451612904,1.6873321533203125
0,,2024-06-26 13:02:10,sub_105,3,distance,cathedral,localisation_accuracy,1,19,pinknoise,,,pinknoise_4.wav,93.0744482584123,30,0.10479868866730835,10,RX81,11,0.0,0.0,12.0,0,0,8.412023460410557,1.390498161315918
0,,2024-06-26 13:02:13,sub_105,3,distance,cathedral,localisation_accuracy,1,20,pinknoise,,,pinknoise_7.wav,91.97800422412,30,-0.039482729430300734,9,RX81,10,0.0,0.0,11.0,0,0,9.892961876832846,1.2342393398284912
0,,2024-06-26 13:02:16,sub_105,3,distance,cathedral,localisation_accuracy,1,21,pinknoise,,,pinknoise_8.wav,91.49590263932853,30,-0.33287238662161045,7,RX81,8,0.0,0.0,9.0,0,0,8.763929618768328,2.0154130458831787
0,,2024-06-26 13:02:19,sub_105,3,distance,cathedral,localisation_accuracy,1,22,pinknoise,,,pinknoise_9.wav,86.43998309136987,30,0.34749244880181274,1,RX81,2,0.0,0.0,3.0,0,0,2.4442815249266863,2.421635866165161
0,,2024-06-26 13:02:22,sub_105,3,distance,cathedral,localisation_accuracy,1,23,pinknoise,,,pinknoise_7.wav,87.86382141897741,30,0.4277194054621274,2,RX81,3,0.0,0.0,4.0,0,0,2.048387096774194,1.8747973442077637
0,,2024-06-26 13:02:25,sub_105,3,distance,cathedral,localisation_accuracy,1,24,pinknoise,,,pinknoise_6.wav,91.71179023225123,30,-0.03646287954059435,7,RX81,8,0.0,0.0,9.0,0,0,5.156891495601173,1.7185616493225098
0,,2024-06-26 13:02:28,sub_105,3,distance,cathedral,localisation_accuracy,1,25,pinknoise,,,pinknoise_0.wav,92.26151544212496,30,0.3612163388201517,9,RX81,10,0.0,0.0,11.0,0,0,7.019061583577713,1.265486478805542
0,,2024-06-26 13:02:31,sub_105,3,distance,cathedral,localisation_accuracy,1,26,pinknoise,,,pinknoise_8.wav,91.54397334152404,30,-0.06400477242548186,6,RX81,7,0.0,0.0,8.0,0,0,5.215542521994135,2.2653963565826416
0,,2024-06-26 13:02:33,sub_105,3,distance,cathedral,localisation_accuracy,1,27,pinknoise,,,pinknoise_8.wav,89.05461507459692,30,-0.13430233157859728,3,RX81,4,0.0,0.0,5.0,0,0,4.218475073313783,1.187368392944336
0,,2024-06-26 13:02:36,sub_105,3,distance,cathedral,localisation_accuracy,1,28,pinknoise,,,pinknoise_3.wav,92.1010591818389,30,0.1214061597198367,8,RX81,9,0.0,0.0,10.0,0,0,7.429618768328446,1.31233811378479
0,,2024-06-26 13:02:39,sub_105,3,distance,cathedral,localisation_accuracy,1,29,pinknoise,,,pinknoise_5.wav,92.98032755216082,30,-0.027690684352089434,10,RX81,11,0.0,0.0,12.0,0,0,9.262463343108505,2.3122644424438477
0,,2024-06-26 13:02:43,sub_105,3,distance,cathedral,localisation_accuracy,1,30,pinknoise,,,pinknoise_6.wav,90.27176395077873,30,-0.09952735432022053,5,RX81,6,0.0,0.0,7.0,0,0,6.007331378299121,2.1404247283935547
0,,2024-06-26 13:02:45,sub_105,3,distance,cathedral,localisation_accuracy,1,31,pinknoise,,,pinknoise_8.wav,84.23530527619229,30,-0.24497912007987077,0,RX81,1,0.0,0.0,2.0,0,0,2.341642228739003,1.4998462200164795
0,,2024-06-26 13:02:48,sub_105,3,distance,cathedral,localisation_accuracy,1,32,pinknoise,,,pinknoise_4.wav,89.34825342308145,30,0.046196724118161336,4,RX81,5,0.0,0.0,6.0,0,0,3.895894428152493,1.8279483318328857
0,,2024-06-26 13:02:51,sub_105,3,distance,cathedral,localisation_accuracy,1,33,pinknoise,,,pinknoise_6.wav,90.39126108140789,30,0.07123889400490924,5,RX81,6,0.0,0.0,7.0,0,0,5.142228739002933,1.2967426776885986
0,,2024-06-26 13:02:54,sub_105,3,distance,cathedral,localisation_accuracy,1,34,pinknoise,,,pinknoise_7.wav,86.04184907869089,30,-0.23611453163246887,1,RX81,2,0.0,0.0,3.0,0,0,2.1656891495601176,1.8279261589050293
0,,2024-06-26 13:02:57,sub_105,3,distance,cathedral,localisation_accuracy,1,35,pinknoise,,,pinknoise_6.wav,91.73148400056755,30,0.2038853602939611,6,RX81,7,0.0,0.0,8.0,0,0,5.5527859237536665,2.2654166221618652
0,,2024-06-26 13:03:00,sub_105,3,distance,cathedral,localisation_accuracy,1,36,pinknoise,,,pinknoise_7.wav,93.089249850798,30,0.1256874334810345,10,RX81,11,0.0,0.0,12.0,0,0,7.708211143695015,1.0936055183410645
0,,2024-06-26 13:03:02,sub_105,3,distance,cathedral,localisation_accuracy,1,37,pinknoise,,,pinknoise_2.wav,89.44186912993948,30,0.17165425135090606,4,RX81,5,0.0,0.0,6.0,0,0,4.4824046920821115,1.4373505115509033
0,,2024-06-26 13:03:05,sub_105,3,distance,cathedral,localisation_accuracy,1,38,pinknoise,,,pinknoise_5.wav,84.08812582059349,30,-0.46119025618202336,0,RX81,1,0.0,0.0,2.0,0,0,1.7991202346041058,1.6091868877410889
0,,2024-06-26 13:03:08,sub_105,3,distance,cathedral,localisation_accuracy,1,39,pinknoise,,,pinknoise_1.wav,92.15799673150002,30,0.21429133075418982,9,RX81,10,0.0,0.0,11.0,0,0,6.784457478005866,2.031057357788086
0,,2024-06-26 13:03:11,sub_105,3,distance,cathedral,localisation_accuracy,1,40,pinknoise,,,pinknoise_8.wav,89.02587365369614,30,-0.1750298876217229,3,RX81,4,0.0,0.0,5.0,0,0,3.9105571847507337,1.4998464584350586
0,,2024-06-26 13:03:14,sub_105,3,distance,cathedral,localisation_accuracy,1,41,pinknoise,,,pinknoise_5.wav,92.15581992335265,30,0.1991710395584141,8,RX81,9,0.0,0.0,10.0,0,0,6.432551319648094,2.4372804164886475
0,,2024-06-26 13:03:18,sub_105,3,distance,cathedral,localisation_accuracy,1,42,pinknoise,,,pinknoise_8.wav,87.66573600528577,30,0.1382158309492888,2,RX81,3,0.0,0.0,4.0,0,0,3.0014662756598245,2.1091561317443848
0,,2024-06-26 13:03:21,sub_105,3,distance,cathedral,localisation_accuracy,1,43,pinknoise,,,pinknoise_5.wav,91.78270882961968,30,0.06155175718436845,7,RX81,8,0.0,0.0,9.0,0,0,7.136363636363637,1.9529380798339844
0,,2024-06-26 13:03:24,sub_105,3,distance,cathedral,localisation_accuracy,1,44,pinknoise,,,pinknoise_7.wav,91.35649704734777,30,-0.3294704381713034,6,RX81,7,0.0,0.0,8.0,0,0,5.244868035190616,1.687333345413208
0,,2024-06-26 13:03:26,sub_105,3,distance,cathedral,localisation_accuracy,1,45,pinknoise,,,pinknoise_9.wav,84.40433072795477,30,0.005277518626594424,0,RX81,1,0.0,0.0,2.0,0,0,1.6524926686217012,1.499823808670044
0,,2024-06-26 13:03:30,sub_105,3,distance,cathedral,localisation_accuracy,1,46,pinknoise,,,pinknoise_6.wav,87.7187403240332,30,0.2154111039717117,2,RX81,3,0.0,0.0,4.0,0,0,1.8870967741935485,2.249772310256958
0,,2024-06-26 13:03:32,sub_105,3,distance,cathedral,localisation_accuracy,1,47,pinknoise,,,pinknoise_7.wav,85.96175651601803,30,-0.3521556736406579,1,RX81,2,0.0,0.0,3.0,0,0,1.3445747800586512,1.452974557876587
0,,2024-06-26 13:03:36,sub_105,3,distance,cathedral,localisation_accuracy,1,48,pinknoise,,,pinknoise_8.wav,92.17537211224042,30,0.23890261154056713,9,RX81,10,0.0,0.0,11.0,0,0,4.409090909090909,2.5153982639312744
0,,2024-06-26 13:03:40,sub_105,3,distance,cathedral,localisation_accuracy,1,49,pinknoise,,,pinknoise_3.wav,92.81167386206042,30,-0.26363989767263085,10,RX81,11,0.0,0.0,12.0,0,0,5.626099706744869,2.5153794288635254
0,,2024-06-26 13:03:43,sub_105,3,distance,cathedral,localisation_accuracy,1,50,pinknoise,,,pinknoise_7.wav,92.02818492870206,30,0.40329973261456853,7,RX81,8,0.0,0.0,9.0,0,0,5.186217008797654,2.3903887271881104
0,,2024-06-26 13:03:46,sub_105,3,distance,cathedral,localisation_accuracy,1,51,pinknoise,,,pinknoise_8.wav,89.1646161581071,30,-0.1983883931757524,4,RX81,5,0.0,0.0,6.0,0,0,4.350439882697947,1.5154502391815186
0,,2024-06-26 13:03:49,sub_105,3,distance,cathedral,localisation_accuracy,1,52,pinknoise,,,pinknoise_7.wav,90.41184089082584,30,0.10074656592680209,5,RX81,6,0.0,0.0,7.0,0,0,3.7199413489736077,1.734203577041626
0,,2024-06-26 13:03:53,sub_105,3,distance,cathedral,localisation_accuracy,1,53,pinknoise,,,pinknoise_3.wav,91.76653318789892,30,-0.34931990081079567,8,RX81,9,0.0,0.0,10.0,0,0,5.875366568914957,2.437279224395752
0,,2024-06-26 13:03:56,sub_105,3,distance,cathedral,localisation_accuracy,1,54,pinknoise,,,pinknoise_5.wav,89.07461549317966,30,-0.10592825669924455,3,RX81,4,0.0,0.0,5.0,0,0,3.4853372434017595,2.109178304672241
0,,2024-06-26 13:04:04,sub_105,3,distance,cathedral,localisation_accuracy,2,0,pinknoise,,,pinknoise_8.wav,87.65702080240084,30,0.12554193849865813,2,RX81,3,0.0,0.0,4.0,0,0,1.6671554252199416,1.874800205230713
0,,2024-06-26 13:04:06,sub_105,3,distance,cathedral,localisation_accuracy,2,1,pinknoise,,,pinknoise_9.wav,85.93681979794744,30,-0.3881924966508522,1,RX81,2,0.0,0.0,3.0,0,0,2.048387096774194,1.531092643737793
0,,2024-06-26 13:04:09,sub_105,3,distance,cathedral,localisation_accuracy,2,2,pinknoise,,,pinknoise_7.wav,91.78306777645633,30,0.27800090536831523,6,RX81,7,0.0,0.0,8.0,0,0,4.599706744868035,1.4217069149017334
0,,2024-06-26 13:04:12,sub_105,3,distance,cathedral,localisation_accuracy,2,3,pinknoise,,,pinknoise_2.wav,90.18399129619903,30,-0.22433999196617793,5,RX81,6,0.0,0.0,7.0,0,0,5.7434017595307925,1.6716899871826172
0,,2024-06-26 13:04:14,sub_105,3,distance,cathedral,localisation_accuracy,2,4,pinknoise,,,pinknoise_6.wav,91.80114168839133,30,-0.30096391181215876,8,RX81,9,0.0,0.0,10.0,0,0,7.312316715542522,0.9373648166656494
0,,2024-06-26 13:04:16,sub_105,3,distance,cathedral,localisation_accuracy,2,5,pinknoise,,,pinknoise_3.wav,92.30355491252465,30,0.42108711777085595,9,RX81,10,0.0,0.0,11.0,0,0,9.057184750733139,1.1248729228973389
0,,2024-06-26 13:04:19,sub_105,3,distance,cathedral,localisation_accuracy,2,6,pinknoise,,,pinknoise_7.wav,84.52225869090297,30,0.18112543733513742,0,RX81,1,0.0,0.0,2.0,0,0,1.7991202346041058,1.9685626029968262
0,,2024-06-26 13:04:22,sub_105,3,distance,cathedral,localisation_accuracy,2,7,pinknoise,,,pinknoise_4.wav,89.14527199424984,30,-0.22403654856608346,4,RX81,5,0.0,0.0,6.0,0,0,5.0982404692082115,1.2186157703399658
0,,2024-06-26 13:04:24,sub_105,3,distance,cathedral,localisation_accuracy,2,8,pinknoise,,,pinknoise_0.wav,89.12420762825042,30,-0.03545683810489264,3,RX81,4,0.0,0.0,5.0,0,0,3.2214076246334313,1.7186453342437744
0,,2024-06-26 13:04:27,sub_105,3,distance,cathedral,localisation_accuracy,2,9,pinknoise,,,pinknoise_9.wav,91.79224474506286,30,0.07475551385106427,7,RX81,8,0.0,0.0,9.0,0,0,5.875366568914957,1.5154483318328857
0,,2024-06-26 13:04:29,sub_105,3,distance,cathedral,localisation_accuracy,2,10,pinknoise,,,pinknoise_1.wav,92.6531552465255,30,-0.48371634133734664,10,RX81,11,0.0,0.0,12.0,0,0,6.887096774193548,1.0623743534088135
0,,2024-06-26 13:04:32,sub_105,3,distance,cathedral,localisation_accuracy,2,11,pinknoise,,,pinknoise_6.wav,86.53490592577671,30,0.48831667392460987,1,RX81,2,0.0,0.0,3.0,0,0,1.8870967741935485,1.406135082244873
0,,2024-06-26 13:04:34,sub_105,3,distance,cathedral,localisation_accuracy,2,12,pinknoise,,,pinknoise_1.wav,84.48195551729837,30,0.12091186841766488,0,RX81,1,0.0,0.0,2.0,0,0,1.9164222873900294,0.7186534404754639
0,,2024-06-26 13:04:36,sub_105,3,distance,cathedral,localisation_accuracy,2,13,pinknoise,,,pinknoise_8.wav,89.50366130484875,30,0.2547508684771361,4,RX81,5,0.0,0.0,6.0,0,0,3.4560117302052786,1.0936248302459717
0,,2024-06-26 13:04:39,sub_105,3,distance,cathedral,localisation_accuracy,2,14,pinknoise,,,pinknoise_4.wav,90.39659443707642,30,0.07888316980714505,5,RX81,6,0.0,0.0,7.0,0,0,4.951612903225807,1.4998912811279297
0,,2024-06-26 13:04:41,sub_105,3,distance,cathedral,localisation_accuracy,2,15,pinknoise,,,pinknoise_4.wav,91.51285781684373,30,-0.3096997333281143,7,RX81,8,0.0,0.0,9.0,0,0,6.168621700879766,1.124851942062378
0,,2024-06-26 13:04:44,sub_105,3,distance,cathedral,localisation_accuracy,2,16,pinknoise,,,pinknoise_9.wav,92.9108999786253,30,-0.12504684685907907,10,RX81,11,0.0,0.0,12.0,0,0,7.356304985337244,1.437331199645996
0,,2024-06-26 13:04:47,sub_105,3,distance,cathedral,localisation_accuracy,2,17,pinknoise,,,pinknoise_2.wav,91.25272318695019,30,-0.4754002876680059,6,RX81,7,0.0,0.0,8.0,0,0,8.338709677419356,1.4373505115509033
0,,2024-06-26 13:04:50,sub_105,3,distance,cathedral,localisation_accuracy,2,18,pinknoise,,,pinknoise_6.wav,87.32288528307784,30,-0.3563690095372837,2,RX81,3,0.0,0.0,4.0,0,0,3.309384164222874,1.7498068809509277
0,,2024-06-26 13:04:53,sub_105,3,distance,cathedral,localisation_accuracy,2,19,pinknoise,,,pinknoise_1.wav,91.66203860049,30,-0.4798231843992611,9,RX81,10,0.0,0.0,11.0,0,0,5.479472140762463,1.82796311378479
0,,2024-06-26 13:04:55,sub_105,3,distance,cathedral,localisation_accuracy,2,20,pinknoise,,,pinknoise_4.wav,91.7989123626929,30,-0.30408116455714995,8,RX81,9,0.0,0.0,10.0,0,0,6.93108504398827,1.2498445510864258
0,,2024-06-26 13:04:58,sub_105,3,distance,cathedral,localisation_accuracy,2,21,pinknoise,,,pinknoise_6.wav,89.42211246216044,30,0.39138203697934104,3,RX81,4,0.0,0.0,5.0,0,0,3.1920821114369504,1.8123233318328857
0,,2024-06-26 13:05:00,sub_105,3,distance,cathedral,localisation_accuracy,2,22,pinknoise,,,pinknoise_2.wav,89.11489481959157,30,-0.26426867696465717,4,RX81,5,0.0,0.0,6.0,0,0,4.350439882697947,1.1248512268066406
0,,2024-06-26 13:05:03,sub_105,3,distance,cathedral,localisation_accuracy,2,23,pinknoise,,,pinknoise_9.wav,86.11829043210746,30,-0.1249398277978655,1,RX81,2,0.0,0.0,3.0,0,0,1.6964809384164226,1.9373786449432373
0,,2024-06-26 13:05:07,sub_105,3,distance,cathedral,localisation_accuracy,2,24,pinknoise,,,pinknoise_6.wav,92.31171968041073,30,0.43272870808192787,9,RX81,10,0.0,0.0,11.0,0,0,5.03958944281525,2.0466630458831787
0,,2024-06-26 13:05:09,sub_105,3,distance,cathedral,localisation_accuracy,2,25,pinknoise,,,pinknoise_9.wav,92.04564295962383,30,0.42775198847413465,7,RX81,8,0.0,0.0,9.0,0,0,3.558651026392962,1.31235933303833
0,,2024-06-26 13:05:12,sub_105,3,distance,cathedral,localisation_accuracy,2,26,pinknoise,,,pinknoise_8.wav,93.1423477853107,30,0.2007412139012391,10,RX81,11,0.0,0.0,12.0,0,0,6.711143695014663,1.5466976165771484
0,,2024-06-26 13:05:15,sub_105,3,distance,cathedral,localisation_accuracy,2,27,pinknoise,,,pinknoise_0.wav,87.54193088313036,30,-0.04132599226689093,2,RX81,3,0.0,0.0,4.0,0,0,2.796187683284458,1.874819278717041
0,,2024-06-26 13:05:19,sub_105,3,distance,cathedral,localisation_accuracy,2,28,pinknoise,,,pinknoise_9.wav,92.19195246696331,30,0.25059221169611734,8,RX81,9,0.0,0.0,10.0,0,0,4.262463343108505,2.6403896808624268
0,,2024-06-26 13:05:22,sub_105,3,distance,cathedral,localisation_accuracy,2,29,pinknoise,,,pinknoise_1.wav,89.20829049303393,30,0.084406421325539,3,RX81,4,0.0,0.0,5.0,0,0,1.8577712609970676,2.234149694442749
0,,2024-06-26 13:05:24,sub_105,3,distance,cathedral,localisation_accuracy,2,30,pinknoise,,,pinknoise_1.wav,84.2992232577155,30,-0.15058943838406125,0,RX81,1,0.0,0.0,2.0,0,0,1.901759530791789,0.812373161315918
0,,2024-06-26 13:05:28,sub_105,3,distance,cathedral,localisation_accuracy,2,31,pinknoise,,,pinknoise_0.wav,90.08015424592585,30,-0.37132359718989516,5,RX81,6,0.0,0.0,7.0,0,0,4.43841642228739,2.281022548675537
0,,2024-06-26 13:05:30,sub_105,3,distance,cathedral,localisation_accuracy,2,32,pinknoise,,,pinknoise_8.wav,91.60010320864112,30,0.015935937723073113,6,RX81,7,0.0,0.0,8.0,0,0,5.7140762463343115,1.3279614448547363
0,,2024-06-26 13:05:33,sub_105,3,distance,cathedral,localisation_accuracy,2,33,pinknoise,,,pinknoise_2.wav,93.04749362320274,30,0.066796161619322,10,RX81,11,0.0,0.0,12.0,0,0,7.356304985337244,1.3436083793640137
0,,2024-06-26 13:05:36,sub_105,3,distance,cathedral,localisation_accuracy,2,34,pinknoise,,,pinknoise_9.wav,85.94556072336117,30,-0.37556570354116003,1,RX81,2,0.0,0.0,3.0,0,0,2.180351906158358,2.4060099124908447
0,,2024-06-26 13:05:39,sub_105,3,distance,cathedral,localisation_accuracy,2,35,pinknoise,,,pinknoise_5.wav,92.28335823921071,30,0.3923091762923576,9,RX81,10,0.0,0.0,11.0,0,0,4.834310850439883,1.7810547351837158
0,,2024-06-26 13:05:41,sub_105,3,distance,cathedral,localisation_accuracy,2,36,pinknoise,,,pinknoise_5.wav,90.48528422770453,30,0.20628708235866133,5,RX81,6,0.0,0.0,7.0,0,0,4.2917888563049855,1.218616008758545
0,,2024-06-26 13:05:44,sub_105,3,distance,cathedral,localisation_accuracy,2,37,pinknoise,,,pinknoise_5.wav,91.23665538869624,30,-0.4979310398405845,6,RX81,7,0.0,0.0,8.0,0,0,4.702346041055719,1.2967357635498047
0,,2024-06-26 13:05:47,sub_105,3,distance,cathedral,localisation_accuracy,2,38,pinknoise,,,pinknoise_4.wav,87.25441265137023,30,-0.45416866685337376,2,RX81,3,0.0,0.0,4.0,0,0,3.8372434017595314,1.8279478549957275
0,,2024-06-26 13:05:49,sub_105,3,distance,cathedral,localisation_accuracy,2,39,pinknoise,,,pinknoise_2.wav,89.33828872579124,30,0.03287345857009605,4,RX81,5,0.0,0.0,6.0,0,0,2.9721407624633436,1.2498435974121094
0,,2024-06-26 13:05:52,sub_105,3,distance,cathedral,localisation_accuracy,2,40,pinknoise,,,pinknoise_2.wav,91.50244991886703,30,-0.32392635925825053,7,RX81,8,0.0,0.0,9.0,0,0,4.9369501466275665,1.4685797691345215
0,,2024-06-26 13:05:55,sub_105,3,distance,cathedral,localisation_accuracy,2,41,pinknoise,,,pinknoise_2.wav,91.85385999600514,30,-0.22715277987653493,8,RX81,9,0.0,0.0,10.0,0,0,4.555718475073314,1.843552589416504
0,,2024-06-26 13:05:58,sub_105,3,distance,cathedral,localisation_accuracy,2,42,pinknoise,,,pinknoise_5.wav,84.56588929540855,30,0.24644593488398858,0,RX81,1,0.0,0.0,2.0,0,0,1.7991202346041058,1.9841675758361816
0,,2024-06-26 13:06:01,sub_105,3,distance,cathedral,localisation_accuracy,2,43,pinknoise,,,pinknoise_7.wav,89.12800042991223,30,-0.030060357276187166,3,RX81,4,0.0,0.0,5.0,0,0,2.4882697947214076,1.7185618877410889
0,,2024-06-26 13:06:04,sub_105,3,distance,cathedral,localisation_accuracy,2,44,pinknoise,,,pinknoise_5.wav,93.2904573187186,30,0.41108330192221343,10,RX81,11,0.0,0.0,12.0,0,0,4.43841642228739,1.8904237747192383
0,,2024-06-26 13:06:07,sub_105,3,distance,cathedral,localisation_accuracy,2,45,pinknoise,,,pinknoise_1.wav,92.12885658633012,30,0.1608557649290192,8,RX81,9,0.0,0.0,10.0,0,0,5.538123167155426,1.8435685634613037
0,,2024-06-26 13:06:10,sub_105,3,distance,cathedral,localisation_accuracy,2,46,pinknoise,,,pinknoise_9.wav,86.5389038535995,30,0.4942621809064254,1,RX81,2,0.0,0.0,3.0,0,0,1.9164222873900294,1.8904979228973389
0,,2024-06-26 13:06:13,sub_105,3,distance,cathedral,localisation_accuracy,2,47,pinknoise,,,pinknoise_4.wav,90.17384279107281,30,-0.23873751358541906,5,RX81,6,0.0,0.0,7.0,0,0,3.441348973607038,1.5467171669006348
0,,2024-06-26 13:06:18,sub_105,3,distance,cathedral,localisation_accuracy,2,48,pinknoise,,,pinknoise_3.wav,87.41379294732323,30,-0.22602494307481003,2,RX81,3,0.0,0.0,4.0,0,0,2.8108504398826986,3.7496681213378906
0,,2024-06-26 13:06:21,sub_105,3,distance,cathedral,localisation_accuracy,2,49,pinknoise,,,pinknoise_0.wav,89.5259911894152,30,0.28483581696118565,4,RX81,5,0.0,0.0,6.0,0,0,3.4560117302052786,2.1561050415039062
0,,2024-06-26 13:06:25,sub_105,3,distance,cathedral,localisation_accuracy,2,50,pinknoise,,,pinknoise_6.wav,89.41566657768104,30,0.3820823088298404,3,RX81,4,0.0,0.0,5.0,0,0,2.56158357771261,2.42165470123291
0,,2024-06-26 13:06:29,sub_105,3,distance,cathedral,localisation_accuracy,2,51,pinknoise,,,pinknoise_5.wav,84.48093223967868,30,0.11938464048183317,0,RX81,1,0.0,0.0,2.0,0,0,1.9750733137829912,2.6716361045837402
0,,2024-06-26 13:06:32,sub_105,3,distance,cathedral,localisation_accuracy,2,52,pinknoise,,,pinknoise_0.wav,91.50244610303291,30,-0.12301121723629815,6,RX81,7,0.0,0.0,8.0,0,0,3.4853372434017595,2.4060308933258057
0,,2024-06-26 13:06:35,sub_105,3,distance,cathedral,localisation_accuracy,2,53,pinknoise,,,pinknoise_9.wav,91.70817654982018,30,-0.4159295683858455,9,RX81,10,0.0,0.0,11.0,0,0,4.658357771260998,1.187347650527954
0,,2024-06-26 13:06:37,sub_105,3,distance,cathedral,localisation_accuracy,2,54,pinknoise,,,pinknoise_1.wav,91.60686583766257,30,-0.18089012845374364,7,RX81,8,0.0,0.0,9.0,0,0,5.347507331378299,0.9842357635498047
0,,2024-06-26 13:08:48,sub_105,3,distance,cathedral,localisation_accuracy,3,0,babble,,,babble-reversed_n13_p256-five-p307-nine-p318-three-p284-eight-p268-one-p248-two.wav,90.47077411473315,30,0.18540627560474543,5,RX81,6,0.0,0.0,7.0,0,0,6.564516129032258,2.2966644763946533
0,,2024-06-26 13:08:50,sub_105,3,distance,cathedral,localisation_accuracy,3,1,babble,,,babble-reversed_n13_p318-five-p229-four-p256-eight-p284-one-p245-three-p248-two.wav,91.8671907798371,30,-0.20845925102701846,8,RX81,9,0.0,0.0,10.0,0,0,9.643695014662757,1.390458106994629
0,,2024-06-26 13:08:53,sub_105,3,distance,cathedral,localisation_accuracy,3,2,babble,,,babble-reversed_n13_p229-five-p318-three-p307-two-p245-four-p284-nine-p248-eight.wav,89.02945527353273,30,-0.37713526790376684,4,RX81,5,0.0,0.0,6.0,0,0,8.060117302052786,1.5936315059661865
0,,2024-06-26 13:08:56,sub_105,3,distance,cathedral,localisation_accuracy,3,3,babble,,,babble-reversed_n13_p229-two-p318-eight-p256-three-p268-one-p248-nine-p284-five.wav,87.65254762044651,30,0.11903898177990191,2,RX81,3,0.0,0.0,4.0,0,0,3.441348973607038,1.9216692447662354
0,,2024-06-26 13:08:59,sub_105,3,distance,cathedral,localisation_accuracy,3,4,babble,,,babble-reversed_n13_p229-two-p256-three-p318-eight-p284-five-p268-four-p245-one.wav,91.70091749402516,30,-0.42599134919624015,9,RX81,10,0.0,0.0,11.0,0,0,8.382697947214076,1.8904433250427246
0,,2024-06-26 13:09:03,sub_105,3,distance,cathedral,localisation_accuracy,3,5,babble,,,babble-reversed_n13_p307-two-p229-one-p256-five-p248-nine-p284-three-p268-eight.wav,88.95405451988503,30,-0.2765573840484732,3,RX81,4,0.0,0.0,5.0,0,0,5.7140762463343115,2.281066656112671
0,,2024-06-26 13:09:05,sub_105,3,distance,cathedral,localisation_accuracy,3,6,babble,,,babble-reversed_n13_p229-two-p318-eight-p256-three-p268-one-p248-nine-p284-five.wav,91.8425155912797,30,0.14445819017728811,7,RX81,8,0.0,0.0,9.0,0,0,9.321114369501467,1.390458106994629
0,,2024-06-26 13:09:08,sub_105,3,distance,cathedral,localisation_accuracy,3,7,babble,,,babble-reversed_n13_p318-five-p229-three-p256-four-p268-eight-p248-one-p245-nine.wav,84.09064610606558,30,-0.4575011332739305,0,RX81,1,0.0,0.0,2.0,0,0,1.8137829912023462,1.4842121601104736
0,,2024-06-26 13:09:10,sub_105,3,distance,cathedral,localisation_accuracy,3,8,babble,,,babble-reversed_n13_p318-four-p256-five-p229-three-p284-one-p245-eight-p248-nine.wav,92.79019538656723,30,-0.2935549843031877,10,RX81,11,0.0,0.0,12.0,0,0,9.13049853372434,1.4998455047607422
0,,2024-06-26 13:09:14,sub_105,3,distance,cathedral,localisation_accuracy,3,9,babble,,,babble-reversed_n13_p307-four-p318-three-p256-eight-p284-two-p245-nine-p248-five.wav,91.87284752550835,30,0.4074303953141104,6,RX81,7,0.0,0.0,8.0,0,0,7.781524926686217,2.4685261249542236
0,,2024-06-26 13:09:18,sub_105,3,distance,cathedral,localisation_accuracy,3,10,babble,,,babble-reversed_n13_p318-nine-p256-five-p307-eight-p268-three-p248-one-p245-four.wav,86.38514244011648,30,0.2664294083466294,1,RX81,2,0.0,0.0,3.0,0,0,2.312316715542522,2.531022548675537
0,,2024-06-26 13:09:20,sub_105,3,distance,cathedral,localisation_accuracy,3,11,babble,,,babble-reversed_n13_p229-three-p307-one-p318-two-p245-eight-p268-five-p284-four.wav,88.96740859463152,30,-0.25770551823487187,3,RX81,4,0.0,0.0,5.0,0,0,4.570381231671554,1.5779650211334229
0,,2024-06-26 13:09:24,sub_105,3,distance,cathedral,localisation_accuracy,3,12,babble,,,babble-reversed_n13_p307-one-p318-five-p229-four-p268-eight-p284-two-p245-three.wav,92.203788154513,30,0.27919559783593695,9,RX81,10,0.0,0.0,11.0,0,0,8.280058651026394,2.0779082775115967
0,,2024-06-26 13:09:26,sub_105,3,distance,cathedral,localisation_accuracy,3,13,babble,,,babble-reversed_n13_p307-four-p318-three-p256-eight-p284-two-p245-nine-p248-five.wav,91.72422525393668,30,0.19347056764524884,6,RX81,7,0.0,0.0,8.0,0,0,10.244868035190617,1.32798433303833
0,,2024-06-26 13:09:29,sub_105,3,distance,cathedral,localisation_accuracy,3,14,babble,,,babble-reversed_n13_p256-nine-p307-four-p229-one-p284-three-p248-two-p245-five.wav,92.19825969915073,30,0.2595771711447542,8,RX81,9,0.0,0.0,10.0,0,0,3.9692082111436955,1.4061026573181152
0,,2024-06-26 13:09:31,sub_105,3,distance,cathedral,localisation_accuracy,3,15,babble,,,babble-reversed_n13_p229-eight-p256-nine-p318-four-p245-three-p268-five-p284-two.wav,91.76116297900398,30,0.0317399726211649,7,RX81,8,0.0,0.0,9.0,0,0,6.30058651026393,1.6248366832733154
0,,2024-06-26 13:09:34,sub_105,3,distance,cathedral,localisation_accuracy,3,16,babble,,,babble-reversed_n13_p229-three-p256-nine-p318-five-p248-one-p245-eight-p284-two.wav,86.40825609720397,30,0.3005685680789092,1,RX81,2,0.0,0.0,3.0,0,0,1.9897360703812317,1.4061024188995361
0,,2024-06-26 13:09:36,sub_105,3,distance,cathedral,localisation_accuracy,3,17,babble,,,babble-reversed_n13_p318-five-p256-nine-p307-eight-p248-two-p245-four-p284-three.wav,87.90301419395857,30,0.48532869643737564,2,RX81,3,0.0,0.0,4.0,0,0,3.441348973607038,1.1561193466186523
0,,2024-06-26 13:09:39,sub_105,3,distance,cathedral,localisation_accuracy,3,18,babble,,,babble-reversed_n13_p307-two-p256-four-p318-three-p284-eight-p248-five-p245-nine.wav,90.67448006049176,30,0.47987542615445444,5,RX81,6,0.0,0.0,7.0,0,0,4.966275659824047,1.9529201984405518
0,,2024-06-26 13:09:42,sub_105,3,distance,cathedral,localisation_accuracy,3,19,babble,,,babble-reversed_n13_p229-three-p256-nine-p318-five-p248-one-p245-eight-p284-two.wav,84.41572705095595,30,0.02222629327352743,0,RX81,1,0.0,0.0,2.0,0,0,1.7844574780058653,1.3123376369476318
0,,2024-06-26 13:09:45,sub_105,3,distance,cathedral,localisation_accuracy,3,20,babble,,,babble-reversed_n13_p229-three-p256-one-p307-two-p284-eight-p268-five-p248-nine.wav,92.71539133160236,30,-0.39750687617935765,10,RX81,11,0.0,0.0,12.0,0,0,4.995601173020528,2.1716504096984863
0,,2024-06-26 13:09:47,sub_105,3,distance,cathedral,localisation_accuracy,3,21,babble,,,babble-reversed_n13_p229-three-p256-nine-p318-five-p248-one-p245-eight-p284-two.wav,89.02060698549965,30,-0.3887994465841884,4,RX81,5,0.0,0.0,6.0,0,0,8.13343108504399,1.1248538494110107
0,,2024-06-26 13:09:49,sub_105,3,distance,cathedral,localisation_accuracy,3,22,babble,,,babble-reversed_n13_p318-four-p256-five-p229-three-p284-one-p245-eight-p248-nine.wav,90.47338875513006,30,0.18916781259391213,5,RX81,6,0.0,0.0,7.0,0,0,10.127565982404693,1.1248891353607178
0,,2024-06-26 13:09:52,sub_105,3,distance,cathedral,localisation_accuracy,3,23,babble,,,babble-reversed_n13_p256-three-p318-two-p229-nine-p248-four-p284-one-p268-eight.wav,92.86957769825818,30,-0.1828416300976733,10,RX81,11,0.0,0.0,12.0,0,0,11.32991202346041,1.7967157363891602
0,,2024-06-26 13:09:55,sub_105,3,distance,cathedral,localisation_accuracy,3,24,babble,,,babble-reversed_n13_p256-five-p229-one-p318-three-p248-nine-p284-eight-p268-two.wav,91.50086706526818,30,-0.12525259012172174,6,RX81,7,0.0,0.0,8.0,0,0,9.057184750733139,1.4373321533203125
0,,2024-06-26 13:09:58,sub_105,3,distance,cathedral,localisation_accuracy,3,25,babble,,,babble-reversed_n13_p229-three-p256-nine-p318-five-p248-one-p245-eight-p284-two.wav,92.2518374415698,30,0.3474500465362307,9,RX81,10,0.0,0.0,11.0,0,0,10.904692082111438,1.8748199939727783
0,,2024-06-26 13:10:01,sub_105,3,distance,cathedral,localisation_accuracy,3,26,babble,,,babble-reversed_n13_p318-five-p256-nine-p307-eight-p248-two-p245-four-p284-three.wav,92.12379495919771,30,0.15366854405844377,8,RX81,9,0.0,0.0,10.0,0,0,11.520527859237538,2.4060096740722656
0,,2024-06-26 13:10:04,sub_105,3,distance,cathedral,localisation_accuracy,3,27,babble,,,babble-reversed_n13_p229-three-p307-one-p318-two-p245-eight-p268-five-p284-four.wav,84.6407103342438,30,0.3587916926223099,0,RX81,1,0.0,0.0,2.0,0,0,1.9897360703812317,1.9529383182525635
0,,2024-06-26 13:10:08,sub_105,3,distance,cathedral,localisation_accuracy,3,28,babble,,,babble-reversed_n13_p318-one-p307-two-p256-eight-p284-three-p248-five-p245-four.wav,86.14899746364202,30,-0.08016333906142425,1,RX81,2,0.0,0.0,3.0,0,0,3.3533724340175954,2.202920913696289
0,,2024-06-26 13:10:10,sub_105,3,distance,cathedral,localisation_accuracy,3,29,babble,,,babble-reversed_n13_p229-one-p318-nine-p256-four-p284-eight-p268-five-p245-two.wav,87.70408990591639,30,0.19405454354189067,2,RX81,3,0.0,0.0,4.0,0,0,3.368035190615836,1.3748359680175781
0,,2024-06-26 13:10:13,sub_105,3,distance,cathedral,localisation_accuracy,3,30,babble,,,babble-reversed_n13_p229-nine-p256-four-p318-three-p268-eight-p248-two-p284-five.wav,89.06221339501883,30,-0.3339121522896322,4,RX81,5,0.0,0.0,6.0,0,0,4.7316715542522,1.281090259552002
0,,2024-06-26 13:10:15,sub_105,3,distance,cathedral,localisation_accuracy,3,31,babble,,,babble-reversed_n13_p229-five-p256-three-p318-nine-p248-two-p284-four-p268-one.wav,91.62542498057223,30,-0.1553944510501316,7,RX81,8,0.0,0.0,9.0,0,0,6.4178885630498534,1.0467336177825928
0,,2024-06-26 13:10:18,sub_105,3,distance,cathedral,localisation_accuracy,3,32,babble,,,babble-reversed_n13_p229-two-p307-five-p318-four-p284-one-p248-nine-p268-eight.wav,89.33237315683603,30,0.262167310806282,3,RX81,4,0.0,0.0,5.0,0,0,3.206744868035191,1.5623233318328857
0,,2024-06-26 13:10:20,sub_105,3,distance,cathedral,localisation_accuracy,3,33,babble,,,babble-reversed_n13_p256-nine-p307-four-p229-one-p284-three-p248-two-p245-five.wav,91.57364290723044,30,-0.2264758470538435,7,RX81,8,0.0,0.0,9.0,0,0,7.1950146627565985,1.406102180480957
0,,2024-06-26 13:10:23,sub_105,3,distance,cathedral,localisation_accuracy,3,34,babble,,,babble-reversed_n13_p229-three-p256-nine-p318-five-p248-one-p245-eight-p284-two.wav,88.94091722640299,30,-0.29509156134696524,3,RX81,4,0.0,0.0,5.0,0,0,4.379765395894428,1.34358549118042
0,,2024-06-26 13:10:25,sub_105,3,distance,cathedral,localisation_accuracy,3,35,babble,,,babble-reversed_n13_p318-five-p229-three-p256-four-p268-eight-p248-one-p245-nine.wav,87.88499895427177,30,0.45883464043870203,2,RX81,3,0.0,0.0,4.0,0,0,2.693548387096774,1.2654657363891602
0,,2024-06-26 13:10:27,sub_105,3,distance,cathedral,localisation_accuracy,3,36,babble,,,babble-reversed_n13_p318-five-p229-three-p256-four-p268-eight-p248-one-p245-nine.wav,93.19881097708074,30,0.28075692413489073,10,RX81,11,0.0,0.0,12.0,0,0,10.156891495601174,1.4060838222503662
0,,2024-06-26 13:10:31,sub_105,3,distance,cathedral,localisation_accuracy,3,37,babble,,,babble-reversed_n13_p318-five-p256-nine-p307-eight-p248-two-p245-four-p284-three.wav,86.22362597709576,30,0.028938679674616496,1,RX81,2,0.0,0.0,3.0,0,0,2.6202346041055717,2.0779294967651367
0,,2024-06-26 13:10:34,sub_105,3,distance,cathedral,localisation_accuracy,3,38,babble,,,babble-reversed_n13_p318-nine-p307-eight-p229-two-p284-one-p248-three-p245-five.wav,92.04505826669632,30,0.054807659823744026,9,RX81,10,0.0,0.0,11.0,0,0,9.936950146627566,2.0154576301574707
0,,2024-06-26 13:10:36,sub_105,3,distance,cathedral,localisation_accuracy,3,39,babble,,,babble-reversed_n13_p229-five-p256-one-p318-three-p248-nine-p268-four-p284-eight.wav,90.5537502762488,30,0.3050083263127117,5,RX81,6,0.0,0.0,7.0,0,0,7.5469208211143695,1.5935888290405273
0,,2024-06-26 13:10:40,sub_105,3,distance,cathedral,localisation_accuracy,3,40,babble,,,babble-reversed_n13_p229-five-p256-three-p318-nine-p248-two-p284-four-p268-one.wav,91.85741711001084,30,0.38514608389067695,6,RX81,7,0.0,0.0,8.0,0,0,5.288856304985337,2.046661138534546
0,,2024-06-26 13:10:43,sub_105,3,distance,cathedral,localisation_accuracy,3,41,babble,,,babble-reversed_n13_p256-five-p229-one-p318-three-p248-nine-p284-eight-p268-two.wav,84.25288269342944,30,-0.21905179311435674,0,RX81,1,0.0,0.0,2.0,0,0,1.7844574780058653,1.906066656112671
0,,2024-06-26 13:10:45,sub_105,3,distance,cathedral,localisation_accuracy,3,42,babble,,,babble-reversed_n13_p229-two-p318-eight-p256-three-p268-one-p248-nine-p284-five.wav,91.8373169924514,30,-0.2503344400466262,8,RX81,9,0.0,0.0,10.0,0,0,7.796187683284458,1.5154509544372559
0,,2024-06-26 13:10:49,sub_105,3,distance,cathedral,localisation_accuracy,3,43,babble,,,babble-reversed_n13_p307-five-p229-three-p318-nine-p245-four-p268-eight-p284-two.wav,88.94391485424904,30,-0.4897059524630911,4,RX81,5,0.0,0.0,6.0,0,0,4.922287390029326,2.343536615371704
0,,2024-06-26 13:10:53,sub_105,3,distance,cathedral,localisation_accuracy,3,44,babble,,,babble-reversed_n13_p318-three-p229-one-p256-eight-p245-five-p248-four-p284-nine.wav,84.64369723869906,30,0.3632852597185565,0,RX81,1,0.0,0.0,2.0,0,0,2.1217008797653962,2.9216220378875732
0,,2024-06-26 13:10:56,sub_105,3,distance,cathedral,localisation_accuracy,3,45,babble,,,babble-reversed_n13_p229-nine-p318-one-p307-two-p248-eight-p245-five-p284-four.wav,89.37985828550143,30,0.33047208357339364,3,RX81,4,0.0,0.0,5.0,0,0,3.9692082111436955,1.4060821533203125
0,,2024-06-26 13:11:00,sub_105,3,distance,cathedral,localisation_accuracy,3,46,babble,,,babble-reversed_n13_p318-three-p229-one-p256-eight-p245-five-p248-four-p284-nine.wav,91.69681753764164,30,-0.05711533530532076,7,RX81,8,0.0,0.0,9.0,0,0,6.5205278592375375,3.468459129333496
0,,2024-06-26 13:11:02,sub_105,3,distance,cathedral,localisation_accuracy,3,47,babble,,,babble-reversed_n13_p307-nine-p318-two-p256-one-p245-three-p268-four-p248-eight.wav,91.75237983656083,30,0.23388660194908384,6,RX81,7,0.0,0.0,8.0,0,0,8.675953079178885,1.2498645782470703
0,,2024-06-26 13:11:05,sub_105,3,distance,cathedral,localisation_accuracy,3,48,babble,,,babble-reversed_n13_p307-five-p229-three-p318-nine-p245-four-p268-eight-p284-two.wav,89.21332886477708,30,-0.13370299059169544,4,RX81,5,0.0,0.0,6.0,0,0,3.9692082111436955,1.7029578685760498
0,,2024-06-26 13:11:08,sub_105,3,distance,cathedral,localisation_accuracy,3,49,babble,,,babble-reversed_n13_p229-five-p318-two-p307-eight-p268-three-p248-four-p245-one.wav,93.26115762703947,30,0.36935656977233666,10,RX81,11,0.0,0.0,12.0,0,0,10.200879765395895,1.8435604572296143
0,,2024-06-26 13:11:11,sub_105,3,distance,cathedral,localisation_accuracy,3,50,babble,,,babble-reversed_n13_p318-three-p307-one-p256-five-p248-nine-p245-two-p284-eight.wav,91.7671203025074,30,-0.3341007468549272,9,RX81,10,0.0,0.0,11.0,0,0,11.667155425219942,1.4217064380645752
0,,2024-06-26 13:11:14,sub_105,3,distance,cathedral,localisation_accuracy,3,51,babble,,,babble-reversed_n13_p318-three-p229-one-p256-eight-p245-five-p248-four-p284-nine.wav,90.67991119720381,30,0.48776565164564867,5,RX81,6,0.0,0.0,7.0,0,0,9.291788856304986,1.6717100143432617
0,,2024-06-26 13:11:16,sub_105,3,distance,cathedral,localisation_accuracy,3,52,babble,,,babble-reversed_n13_p229-five-p256-one-p318-three-p248-nine-p268-four-p284-eight.wav,91.91317513578703,30,-0.14388606012967764,8,RX81,9,0.0,0.0,10.0,0,0,9.291788856304986,0.8905117511749268
0,,2024-06-26 13:11:18,sub_105,3,distance,cathedral,localisation_accuracy,3,53,babble,,,babble-reversed_n13_p229-three-p256-nine-p318-five-p248-one-p245-eight-p284-two.wav,86.17314663275445,30,-0.04490227996286267,1,RX81,2,0.0,0.0,3.0,0,0,1.9164222873900294,1.5467197895050049
0,,2024-06-26 13:11:21,sub_105,3,distance,cathedral,localisation_accuracy,3,54,babble,,,babble-reversed_n13_p256-five-p307-nine-p318-three-p284-eight-p268-one-p248-two.wav,87.44252849881151,30,-0.18470460667036015,2,RX81,3,0.0,0.0,4.0,0,0,4.203812316715543,1.4529759883880615
0,,2024-06-26 13:11:42,sub_105,3,distance,cathedral,localisation_accuracy,4,0,babble,,,babble-reversed_n13_p256-eight-p318-two-p307-five-p245-four-p268-nine-p284-one.wav,92.35286593625173,30,0.49146420272222524,9,RX81,10,0.0,0.0,11.0,0,0,6.491202346041057,1.8279292583465576
0,,2024-06-26 13:11:44,sub_105,3,distance,cathedral,localisation_accuracy,4,1,babble,,,babble-reversed_n13_p229-five-p318-two-p307-eight-p268-three-p248-four-p245-one.wav,84.12554491809401,30,-0.4063698478144805,0,RX81,1,0.0,0.0,2.0,0,0,1.8137829912023462,1.0623583793640137
0,,2024-06-26 13:11:46,sub_105,3,distance,cathedral,localisation_accuracy,4,2,babble,,,babble-reversed_n13_p318-four-p256-five-p229-three-p284-one-p245-eight-p248-nine.wav,86.18115274538309,30,-0.033203100960796816,1,RX81,2,0.0,0.0,3.0,0,0,3.441348973607038,1.5623226165771484
0,,2024-06-26 13:11:49,sub_105,3,distance,cathedral,localisation_accuracy,4,3,babble,,,babble-reversed_n13_p318-five-p256-nine-p307-two-p245-eight-p248-one-p284-four.wav,90.11027543919782,30,-0.32876126073078704,5,RX81,6,0.0,0.0,7.0,0,0,6.183284457478006,1.0780019760131836
0,,2024-06-26 13:11:51,sub_105,3,distance,cathedral,localisation_accuracy,4,4,babble,,,babble-reversed_n13_p256-two-p307-five-p318-nine-p248-eight-p245-four-p284-one.wav,88.85789792264035,30,-0.41194874063181486,3,RX81,4,0.0,0.0,5.0,0,0,7.458944281524927,1.2810909748077393
0,,2024-06-26 13:11:54,sub_105,3,distance,cathedral,localisation_accuracy,4,5,babble,,,babble-reversed_n13_p229-two-p307-five-p318-four-p284-one-p248-nine-p268-eight.wav,91.9146830940912,30,0.467930782209668,6,RX81,7,0.0,0.0,8.0,0,0,8.382697947214076,2.156050682067871
0,,2024-06-26 13:11:57,sub_105,3,distance,cathedral,localisation_accuracy,4,6,babble,,,babble-reversed_n13_p256-four-p229-two-p318-five-p268-one-p248-eight-p245-three.wav,87.43258069491063,30,-0.19901555429669404,2,RX81,3,0.0,0.0,4.0,0,0,3.5,1.7215917110443115
0,,2024-06-26 13:12:00,sub_105,3,distance,cathedral,localisation_accuracy,4,7,babble,,,babble-reversed_n13_p318-four-p256-five-p229-three-p284-one-p245-eight-p248-nine.wav,91.72804184565224,30,-0.01403023633801026,7,RX81,8,0.0,0.0,9.0,0,0,5.464809384164223,1.390458106994629
0,,2024-06-26 13:12:03,sub_105,3,distance,cathedral,localisation_accuracy,4,8,babble,,,babble-reversed_n13_p229-one-p318-eight-p256-three-p268-nine-p248-five-p284-four.wav,89.14662482575795,30,-0.22224356635133058,4,RX81,5,0.0,0.0,6.0,0,0,7.796187683284458,1.7498087882995605
0,,2024-06-26 13:12:05,sub_105,3,distance,cathedral,localisation_accuracy,4,9,babble,,,babble-reversed_n13_p229-one-p318-eight-p256-three-p268-nine-p248-five-p284-four.wav,92.7615392441486,30,-0.3334202249192917,10,RX81,11,0.0,0.0,12.0,0,0,9.541055718475073,1.2498438358306885
0,,2024-06-26 13:12:07,sub_105,3,distance,cathedral,localisation_accuracy,4,10,babble,,,babble-reversed_n13_p307-nine-p229-one-p256-eight-p248-four-p284-two-p268-three.wav,91.73036865314513,30,-0.39976590481494456,8,RX81,9,0.0,0.0,10.0,0,0,10.816715542521996,1.0311088562011719
0,,2024-06-26 13:12:10,sub_105,3,distance,cathedral,localisation_accuracy,4,11,babble,,,babble-reversed_n13_p318-five-p256-nine-p307-two-p245-eight-p248-one-p284-four.wav,90.43125323353988,30,0.12860684165600422,5,RX81,6,0.0,0.0,7.0,0,0,7.840175953079179,1.7029871940612793
0,,2024-06-26 13:12:12,sub_105,3,distance,cathedral,localisation_accuracy,4,12,babble,,,babble-reversed_n13_p318-five-p229-four-p256-eight-p284-one-p245-three-p248-two.wav,89.29335204110865,30,-0.027135631534408344,4,RX81,5,0.0,0.0,6.0,0,0,4.966275659824047,1.2811121940612793
0,,2024-06-26 13:12:15,sub_105,3,distance,cathedral,localisation_accuracy,4,13,babble,,,babble-reversed_n13_p229-two-p318-eight-p256-three-p268-one-p248-nine-p284-five.wav,91.84159944110118,30,0.36231945953754385,6,RX81,7,0.0,0.0,8.0,0,0,7.268328445747802,1.2029719352722168
0,,2024-06-26 13:12:18,sub_105,3,distance,cathedral,localisation_accuracy,4,14,babble,,,babble-reversed_n13_p229-one-p318-eight-p256-three-p268-nine-p248-five-p284-four.wav,93.1395294567961,30,0.19675281960201985,10,RX81,11,0.0,0.0,12.0,0,0,8.675953079178885,1.9998130798339844
0,,2024-06-26 13:12:20,sub_105,3,distance,cathedral,localisation_accuracy,4,15,babble,,,babble-reversed_n13_p318-three-p229-one-p256-eight-p245-five-p248-four-p284-nine.wav,84.18004810663652,30,-0.3263385221602312,0,RX81,1,0.0,0.0,2.0,0,0,1.9604105571847508,1.32798433303833
0,,2024-06-26 13:12:23,sub_105,3,distance,cathedral,localisation_accuracy,4,16,babble,,,babble-reversed_n13_p318-four-p256-five-p229-three-p284-one-p245-eight-p248-nine.wav,89.31723975653767,30,0.24043107820275977,3,RX81,4,0.0,0.0,5.0,0,0,4.819648093841643,1.4374146461486816
0,,2024-06-26 13:12:25,sub_105,3,distance,cathedral,localisation_accuracy,4,17,babble,,,babble-reversed_n13_p318-nine-p256-five-p307-eight-p268-three-p248-one-p245-four.wav,91.56546982414687,30,-0.2376795813018987,7,RX81,8,0.0,0.0,9.0,0,0,7.180351906158359,1.3123607635498047
0,,2024-06-26 13:12:28,sub_105,3,distance,cathedral,localisation_accuracy,4,18,babble,,,babble-reversed_n13_p229-three-p307-one-p318-two-p245-eight-p268-five-p284-four.wav,92.2509816593077,30,0.3347866349846943,8,RX81,9,0.0,0.0,10.0,0,0,9.218475073313783,1.4061486721038818
0,,2024-06-26 13:12:30,sub_105,3,distance,cathedral,localisation_accuracy,4,19,babble,,,babble-reversed_n13_p256-eight-p229-three-p307-nine-p245-five-p248-four-p268-two.wav,92.13846182082821,30,0.18664511267400274,9,RX81,10,0.0,0.0,11.0,0,0,10.640762463343108,1.3436083793640137
0,,2024-06-26 13:12:33,sub_105,3,distance,cathedral,localisation_accuracy,4,20,babble,,,babble-reversed_n13_p318-three-p307-one-p256-five-p248-nine-p245-two-p284-eight.wav,87.350683899487,30,-0.3165718340716067,2,RX81,3,0.0,0.0,4.0,0,0,2.6495601173020527,1.8592605590820312
0,,2024-06-26 13:12:36,sub_105,3,distance,cathedral,localisation_accuracy,4,21,babble,,,babble-reversed_n13_p318-five-p229-three-p256-four-p268-eight-p248-one-p245-nine.wav,85.94822011189973,30,-0.3717229885081167,1,RX81,2,0.0,0.0,3.0,0,0,1.8870967741935485,1.0779790878295898
0,,2024-06-26 13:12:39,sub_105,3,distance,cathedral,localisation_accuracy,4,22,babble,,,babble-reversed_n13_p318-one-p307-two-p256-eight-p284-three-p248-five-p245-four.wav,91.58925317669983,30,0.0004665888191311973,6,RX81,7,0.0,0.0,8.0,0,0,3.983870967741936,1.7654314041137695
0,,2024-06-26 13:12:41,sub_105,3,distance,cathedral,localisation_accuracy,4,23,babble,,,babble-reversed_n13_p256-four-p229-eight-p307-five-p248-three-p245-one-p284-two.wav,87.44085744439798,30,-0.18710907191951542,2,RX81,3,0.0,0.0,4.0,0,0,2.23900293255132,1.8591787815093994
0,,2024-06-26 13:12:44,sub_105,3,distance,cathedral,localisation_accuracy,4,24,babble,,,babble-reversed_n13_p307-nine-p229-one-p256-eight-p248-four-p284-two-p268-three.wav,88.85660174607435,30,-0.41376957694142613,3,RX81,4,0.0,0.0,5.0,0,0,2.928152492668622,1.031109094619751
0,,2024-06-26 13:12:46,sub_105,3,distance,cathedral,localisation_accuracy,4,25,babble,,,babble-reversed_n13_p307-four-p318-three-p256-eight-p284-two-p245-nine-p248-five.wav,90.24137020820544,30,-0.14280633505827978,5,RX81,6,0.0,0.0,7.0,0,0,4.4530791788856305,1.0467543601989746
0,,2024-06-26 13:12:49,sub_105,3,distance,cathedral,localisation_accuracy,4,26,babble,,,babble-reversed_n13_p229-three-p256-nine-p318-five-p248-one-p245-eight-p284-two.wav,84.3531706066994,30,-0.07069073293938066,0,RX81,1,0.0,0.0,2.0,0,0,1.6964809384164226,1.9841885566711426
0,,2024-06-26 13:12:52,sub_105,3,distance,cathedral,localisation_accuracy,4,27,babble,,,babble-reversed_n13_p307-five-p229-two-p318-four-p248-three-p245-nine-p268-eight.wav,86.03596169439884,30,-0.24465984145950603,1,RX81,2,0.0,0.0,3.0,0,0,2.7375366568914963,2.124844551086426
0,,2024-06-26 13:12:56,sub_105,3,distance,cathedral,localisation_accuracy,4,28,babble,,,babble-reversed_n13_p256-four-p229-eight-p307-five-p248-three-p245-one-p284-two.wav,92.74219827962305,30,-0.36029633187491417,10,RX81,11,0.0,0.0,12.0,0,0,6.036656891495602,3.0310304164886475
0,,2024-06-26 13:12:59,sub_105,3,distance,cathedral,localisation_accuracy,4,29,babble,,,babble-reversed_n13_p256-four-p229-eight-p307-five-p248-three-p245-one-p284-two.wav,91.79614926227758,30,-0.30794433720855474,8,RX81,9,0.0,0.0,10.0,0,0,8.690615835777127,1.4842233657836914
0,,2024-06-26 13:13:01,sub_105,3,distance,cathedral,localisation_accuracy,4,30,babble,,,babble-reversed_n13_p229-five-p318-three-p307-two-p245-four-p284-nine-p248-eight.wav,92.17247007466416,30,0.23479063922743793,9,RX81,10,0.0,0.0,11.0,0,0,10.816715542521996,1.1561222076416016
0,,2024-06-26 13:13:04,sub_105,3,distance,cathedral,localisation_accuracy,4,31,babble,,,babble-reversed_n13_p256-three-p318-one-p307-two-p284-nine-p268-four-p245-eight.wav,89.43220758978998,30,0.15868229488366115,4,RX81,5,0.0,0.0,6.0,0,0,7.796187683284458,1.6404435634613037
0,,2024-06-26 13:13:07,sub_105,3,distance,cathedral,localisation_accuracy,4,32,babble,,,babble-reversed_n13_p229-three-p307-one-p318-two-p245-eight-p268-five-p284-four.wav,91.48247664583617,30,-0.35120887009593793,7,RX81,8,0.0,0.0,9.0,0,0,5.288856304985337,1.5779669284820557
0,,2024-06-26 13:13:10,sub_105,3,distance,cathedral,localisation_accuracy,4,33,babble,,,babble-reversed_n13_p229-one-p318-eight-p256-three-p268-two-p245-five-p248-nine.wav,84.25870835053323,30,-0.21045375425597157,0,RX81,1,0.0,0.0,2.0,0,0,2.151026392961877,2.0622856616973877
0,,2024-06-26 13:13:12,sub_105,3,distance,cathedral,localisation_accuracy,4,34,babble,,,babble-reversed_n13_p256-eight-p318-two-p307-five-p245-four-p268-nine-p284-one.wav,88.91026988340313,30,-0.3382841121175738,3,RX81,4,0.0,0.0,5.0,0,0,4.7756598240469215,1.437351942062378
0,,2024-06-26 13:13:16,sub_105,3,distance,cathedral,localisation_accuracy,4,35,babble,,,babble-reversed_n13_p229-three-p256-nine-p318-five-p248-one-p245-eight-p284-two.wav,93.25522046955223,30,0.3609082315098272,10,RX81,11,0.0,0.0,12.0,0,0,6.461876832844575,2.593519926071167
0,,2024-06-26 13:13:20,sub_105,3,distance,cathedral,localisation_accuracy,4,36,babble,,,babble-reversed_n13_p318-nine-p256-five-p307-eight-p268-three-p248-one-p245-four.wav,91.88420855821603,30,0.20238980445465704,7,RX81,8,0.0,0.0,9.0,0,0,7.341642228739003,3.0466554164886475
0,,2024-06-26 13:13:22,sub_105,3,distance,cathedral,localisation_accuracy,4,37,babble,,,babble-reversed_n13_p318-nine-p256-five-p307-eight-p268-three-p248-one-p245-four.wav,91.72787877679518,30,0.19871216458778562,6,RX81,7,0.0,0.0,8.0,0,0,8.587976539589443,0.9998822212219238
0,,2024-06-26 13:13:26,sub_105,3,distance,cathedral,localisation_accuracy,4,38,babble,,,babble-reversed_n13_p307-nine-p229-one-p256-eight-p248-four-p284-two-p268-three.wav,90.26593187880624,30,-0.10783675807251536,5,RX81,6,0.0,0.0,7.0,0,0,7.810850439882698,1.9841890335083008
0,,2024-06-26 13:13:28,sub_105,3,distance,cathedral,localisation_accuracy,4,39,babble,,,babble-reversed_n13_p307-four-p318-three-p256-eight-p284-two-p245-nine-p248-five.wav,87.82775851874405,30,0.37480688148131014,2,RX81,3,0.0,0.0,4.0,0,0,4.804985337243402,1.249927043914795
0,,2024-06-26 13:13:31,sub_105,3,distance,cathedral,localisation_accuracy,4,40,babble,,,babble-reversed_n13_p229-eight-p256-nine-p318-four-p245-three-p268-five-p284-two.wav,86.43255304920154,30,0.3364969848923911,1,RX81,2,0.0,0.0,3.0,0,0,2.4149560117302054,1.562382698059082
0,,2024-06-26 13:13:34,sub_105,3,distance,cathedral,localisation_accuracy,4,41,babble,,,babble-reversed_n13_p229-three-p307-one-p318-two-p245-eight-p268-five-p284-four.wav,89.10187568919093,30,-0.28149482398314374,4,RX81,5,0.0,0.0,6.0,0,0,9.174486803519063,1.8123035430908203
0,,2024-06-26 13:13:36,sub_105,3,distance,cathedral,localisation_accuracy,4,42,babble,,,babble-reversed_n13_p307-five-p229-two-p318-four-p248-three-p245-nine-p268-eight.wav,91.77560363055044,30,-0.3366540369441703,8,RX81,9,0.0,0.0,10.0,0,0,10.67008797653959,1.312359094619751
0,,2024-06-26 13:13:38,sub_105,3,distance,cathedral,localisation_accuracy,4,43,babble,,,babble-reversed_n13_p256-three-p318-one-p307-two-p284-nine-p268-four-p245-eight.wav,92.21644149374946,30,0.2971548770379252,9,RX81,10,0.0,0.0,11.0,0,0,11.403225806451614,1.1092283725738525
0,,2024-06-26 13:13:40,sub_105,3,distance,cathedral,localisation_accuracy,4,44,babble,,,babble-reversed_n13_p229-five-p256-one-p318-three-p248-nine-p268-four-p284-eight.wav,91.78658802975062,30,0.2830654277433581,6,RX81,7,0.0,0.0,8.0,0,0,11.403225806451614,0.937368631362915
0,,2024-06-26 13:13:43,sub_105,3,distance,cathedral,localisation_accuracy,4,45,babble,,,babble-reversed_n13_p318-four-p256-five-p229-three-p284-one-p245-eight-p248-nine.wav,90.30848390791235,30,-0.04715651159650269,5,RX81,6,0.0,0.0,7.0,0,0,8.602639296187684,1.109238624572754
0,,2024-06-26 13:13:45,sub_105,3,distance,cathedral,localisation_accuracy,4,46,babble,,,babble-reversed_n13_p256-three-p318-one-p307-two-p284-nine-p268-four-p245-eight.wav,84.72362756456187,30,0.4837816250256004,0,RX81,1,0.0,0.0,2.0,0,0,1.8870967741935485,1.6873128414154053
0,,2024-06-26 13:13:48,sub_105,3,distance,cathedral,localisation_accuracy,4,47,babble,,,babble-reversed_n13_p256-two-p307-five-p318-nine-p248-eight-p245-four-p284-one.wav,91.49928341705518,30,-0.328253319299437,7,RX81,8,0.0,0.0,9.0,0,0,6.535190615835777,1.8279483318328857
0,,2024-06-26 13:13:52,sub_105,3,distance,cathedral,localisation_accuracy,4,48,babble,,,babble-reversed_n13_p229-one-p318-nine-p256-four-p284-eight-p268-five-p245-two.wav,87.80939046936162,30,0.34789212900584754,2,RX81,3,0.0,0.0,4.0,0,0,2.7815249266862176,2.952869415283203
0,,2024-06-26 13:13:55,sub_105,3,distance,cathedral,localisation_accuracy,4,49,babble,,,babble-reversed_n13_p307-two-p229-one-p256-five-p248-nine-p284-three-p268-eight.wav,92.22206101927996,30,0.3051342604500432,9,RX81,10,0.0,0.0,11.0,0,0,9.74633431085044,1.749828815460205
0,,2024-06-26 13:13:59,sub_105,3,distance,cathedral,localisation_accuracy,4,50,babble,,,babble-reversed_n13_p318-five-p229-four-p256-eight-p284-one-p245-three-p248-two.wav,86.51577664631853,30,0.45988465933491607,1,RX81,2,0.0,0.0,3.0,0,0,2.1217008797653962,2.5466485023498535
0,,2024-06-26 13:14:02,sub_105,3,distance,cathedral,localisation_accuracy,4,51,babble,,,babble-reversed_n13_p318-five-p256-nine-p307-two-p245-eight-p248-one-p284-four.wav,92.72842216574163,30,-0.37942470144437557,10,RX81,11,0.0,0.0,12.0,0,0,10.391495601173022,2.062286615371704
0,,2024-06-26 13:14:06,sub_105,3,distance,cathedral,localisation_accuracy,4,52,babble,,,babble-reversed_n13_p229-five-p256-one-p318-three-p248-nine-p268-four-p284-eight.wav,89.29120622887586,30,-0.029998178361209105,4,RX81,5,0.0,0.0,6.0,0,0,11.667155425219942,2.3747856616973877
0,,2024-06-26 13:14:08,sub_105,3,distance,cathedral,localisation_accuracy,4,53,babble,,,babble-reversed_n13_p256-three-p318-two-p229-nine-p248-four-p284-one-p268-eight.wav,89.41901560961705,30,0.3869137321879066,3,RX81,4,0.0,0.0,5.0,0,0,5.758064516129033,1.1248552799224854
0,,2024-06-26 13:14:10,sub_105,3,distance,cathedral,localisation_accuracy,4,54,babble,,,babble-reversed_n13_p318-five-p229-three-p256-four-p268-eight-p248-one-p245-nine.wav,91.7435909971331,30,-0.3813319836457524,8,RX81,9,0.0,0.0,10.0,0,0,9.951612903225808,1.3592100143432617
