,event_id,subject_id,timestamp,session_index,plane,setup,task,block,trial_index,stim_number,stim_type,stim_country_ids,stim_sexes,stim_talker_ids,speaker_ids,stim_level,resp_number,is_correct,speaker_distance_mean,speaker_distance_st_dev,reaction_time,spectral_coverage
0,,sub_105,2024-06-26 12:21:35,3,distance,cathedral,numerosity_judgement,1,0,2,countries_forward,"['_Mali_', '_Oman_']","['m', 'm']","['p307', 'p256']","[5, 7]","[90.34149293193902, 91.73820004985969]",4.0,False,8.0,1.4142135623730951,3.687225103378296,0.5621949835432981
0,,sub_105,2024-06-26 12:21:42,3,distance,cathedral,numerosity_judgement,1,1,4,countries_forward,"['_Cuba_', '_Syria_', '_Oman_', '_Mali_']","['f', 'f', 'm', 'm']","['p284', 'p248', 'p229', 'p307']","[8, 0, 4, 10]","[92.0152836843556, 84.40078082039426, 89.31368318402099, 93.00003341222717]",3.0,False,7.5,4.43471156521669,5.249609470367432,0.7991033934854159
0,,sub_105,2024-06-26 12:21:46,3,distance,cathedral,numerosity_judgement,1,2,6,countries_forward,"['_Mali_', '_Congo_', '_Sudan_', '_Yemen_', '_Belgium_', '_Syria_']","['m', 'f', 'm', 'f', 'f', 'f']","['p256', 'p268', 'p229', 'p245', 'p284', 'p248']","[1, 10, 9, 8, 0, 5]","[86.2038576498559, 93.00003341222717, 92.00610777531934, 92.0152836843556, 84.40078082039426, 90.34149293193902]",6.0,True,7.5,4.230839160261236,1.7498703002929688,0.9215753035977756
0,,sub_105,2024-06-26 12:21:50,3,distance,cathedral,numerosity_judgement,1,3,3,countries_forward,"['_Peru_', '_Japan_', '_Sudan_']","['m', 'm', 'f']","['p318', 'p256', 'p245']","[0, 3, 6]","[84.40078082039426, 89.14911522239515, 91.58892582949886]",2.0,False,5.0,3.0,2.374890089035034,0.8906026557711951
0,,sub_105,2024-06-26 12:21:54,3,distance,cathedral,numerosity_judgement,1,4,5,countries_forward,"['_Britain_', '_Yemen_', '_Sudan_', '_Oman_', '_Tonga_']","['m', 'm', 'm', 'f', 'f']","['p318', 'p256', 'p307', 'p245', 'p248']","[2, 7, 8, 10, 0]","[87.57049330475357, 91.73820004985969, 92.0152836843556, 93.00003341222717, 84.40078082039426]",4.0,False,7.4,4.219004621945797,2.374823570251465,0.7693791851095222
0,,sub_105,2024-06-26 12:21:59,3,distance,cathedral,numerosity_judgement,1,5,4,countries_forward,"['_Cuba_', '_Congo_', '_Japan_', '_Sudan_']","['f', 'f', 'f', 'm']","['p245', 'p268', 'p248', 'p307']","[4, 8, 6, 0]","[89.31368318402099, 92.0152836843556, 91.58892582949886, 84.40078082039426]",3.0,False,6.5,3.415650255319866,2.812281608581543,0.8500283736238793
0,,sub_105,2024-06-26 12:22:04,3,distance,cathedral,numerosity_judgement,1,6,6,countries_forward,"['_Syria_', '_Peru_', '_Oman_', '_Belgium_', '_Britain_', '_Congo_']","['f', 'm', 'f', 'm', 'f', 'm']","['p245', 'p229', 'p284', 'p318', 'p268', 'p307']","[1, 4, 7, 9, 3, 5]","[86.2038576498559, 89.31368318402099, 91.73820004985969, 92.00610777531934, 89.14911522239515, 90.34149293193902]",4.0,False,6.833333333333333,2.857738033247041,2.874786138534546,0.9039382589944388
0,,sub_105,2024-06-26 12:22:07,3,distance,cathedral,numerosity_judgement,1,7,5,countries_forward,"['_Cuba_', '_Japan_', '_Yemen_', '_Peru_', '_Britain_']","['m', 'f', 'm', 'f', 'f']","['p307', 'p284', 'p229', 'p245', 'p268']","[7, 0, 5, 6, 10]","[91.73820004985969, 84.40078082039426, 90.34149293193902, 91.58892582949886, 93.00003341222717]",5.0,True,7.6,3.646916505762094,1.4998886585235596,0.7025309272500284
0,,sub_105,2024-06-26 12:22:12,3,distance,cathedral,numerosity_judgement,1,8,2,countries_forward,"['_Britain_', '_Yemen_']","['f', 'm']","['p268', 'p256']","[8, 10]","[92.0152836843556, 93.00003341222717]",3.0,False,11.0,1.4142135623730951,2.9997758865356445,0.6622857791397118
0,,sub_105,2024-06-26 12:22:17,3,distance,cathedral,numerosity_judgement,1,9,3,countries_forward,"['_Belgium_', '_Syria_', '_Japan_']","['f', 'm', 'm']","['p248', 'p318', 'p256']","[2, 6, 8]","[87.57049330475357, 91.58892582949886, 92.0152836843556]",3.0,True,7.333333333333333,3.0550504633038935,3.24975848197937,0.9163772557030984
0,,sub_105,2024-06-26 12:22:20,3,distance,cathedral,numerosity_judgement,1,10,2,countries_forward,"['_Yemen_', '_Oman_']","['f', 'm']","['p248', 'p307']","[7, 9]","[91.73820004985969, 92.00610777531934]",2.0,True,10.0,1.4142135623730951,1.374837875366211,0.5863920099875156
0,,sub_105,2024-06-26 12:22:25,3,distance,cathedral,numerosity_judgement,1,11,5,countries_forward,"['_Belgium_', '_Mali_', '_Syria_', '_Cuba_', '_Sudan_']","['f', 'm', 'm', 'm', 'f']","['p284', 'p229', 'p318', 'p307', 'p245']","[3, 4, 10, 5, 7]","[89.14911522239515, 89.31368318402099, 93.00003341222717, 90.34149293193902, 91.73820004985969]",5.0,True,7.8,2.7748873851023212,3.312218427658081,0.8292361820451708
0,,sub_105,2024-06-26 12:22:29,3,distance,cathedral,numerosity_judgement,1,12,6,countries_forward,"['_Japan_', '_Togo_', '_Cuba_', '_Yemen_', '_Congo_', '_Britain_']","['f', 'm', 'm', 'f', 'f', 'f']","['p245', 'p256', 'p229', 'p284', 'p268', 'p248']","[6, 0, 8, 10, 2, 4]","[91.58892582949886, 84.40078082039426, 92.0152836843556, 93.00003341222717, 87.57049330475357, 89.31368318402099]",4.0,False,7.0,3.7416573867739413,2.4998135566711426,0.8860855748496198
0,,sub_105,2024-06-26 12:22:33,3,distance,cathedral,numerosity_judgement,1,13,4,countries_forward,"['_Tonga_', '_Syria_', '_Japan_', '_Yemen_']","['m', 'f', 'f', 'm']","['p256', 'p268', 'p248', 'p318']","[10, 6, 5, 2]","[93.00003341222717, 91.58892582949886, 90.34149293193902, 87.57049330475357]",3.0,False,7.75,3.304037933599835,1.7499334812164307,0.9386789240721825
0,,sub_105,2024-06-26 12:22:38,3,distance,cathedral,numerosity_judgement,1,14,3,countries_forward,"['_Sudan_', '_Cuba_', '_Syria_']","['f', 'm', 'f']","['p284', 'p256', 'p248']","[8, 6, 9]","[92.0152836843556, 91.58892582949886, 92.00610777531934]",4.0,False,9.666666666666666,1.5275252316519468,3.249760866165161,0.9445465894904096
0,,sub_105,2024-06-26 12:22:42,3,distance,cathedral,numerosity_judgement,1,15,5,countries_forward,"['_Togo_', '_Syria_', '_Britain_', '_Tonga_', '_Mali_']","['f', 'm', 'f', 'm', 'm']","['p248', 'p256', 'p268', 'p307', 'p318']","[3, 4, 6, 9, 5]","[89.14911522239515, 89.31368318402099, 91.58892582949886, 92.00610777531934, 90.34149293193902]",6.0,False,7.4,2.3021728866442674,2.1248419284820557,0.9361593462717058
0,,sub_105,2024-06-26 12:22:45,3,distance,cathedral,numerosity_judgement,1,16,3,countries_forward,"['_Oman_', '_Tonga_', '_Cuba_']","['f', 'f', 'm']","['p248', 'p245', 'p318']","[3, 10, 7]","[89.14911522239515, 93.00003341222717, 91.73820004985969]",5.0,False,8.666666666666666,3.511884584284246,1.687373399734497,0.7157984337759619
0,,sub_105,2024-06-26 12:22:49,3,distance,cathedral,numerosity_judgement,1,17,2,countries_forward,"['_Japan_', '_Syria_']","['m', 'f']","['p318', 'p248']","[1, 3]","[86.2038576498559, 89.14911522239515]",2.0,True,4.0,1.4142135623730951,2.2498319149017334,0.948882079219158
0,,sub_105,2024-06-26 12:22:53,3,distance,cathedral,numerosity_judgement,1,18,4,countries_forward,"['_Yemen_', '_Belgium_', '_Oman_', '_Mali_']","['f', 'm', 'm', 'm']","['p284', 'p229', 'p256', 'p307']","[8, 0, 3, 9]","[92.0152836843556, 84.40078082039426, 89.14911522239515, 92.00610777531934]",3.0,False,7.0,4.242640687119285,1.8904824256896973,0.7163432073544433
0,,sub_105,2024-06-26 12:22:56,3,distance,cathedral,numerosity_judgement,1,19,6,countries_forward,"['_Tonga_', '_Peru_', '_Britain_', '_Oman_', '_Yemen_', '_Mali_']","['f', 'f', 'm', 'f', 'm', 'f']","['p245', 'p268', 'p318', 'p248', 'p307', 'p284']","[10, 8, 6, 9, 2, 7]","[93.00003341222717, 92.0152836843556, 91.58892582949886, 92.00610777531934, 87.57049330475357, 91.73820004985969]",4.0,False,9.0,2.8284271247461903,1.8748061656951904,0.7124843945068664
0,,sub_105,2024-06-26 12:23:01,3,distance,cathedral,numerosity_judgement,1,20,4,countries_forward,"['_Togo_', '_Britain_', '_Mali_', '_Cuba_']","['f', 'm', 'f', 'm']","['p245', 'p256', 'p284', 'p307']","[6, 0, 8, 7]","[91.58892582949886, 84.40078082039426, 92.0152836843556, 91.73820004985969]",2.0,False,7.25,3.593976442141304,2.6872997283935547,0.6877085461355125
0,,sub_105,2024-06-26 12:23:07,3,distance,cathedral,numerosity_judgement,1,21,3,countries_forward,"['_Belgium_', '_Oman_', '_Peru_']","['m', 'm', 'f']","['p256', 'p307', 'p248']","[8, 3, 1]","[92.0152836843556, 89.14911522239515, 86.2038576498559]",4.0,False,6.0,3.605551275463989,4.312179088592529,0.827318125070934
0,,sub_105,2024-06-26 12:23:12,3,distance,cathedral,numerosity_judgement,1,22,2,countries_forward,"['_Japan_', '_Congo_']","['f', 'm']","['p284', 'p229']","[6, 9]","[91.58892582949886, 92.00610777531934]",3.0,False,9.5,2.1213203435596424,3.249757766723633,0.9138917262512768
0,,sub_105,2024-06-26 12:23:16,3,distance,cathedral,numerosity_judgement,1,23,6,countries_forward,"['_Sudan_', '_Yemen_', '_Togo_', '_Mali_', '_Cuba_', '_Syria_']","['m', 'f', 'm', 'f', 'f', 'f']","['p256', 'p268', 'p229', 'p284', 'p245', 'p248']","[7, 9, 3, 5, 8, 1]","[91.73820004985969, 92.00610777531934, 89.14911522239515, 90.34149293193902, 92.0152836843556, 86.2038576498559]",6.0,True,7.5,3.082207001484488,2.062345504760742,0.8005674724775849
0,,sub_105,2024-06-26 12:23:21,3,distance,cathedral,numerosity_judgement,1,24,5,countries_forward,"['_Britain_', '_Tonga_', '_Sudan_', '_Syria_', '_Japan_']","['m', 'f', 'm', 'f', 'f']","['p307', 'p248', 'p229', 'p268', 'p245']","[2, 7, 5, 3, 0]","[87.57049330475357, 91.73820004985969, 90.34149293193902, 89.14911522239515, 84.40078082039426]",5.0,True,5.4,2.701851217221259,3.3747482299804688,0.9470548178413348
0,,sub_105,2024-06-26 12:23:25,3,distance,cathedral,numerosity_judgement,1,25,4,countries_forward,"['_Peru_', '_Japan_', '_Oman_', '_Sudan_']","['m', 'f', 'm', 'f']","['p256', 'p284', 'p318', 'p248']","[6, 9, 4, 5]","[91.58892582949886, 92.00610777531934, 89.31368318402099, 90.34149293193902]",4.0,True,8.0,2.160246899469287,2.0623464584350586,0.8873226648507547
0,,sub_105,2024-06-26 12:23:30,3,distance,cathedral,numerosity_judgement,1,26,6,countries_forward,"['_Peru_', '_Yemen_', '_Tonga_', '_Togo_', '_Japan_', '_Congo_']","['f', 'm', 'f', 'm', 'm', 'm']","['p248', 'p318', 'p245', 'p307', 'p256', 'p229']","[4, 9, 5, 6, 3, 2]","[89.31368318402099, 92.00610777531934, 90.34149293193902, 91.58892582949886, 89.14911522239515, 87.57049330475357]",4.0,False,6.833333333333333,2.48327740429189,2.6872997283935547,0.7702303938258994
0,,sub_105,2024-06-26 12:23:33,3,distance,cathedral,numerosity_judgement,1,27,3,countries_forward,"['_Cuba_', '_Britain_', '_Tonga_']","['m', 'm', 'm']","['p229', 'p256', 'p307']","[8, 10, 4]","[92.0152836843556, 93.00003341222717, 89.31368318402099]",3.0,True,9.333333333333334,3.055050463303893,1.4998905658721924,0.7524798547270457
0,,sub_105,2024-06-26 12:23:37,3,distance,cathedral,numerosity_judgement,1,28,5,countries_forward,"['_Congo_', '_Cuba_', '_Peru_', '_Britain_', '_Mali_']","['m', 'm', 'f', 'f', 'm']","['p256', 'p307', 'p284', 'p245', 'p229']","[3, 4, 9, 0, 10]","[89.14911522239515, 89.31368318402099, 92.00610777531934, 84.40078082039426, 93.00003341222717]",2.0,False,7.2,4.207136793592526,2.7497947216033936,0.8091590057882193
0,,sub_105,2024-06-26 12:23:41,3,distance,cathedral,numerosity_judgement,1,29,2,countries_forward,"['_Cuba_', '_Oman_']","['f', 'f']","['p284', 'p245']","[5, 6]","[90.34149293193902, 91.58892582949886]",2.0,True,7.5,0.7071067811865476,2.4373185634613037,0.7951651344909771
0,,sub_105,2024-06-26 12:23:46,3,distance,cathedral,numerosity_judgement,1,30,4,countries_forward,"['_Yemen_', '_Oman_', '_Peru_', '_Togo_']","['m', 'm', 'f', 'm']","['p229', 'p307', 'p268', 'p256']","[9, 5, 3, 10]","[92.00610777531934, 90.34149293193902, 89.14911522239515, 93.00003341222717]",3.0,False,8.75,3.304037933599835,2.937281608581543,0.6414935875610033
0,,sub_105,2024-06-26 12:23:52,3,distance,cathedral,numerosity_judgement,1,31,6,countries_forward,"['_Peru_', '_Congo_', '_Yemen_', '_Britain_', '_Oman_', '_Mali_']","['m', 'm', 'f', 'f', 'm', 'f']","['p229', 'p256', 'p268', 'p284', 'p307', 'p248']","[3, 8, 7, 4, 6, 0]","[89.14911522239515, 92.0152836843556, 91.73820004985969, 89.31368318402099, 91.58892582949886, 84.40078082039426]",4.0,False,6.666666666666667,2.943920288775949,3.374748945236206,0.7414481897627965
0,,sub_105,2024-06-26 12:23:55,3,distance,cathedral,numerosity_judgement,1,32,2,countries_forward,"['_Oman_', '_Mali_']","['m', 'f']","['p229', 'p245']","[6, 3]","[91.58892582949886, 89.14911522239515]",2.0,True,6.5,2.1213203435596424,1.624880075454712,0.6874248098967201
0,,sub_105,2024-06-26 12:23:58,3,distance,cathedral,numerosity_judgement,1,33,3,countries_forward,"['_Tonga_', '_Peru_', '_Yemen_']","['f', 'm', 'f']","['p245', 'p318', 'p268']","[5, 7, 6]","[90.34149293193902, 91.73820004985969, 91.58892582949886]",3.0,True,8.0,1.0,1.37489914894104,0.6370332538871865
0,,sub_105,2024-06-26 12:24:03,3,distance,cathedral,numerosity_judgement,1,34,5,countries_forward,"['_Yemen_', '_Britain_', '_Togo_', '_Belgium_', '_Oman_']","['f', 'm', 'f', 'm', 'm']","['p268', 'p256', 'p248', 'p307', 'p229']","[9, 2, 0, 7, 6]","[92.00610777531934, 87.57049330475357, 84.40078082039426, 91.73820004985969, 91.58892582949886]",5.0,True,6.8,3.7013511046643495,3.3747494220733643,0.7335943706730224
0,,sub_105,2024-06-26 12:24:07,3,distance,cathedral,numerosity_judgement,1,35,6,countries_forward,"['_Britain_', '_Peru_', '_Tonga_', '_Belgium_', '_Togo_', '_Sudan_']","['m', 'f', 'f', 'm', 'm', 'm']","['p307', 'p268', 'p284', 'p229', 'p256', 'p318']","[1, 3, 7, 0, 9, 8]","[86.2038576498559, 89.14911522239515, 91.73820004985969, 84.40078082039426, 92.00610777531934, 92.0152836843556]",6.0,True,6.666666666666667,3.8297084310253524,2.312328577041626,0.9473272046305754
0,,sub_105,2024-06-26 12:24:12,3,distance,cathedral,numerosity_judgement,1,36,3,countries_forward,"['_Britain_', '_Tonga_', '_Japan_']","['m', 'm', 'f']","['p256', 'p229', 'p268']","[0, 1, 9]","[84.40078082039426, 86.2038576498559, 92.00610777531934]",3.0,True,5.333333333333333,4.932882862316247,3.062272548675537,0.8326183180115765
0,,sub_105,2024-06-26 12:24:15,3,distance,cathedral,numerosity_judgement,1,37,2,countries_forward,"['_Tonga_', '_Togo_']","['f', 'm']","['p284', 'p229']","[2, 0]","[87.57049330475357, 84.40078082039426]",2.0,True,3.0,1.4142135623730951,1.8748600482940674,0.8549540347293156
0,,sub_105,2024-06-26 12:24:20,3,distance,cathedral,numerosity_judgement,1,38,4,countries_forward,"['_Britain_', '_Belgium_', '_Sudan_', '_Yemen_']","['m', 'f', 'm', 'f']","['p318', 'p284', 'p229', 'p268']","[2, 5, 7, 0]","[87.57049330475357, 90.34149293193902, 91.73820004985969, 84.40078082039426]",3.0,False,5.5,3.1091263510296048,2.4998133182525635,0.964442174554534
0,,sub_105,2024-06-26 12:24:24,3,distance,cathedral,numerosity_judgement,1,39,5,countries_forward,"['_Britain_', '_Tonga_', '_Cuba_', '_Yemen_', '_Congo_']","['m', 'f', 'f', 'm', 'm']","['p318', 'p284', 'p248', 'p229', 'p307']","[7, 2, 5, 0, 6]","[91.73820004985969, 87.57049330475357, 90.34149293193902, 84.40078082039426, 91.58892582949886]",3.0,False,6.0,2.9154759474226504,2.562375545501709,0.8678583588695948
0,,sub_105,2024-06-26 12:24:28,3,distance,cathedral,numerosity_judgement,1,40,4,countries_forward,"['_Togo_', '_Cuba_', '_Japan_', '_Yemen_']","['f', 'm', 'f', 'm']","['p268', 'p307', 'p248', 'p229']","[3, 4, 2, 10]","[89.14911522239515, 89.31368318402099, 87.57049330475357, 93.00003341222717]",2.0,False,6.75,3.593976442141304,2.0623462200164795,0.7628646010668483
0,,sub_105,2024-06-26 12:24:32,3,distance,cathedral,numerosity_judgement,1,41,6,countries_forward,"['_Sudan_', '_Japan_', '_Tonga_', '_Togo_', '_Congo_', '_Oman_']","['m', 'f', 'm', 'f', 'f', 'm']","['p256', 'p248', 'p229', 'p268', 'p284', 'p318']","[10, 4, 2, 5, 6, 7]","[93.00003341222717, 89.31368318402099, 87.57049330475357, 90.34149293193902, 91.58892582949886, 91.73820004985969]",4.0,False,7.666666666666667,2.7325202042558927,1.8749265670776367,0.8389286119623198
0,,sub_105,2024-06-26 12:24:35,3,distance,cathedral,numerosity_judgement,1,42,2,countries_forward,"['_Peru_', '_Oman_']","['f', 'm']","['p245', 'p256']","[5, 8]","[90.34149293193902, 92.0152836843556]",2.0,True,8.5,2.1213203435596424,1.8123643398284912,0.7590057882192713
0,,sub_105,2024-06-26 12:24:40,3,distance,cathedral,numerosity_judgement,1,43,5,countries_forward,"['_Yemen_', '_Tonga_', '_Britain_', '_Mali_', '_Belgium_']","['f', 'm', 'f', 'm', 'm']","['p268', 'p229', 'p245', 'p318', 'p256']","[6, 3, 1, 7, 4]","[91.58892582949886, 89.14911522239515, 86.2038576498559, 91.73820004985969, 89.31368318402099]",2.0,False,6.2,2.3874672772626644,3.4997410774230957,0.7616502099648167
0,,sub_105,2024-06-26 12:24:45,3,distance,cathedral,numerosity_judgement,1,44,3,countries_forward,"['_Cuba_', '_Peru_', '_Oman_']","['m', 'f', 'm']","['p307', 'p284', 'p229']","[7, 9, 0]","[91.73820004985969, 92.00610777531934, 84.40078082039426]",2.0,False,7.333333333333333,4.725815626252608,2.874788999557495,0.6766201339235047
0,,sub_105,2024-06-26 12:24:49,3,distance,cathedral,numerosity_judgement,1,45,6,countries_forward,"['_Cuba_', '_Britain_', '_Yemen_', '_Peru_', '_Syria_', '_Tonga_']","['f', 'f', 'm', 'm', 'm', 'f']","['p284', 'p248', 'p256', 'p318', 'p229', 'p245']","[7, 2, 1, 9, 8, 10]","[91.73820004985969, 87.57049330475357, 86.2038576498559, 92.00610777531934, 92.0152836843556, 93.00003341222717]",5.0,False,8.166666666666666,3.763863263545405,1.9373557567596436,0.8300760413119964
0,,sub_105,2024-06-26 12:24:54,3,distance,cathedral,numerosity_judgement,1,46,2,countries_forward,"['_Belgium_', '_Peru_']","['m', 'm']","['p229', 'p318']","[0, 10]","[84.40078082039426, 93.00003341222717]",2.0,True,7.0,7.0710678118654755,3.2498116493225098,0.8091022585404608
0,,sub_105,2024-06-26 12:25:00,3,distance,cathedral,numerosity_judgement,1,47,5,countries_forward,"['_Oman_', '_Britain_', '_Yemen_', '_Syria_', '_Cuba_']","['f', 'm', 'm', 'f', 'm']","['p268', 'p229', 'p256', 'p248', 'p307']","[4, 9, 3, 8, 1]","[89.31368318402099, 92.00610777531934, 89.14911522239515, 92.0152836843556, 86.2038576498559]",3.0,False,7.0,3.391164991562634,4.749645709991455,0.8858585858585859
0,,sub_105,2024-06-26 12:25:06,3,distance,cathedral,numerosity_judgement,1,48,4,countries_forward,"['_Mali_', '_Togo_', '_Congo_', '_Oman_']","['f', 'm', 'm', 'f']","['p245', 'p307', 'p256', 'p268']","[0, 1, 10, 8]","[84.40078082039426, 86.2038576498559, 93.00003341222717, 92.0152836843556]",3.0,False,6.75,4.9916597106239795,3.437244176864624,0.8343774826920894
0,,sub_105,2024-06-26 12:25:09,3,distance,cathedral,numerosity_judgement,1,49,3,countries_forward,"['_Peru_', '_Yemen_', '_Congo_']","['f', 'm', 'f']","['p248', 'p307', 'p268']","[4, 10, 3]","[89.31368318402099, 93.00003341222717, 89.14911522239515]",4.0,False,7.666666666666667,3.7859388972001824,1.6248784065246582,0.7842923618204517
0,,sub_105,2024-06-26 12:36:47,3,distance,cathedral,numerosity_judgement,2,0,6,countries_forward,"['_Oman_', '_Belgium_', '_Tonga_', '_Sudan_', '_Mali_', '_Syria_']","['m', 'f', 'm', 'f', 'f', 'f']","['p307', 'p248', 'p318', 'p268', 'p284', 'p245']","[3, 0, 4, 9, 8, 5]","[89.14911522239515, 84.40078082039426, 89.31368318402099, 92.00610777531934, 92.0152836843556, 90.34149293193902]",6.0,True,6.833333333333333,3.3115957885386114,3.499743938446045,0.947599591419816
0,,sub_105,2024-06-26 12:36:51,3,distance,cathedral,numerosity_judgement,2,1,5,countries_forward,"['_Mali_', '_Yemen_', '_Peru_', '_Syria_', '_Oman_']","['m', 'f', 'f', 'm', 'f']","['p307', 'p248', 'p268', 'p256', 'p245']","[9, 5, 10, 2, 4]","[92.00610777531934, 90.34149293193902, 93.00003341222717, 87.57049330475357, 89.31368318402099]",3.0,False,8.0,3.391164991562634,1.6873767375946045,0.6808648280558393
0,,sub_105,2024-06-26 12:36:54,3,distance,cathedral,numerosity_judgement,2,2,3,countries_forward,"['_Yemen_', '_Syria_', '_Togo_']","['f', 'm', 'm']","['p248', 'p318', 'p307']","[3, 2, 8]","[89.14911522239515, 87.57049330475357, 92.0152836843556]",2.0,False,6.333333333333333,3.2145502536643185,1.9998548030853271,0.8423901940755874
0,,sub_105,2024-06-26 12:36:58,3,distance,cathedral,numerosity_judgement,2,3,2,countries_forward,"['_Oman_', '_Yemen_']","['m', 'm']","['p256', 'p307']","[9, 3]","[92.00610777531934, 89.14911522239515]",2.0,True,8.0,4.242640687119285,1.7498726844787598,0.6532856656452162
0,,sub_105,2024-06-26 12:37:03,3,distance,cathedral,numerosity_judgement,2,4,4,countries_forward,"['_Britain_', '_Tonga_', '_Togo_', '_Japan_']","['m', 'm', 'f', 'm']","['p229', 'p256', 'p248', 'p318']","[0, 8, 2, 1]","[84.40078082039426, 92.0152836843556, 87.57049330475357, 86.2038576498559]",3.0,False,4.75,3.593976442141304,3.562239408493042,0.948348655090228
0,,sub_105,2024-06-26 12:37:06,3,distance,cathedral,numerosity_judgement,2,5,6,countries_forward,"['_Oman_', '_Peru_', '_Britain_', '_Tonga_', '_Yemen_', '_Congo_']","['f', 'f', 'm', 'f', 'm', 'f']","['p284', 'p268', 'p229', 'p248', 'p318', 'p245']","[7, 8, 5, 10, 6, 1]","[91.73820004985969, 92.0152836843556, 90.34149293193902, 93.00003341222717, 91.58892582949886, 86.2038576498559]",4.0,False,8.166666666666666,3.0605010483034745,0.9999279975891113,0.7195778004766769
0,,sub_105,2024-06-26 12:37:09,3,distance,cathedral,numerosity_judgement,2,6,5,countries_forward,"['_Oman_', '_Britain_', '_Tonga_', '_Yemen_', '_Mali_']","['f', 'm', 'm', 'f', 'm']","['p268', 'p229', 'p256', 'p248', 'p307']","[10, 1, 6, 3, 8]","[93.00003341222717, 86.2038576498559, 91.58892582949886, 89.14911522239515, 92.0152836843556]",5.0,True,7.6,3.646916505762094,0.8124406337738037,0.7298717512200659
0,,sub_105,2024-06-26 12:37:14,3,distance,cathedral,numerosity_judgement,2,7,3,countries_forward,"['_Yemen_', '_Cuba_', '_Japan_']","['f', 'm', 'f']","['p268', 'p307', 'p248']","[2, 7, 0]","[87.57049330475357, 91.73820004985969, 84.40078082039426]",2.0,False,5.0,3.605551275463989,3.4372498989105225,0.720020429009193
0,,sub_105,2024-06-26 12:37:16,3,distance,cathedral,numerosity_judgement,2,8,2,countries_forward,"['_Mali_', '_Oman_']","['m', 'm']","['p307', 'p256']","[5, 7]","[90.34149293193902, 91.73820004985969]",2.0,True,8.0,1.4142135623730951,1.2499089241027832,0.5621949835432981
0,,sub_105,2024-06-26 12:37:19,3,distance,cathedral,numerosity_judgement,2,9,4,countries_forward,"['_Congo_', '_Oman_', '_Yemen_', '_Tonga_']","['m', 'm', 'f', 'f']","['p318', 'p229', 'p248', 'p245']","[4, 1, 5, 3]","[89.31368318402099, 86.2038576498559, 90.34149293193902, 89.14911522239515]",3.0,False,5.25,1.707825127659933,1.1874136924743652,0.6943593235728067
0,,sub_105,2024-06-26 12:37:24,3,distance,cathedral,numerosity_judgement,2,10,3,countries_forward,"['_Britain_', '_Mali_', '_Cuba_']","['m', 'm', 'f']","['p229', 'p307', 'p245']","[6, 0, 5]","[91.58892582949886, 84.40078082039426, 90.34149293193902]",2.0,False,5.666666666666667,3.2145502536643185,2.499818801879883,0.7718874134604472
0,,sub_105,2024-06-26 12:37:27,3,distance,cathedral,numerosity_judgement,2,11,6,countries_forward,"['_Oman_', '_Peru_', '_Tonga_', '_Cuba_', '_Britain_', '_Syria_']","['m', 'm', 'f', 'm', 'm', 'f']","['p229', 'p318', 'p284', 'p307', 'p256', 'p245']","[0, 6, 3, 5, 2, 1]","[84.40078082039426, 91.58892582949886, 89.14911522239515, 90.34149293193902, 87.57049330475357, 86.2038576498559]",4.0,False,4.833333333333333,2.316606713852541,1.7498805522918701,0.8894223130178186
0,,sub_105,2024-06-26 12:37:32,3,distance,cathedral,numerosity_judgement,2,12,4,countries_forward,"['_Cuba_', '_Britain_', '_Syria_', '_Mali_']","['f', 'f', 'f', 'm']","['p268', 'p245', 'p248', 'p318']","[10, 0, 4, 5]","[93.00003341222717, 84.40078082039426, 89.31368318402099, 90.34149293193902]",3.0,False,6.75,4.112987559751022,2.4373037815093994,0.9276586085574848
0,,sub_105,2024-06-26 12:37:35,3,distance,cathedral,numerosity_judgement,2,13,2,countries_forward,"['_Congo_', '_Yemen_']","['m', 'f']","['p256', 'p245']","[8, 3]","[92.0152836843556, 89.14911522239515]",2.0,True,7.5,3.5355339059327378,1.93735933303833,0.6093632958801498
0,,sub_105,2024-06-26 12:37:40,3,distance,cathedral,numerosity_judgement,2,14,5,countries_forward,"['_Congo_', '_Yemen_', '_Mali_', '_Peru_', '_Tonga_']","['m', 'm', 'm', 'f', 'm']","['p318', 'p229', 'p307', 'p245', 'p256']","[2, 3, 9, 5, 8]","[87.57049330475357, 89.14911522239515, 92.00610777531934, 90.34149293193902, 92.0152836843556]",3.0,False,7.4,3.0495901363953815,2.562314748764038,0.8168993303824764
0,,sub_105,2024-06-26 12:37:44,3,distance,cathedral,numerosity_judgement,2,15,4,countries_forward,"['_Tonga_', '_Britain_', '_Oman_', '_Cuba_']","['f', 'm', 'f', 'm']","['p284', 'p229', 'p245', 'p318']","[0, 1, 5, 6]","[84.40078082039426, 86.2038576498559, 90.34149293193902, 91.58892582949886]",4.0,True,5.0,2.943920288775949,2.187340259552002,0.8187265917602996
0,,sub_105,2024-06-26 12:37:47,3,distance,cathedral,numerosity_judgement,2,16,2,countries_forward,"['_Sudan_', '_Belgium_']","['m', 'f']","['p318', 'p268']","[3, 2]","[89.14911522239515, 87.57049330475357]",3.0,False,4.5,0.7071067811865476,2.249859094619751,0.9539098853705597
0,,sub_105,2024-06-26 12:37:51,3,distance,cathedral,numerosity_judgement,2,17,6,countries_forward,"['_Cuba_', '_Sudan_', '_Belgium_', '_Yemen_', '_Togo_', '_Mali_']","['f', 'f', 'f', 'm', 'm', 'f']","['p248', 'p268', 'p284', 'p256', 'p318', 'p245']","[3, 9, 5, 6, 8, 10]","[89.14911522239515, 92.00610777531934, 90.34149293193902, 91.58892582949886, 92.0152836843556, 93.00003341222717]",5.0,False,8.833333333333334,2.6394443859772205,1.8123676776885986,0.9209056860742254
0,,sub_105,2024-06-26 12:37:56,3,distance,cathedral,numerosity_judgement,2,18,3,countries_forward,"['_Tonga_', '_Mali_', '_Peru_']","['m', 'f', 'm']","['p256', 'p284', 'p318']","[5, 6, 0]","[90.34149293193902, 91.58892582949886, 84.40078082039426]",3.0,True,5.666666666666667,3.2145502536643185,3.3122591972351074,0.8766428328226081
0,,sub_105,2024-06-26 12:38:00,3,distance,cathedral,numerosity_judgement,2,19,5,countries_forward,"['_Sudan_', '_Togo_', '_Yemen_', '_Cuba_', '_Oman_']","['f', 'm', 'f', 'm', 'm']","['p245', 'p307', 'p248', 'p256', 'p318']","[0, 8, 2, 9, 5]","[84.40078082039426, 92.0152836843556, 87.57049330475357, 92.00610777531934, 90.34149293193902]",4.0,False,6.8,3.8340579025361627,1.562380075454712,0.8255249120417659
0,,sub_105,2024-06-26 12:38:04,3,distance,cathedral,numerosity_judgement,2,20,6,countries_forward,"['_Yemen_', '_Belgium_', '_Oman_', '_Cuba_', '_Mali_', '_Peru_']","['m', 'm', 'm', 'f', 'f', 'f']","['p318', 'p307', 'p256', 'p245', 'p248', 'p268']","[8, 0, 1, 3, 6, 4]","[92.0152836843556, 84.40078082039426, 86.2038576498559, 89.14911522239515, 91.58892582949886, 89.31368318402099]",3.0,False,5.666666666666667,3.011090610836324,1.874863624572754,0.7344796277380548
0,,sub_105,2024-06-26 12:38:08,3,distance,cathedral,numerosity_judgement,2,21,3,countries_forward,"['_Congo_', '_Mali_', '_Japan_']","['m', 'm', 'm']","['p229', 'p318', 'p256']","[3, 0, 6]","[89.14911522239515, 84.40078082039426, 91.58892582949886]",3.0,True,5.0,3.0,2.7497992515563965,0.8069004653274316
0,,sub_105,2024-06-26 12:38:12,3,distance,cathedral,numerosity_judgement,2,22,5,countries_forward,"['_Sudan_', '_Peru_', '_Togo_', '_Oman_', '_Japan_']","['f', 'f', 'f', 'm', 'm']","['p248', 'p284', 'p245', 'p229', 'p318']","[9, 8, 7, 2, 4]","[92.00610777531934, 92.0152836843556, 91.73820004985969, 87.57049330475357, 89.31368318402099]",4.0,False,8.0,2.9154759474226504,2.3748281002044678,0.8869254341164453
0,,sub_105,2024-06-26 12:38:16,3,distance,cathedral,numerosity_judgement,2,23,4,countries_forward,"['_Tonga_', '_Congo_', '_Oman_', '_Peru_']","['m', 'f', 'm', 'f']","['p318', 'p245', 'p256', 'p248']","[1, 0, 8, 6]","[86.2038576498559, 84.40078082039426, 92.0152836843556, 91.58892582949886]",5.0,False,5.75,3.8622100754188224,1.6248600482940674,0.8722051980478946
0,,sub_105,2024-06-26 12:38:18,3,distance,cathedral,numerosity_judgement,2,24,2,countries_forward,"['_Oman_', '_Yemen_']","['f', 'f']","['p284', 'p245']","[3, 9]","[89.14911522239515, 92.00610777531934]",2.0,True,8.0,4.242640687119285,1.3124053478240967,0.6993076835773465
0,,sub_105,2024-06-26 12:38:21,3,distance,cathedral,numerosity_judgement,2,25,4,countries_forward,"['_Peru_', '_Britain_', '_Congo_', '_Cuba_']","['f', 'm', 'f', 'f']","['p284', 'p307', 'p248', 'p245']","[0, 9, 7, 8]","[84.40078082039426, 92.00610777531934, 91.73820004985969, 92.0152836843556]",3.0,False,8.0,4.08248290463863,1.1249184608459473,0.748053569401884
0,,sub_105,2024-06-26 12:38:26,3,distance,cathedral,numerosity_judgement,2,26,2,countries_forward,"['_Togo_', '_Belgium_']","['f', 'f']","['p248', 'p268']","[5, 4]","[90.34149293193902, 89.31368318402099]",2.0,True,6.5,0.7071067811865476,2.8122949600219727,0.8802065599818408
0,,sub_105,2024-06-26 12:38:31,3,distance,cathedral,numerosity_judgement,2,27,6,countries_forward,"['_Yemen_', '_Togo_', '_Mali_', '_Tonga_', '_Sudan_', '_Japan_']","['m', 'm', 'm', 'f', 'm', 'f']","['p229', 'p318', 'p256', 'p245', 'p307', 'p268']","[3, 8, 9, 6, 0, 4]","[89.14911522239515, 92.0152836843556, 92.00610777531934, 91.58892582949886, 84.40078082039426, 89.31368318402099]",4.0,False,7.0,3.3466401061363023,3.2497639656066895,0.8015208262399274
0,,sub_105,2024-06-26 12:38:37,3,distance,cathedral,numerosity_judgement,2,28,5,countries_forward,"['_Belgium_', '_Japan_', '_Syria_', '_Britain_', '_Yemen_']","['m', 'f', 'm', 'f', 'f']","['p229', 'p284', 'p318', 'p268', 'p248']","[6, 4, 10, 0, 5]","[91.58892582949886, 89.31368318402099, 93.00003341222717, 84.40078082039426, 90.34149293193902]",4.0,False,7.0,3.605551275463989,3.749727725982666,0.8808988764044944
0,,sub_105,2024-06-26 12:38:40,3,distance,cathedral,numerosity_judgement,2,29,3,countries_forward,"['_Tonga_', '_Syria_', '_Britain_']","['f', 'f', 'm']","['p284', 'p268', 'p256']","[10, 0, 9]","[93.00003341222717, 84.40078082039426, 92.00610777531934]",3.0,True,8.333333333333334,5.507570547286102,1.874863862991333,0.9372488934286688
0,,sub_105,2024-06-26 12:38:44,3,distance,cathedral,numerosity_judgement,2,30,4,countries_forward,"['_Cuba_', '_Yemen_', '_Congo_', '_Oman_']","['m', 'f', 'f', 'f']","['p307', 'p268', 'p245', 'p248']","[7, 8, 4, 3]","[91.73820004985969, 92.0152836843556, 89.31368318402099, 89.14911522239515]",3.0,False,7.5,2.3804761428476167,2.1873412132263184,0.629043241402792
0,,sub_105,2024-06-26 12:38:48,3,distance,cathedral,numerosity_judgement,2,31,3,countries_forward,"['_Cuba_', '_Yemen_', '_Oman_']","['f', 'f', 'm']","['p245', 'p268', 'p256']","[7, 6, 9]","[91.73820004985969, 91.58892582949886, 92.00610777531934]",2.0,False,9.333333333333334,1.5275252316519468,1.874864101409912,0.6788446260356372
0,,sub_105,2024-06-26 12:38:51,3,distance,cathedral,numerosity_judgement,2,32,2,countries_forward,"['_Peru_', '_Togo_']","['m', 'f']","['p229', 'p284']","[7, 6]","[91.73820004985969, 91.58892582949886]",3.0,False,8.5,0.7071067811865476,2.124845504760742,0.924287822040631
0,,sub_105,2024-06-26 12:38:56,3,distance,cathedral,numerosity_judgement,2,33,5,countries_forward,"['_Syria_', '_Yemen_', '_Japan_', '_Mali_', '_Belgium_']","['f', 'm', 'f', 'f', 'm']","['p284', 'p229', 'p248', 'p268', 'p256']","[3, 4, 0, 10, 2]","[89.14911522239515, 89.31368318402099, 84.40078082039426, 93.00003341222717, 87.57049330475357]",4.0,False,5.8,3.7682887362833544,2.3123316764831543,0.9449665191238223
0,,sub_105,2024-06-26 12:38:59,3,distance,cathedral,numerosity_judgement,2,34,6,countries_forward,"['_Cuba_', '_Sudan_', '_Oman_', '_Togo_', '_Congo_', '_Japan_']","['m', 'f', 'm', 'f', 'f', 'f']","['p256', 'p284', 'p307', 'p248', 'p268', 'p245']","[10, 3, 9, 7, 2, 8]","[93.00003341222717, 89.14911522239515, 92.00610777531934, 91.73820004985969, 87.57049330475357, 92.0152836843556]",5.0,False,8.5,3.271085446759225,1.5623865127563477,0.837351038474634
0,,sub_105,2024-06-26 12:39:03,3,distance,cathedral,numerosity_judgement,2,35,3,countries_forward,"['_Congo_', '_Oman_', '_Yemen_']","['f', 'm', 'f']","['p268', 'p307', 'p245']","[3, 4, 6]","[89.14911522239515, 89.31368318402099, 91.58892582949886]",2.0,False,6.333333333333333,1.5275252316519465,1.9373588562011719,0.6248439450686641
0,,sub_105,2024-06-26 12:39:08,3,distance,cathedral,numerosity_judgement,2,36,4,countries_forward,"['_Mali_', '_Oman_', '_Tonga_', '_Cuba_']","['m', 'm', 'f', 'f']","['p256', 'p229', 'p245', 'p268']","[4, 3, 9, 5]","[89.31368318402099, 89.14911522239515, 92.00610777531934, 90.34149293193902]",3.0,False,7.25,2.6299556396765835,3.5622403621673584,0.7187265917602996
0,,sub_105,2024-06-26 12:39:11,3,distance,cathedral,numerosity_judgement,2,37,5,countries_forward,"['_Togo_', '_Japan_', '_Belgium_', '_Peru_', '_Oman_']","['m', 'f', 'f', 'f', 'm']","['p229', 'p284', 'p268', 'p248', 'p256']","[3, 1, 2, 8, 4]","[89.14911522239515, 86.2038576498559, 87.57049330475357, 92.0152836843556, 89.31368318402099]",4.0,False,5.6,2.701851217221259,0.999927282333374,0.9202247191011236
0,,sub_105,2024-06-26 12:39:15,3,distance,cathedral,numerosity_judgement,2,38,2,countries_forward,"['_Mali_', '_Cuba_']","['m', 'f']","['p229', 'p245']","[7, 5]","[91.73820004985969, 90.34149293193902]",2.0,True,8.0,1.4142135623730951,2.1248459815979004,0.7356940188400862
0,,sub_105,2024-06-26 12:39:21,3,distance,cathedral,numerosity_judgement,2,39,6,countries_forward,"['_Yemen_', '_Oman_', '_Peru_', '_Mali_', '_Congo_', '_Tonga_']","['m', 'f', 'm', 'f', 'f', 'm']","['p229', 'p268', 'p318', 'p248', 'p245', 'p256']","[7, 5, 1, 10, 8, 0]","[91.73820004985969, 90.34149293193902, 86.2038576498559, 93.00003341222717, 92.0152836843556, 84.40078082039426]",4.0,False,7.166666666666667,3.970726214015097,4.37468147277832,0.8235501078197708
0,,sub_105,2024-06-26 12:39:24,3,distance,cathedral,numerosity_judgement,2,40,4,countries_forward,"['_Britain_', '_Oman_', '_Cuba_', '_Togo_']","['f', 'm', 'f', 'f']","['p284', 'p256', 'p245', 'p268']","[8, 2, 5, 6]","[92.0152836843556, 87.57049330475357, 90.34149293193902, 91.58892582949886]",3.0,False,7.25,2.5,1.687375545501709,0.770321189422313
0,,sub_105,2024-06-26 12:39:29,3,distance,cathedral,numerosity_judgement,2,41,6,countries_forward,"['_Syria_', '_Congo_', '_Tonga_', '_Japan_', '_Belgium_', '_Yemen_']","['m', 'f', 'f', 'm', 'f', 'f']","['p256', 'p268', 'p284', 'p229', 'p248', 'p245']","[3, 5, 0, 6, 4, 10]","[89.14911522239515, 90.34149293193902, 84.40078082039426, 91.58892582949886, 89.31368318402099, 93.00003341222717]",3.0,False,6.666666666666667,3.32665998663324,2.4372599124908447,0.8775394393371921
0,,sub_105,2024-06-26 12:39:33,3,distance,cathedral,numerosity_judgement,2,42,3,countries_forward,"['_Syria_', '_Britain_', '_Peru_']","['f', 'm', 'm']","['p268', 'p229', 'p256']","[8, 0, 10]","[92.0152836843556, 84.40078082039426, 93.00003341222717]",2.0,False,8.0,5.291502622129181,2.812295913696289,0.9421745545341051
0,,sub_105,2024-06-26 12:39:38,3,distance,cathedral,numerosity_judgement,2,43,5,countries_forward,"['_Yemen_', '_Tonga_', '_Britain_', '_Mali_', '_Belgium_']","['f', 'm', 'f', 'm', 'm']","['p268', 'p229', 'p245', 'p318', 'p256']","[6, 3, 1, 7, 4]","[91.58892582949886, 89.14911522239515, 86.2038576498559, 91.73820004985969, 89.31368318402099]",3.0,False,6.2,2.3874672772626644,2.3748271465301514,0.7616502099648167
0,,sub_105,2024-06-26 12:39:41,3,distance,cathedral,numerosity_judgement,2,44,2,countries_forward,"['_Congo_', '_Oman_']","['m', 'f']","['p318', 'p268']","[0, 9]","[84.40078082039426, 92.00610777531934]",2.0,True,6.5,6.363961030678928,2.124845266342163,0.8379979570990806
0,,sub_105,2024-06-26 12:39:46,3,distance,cathedral,numerosity_judgement,2,45,3,countries_forward,"['_Peru_', '_Congo_', '_Oman_']","['f', 'f', 'm']","['p284', 'p245', 'p307']","[4, 6, 5]","[89.31368318402099, 91.58892582949886, 90.34149293193902]",2.0,False,7.0,1.0,3.2497639656066895,0.7432300533424129
0,,sub_105,2024-06-26 12:39:50,3,distance,cathedral,numerosity_judgement,2,46,4,countries_forward,"['_Belgium_', '_Yemen_', '_Cuba_', '_Tonga_']","['m', 'm', 'm', 'f']","['p307', 'p229', 'p256', 'p245']","[6, 9, 0, 7]","[91.58892582949886, 92.00610777531934, 84.40078082039426, 91.73820004985969]",2.0,False,7.5,3.872983346207417,2.3748273849487305,0.8813755532856656
0,,sub_105,2024-06-26 12:39:54,3,distance,cathedral,numerosity_judgement,2,47,2,countries_forward,"['_Britain_', '_Yemen_']","['m', 'm']","['p256', 'p318']","[4, 7]","[89.31368318402099, 91.73820004985969]",2.0,True,7.5,2.1213203435596424,2.0623490810394287,0.7634661218930882
0,,sub_105,2024-06-26 12:39:58,3,distance,cathedral,numerosity_judgement,2,48,6,countries_forward,"['_Oman_', '_Britain_', '_Japan_', '_Mali_', '_Togo_', '_Congo_']","['f', 'm', 'f', 'm', 'f', 'm']","['p245', 'p256', 'p248', 'p307', 'p268', 'p318']","[3, 8, 0, 2, 5, 7]","[89.14911522239515, 92.0152836843556, 84.40078082039426, 87.57049330475357, 90.34149293193902, 91.73820004985969]",2.0,False,6.166666666666667,3.0605010483034745,2.3123316764831543,0.7711610486891386
0,,sub_105,2024-06-26 12:40:03,3,distance,cathedral,numerosity_judgement,2,49,5,countries_forward,"['_Yemen_', '_Japan_', '_Tonga_', '_Cuba_', '_Oman_']","['f', 'm', 'm', 'f', 'f']","['p284', 'p307', 'p256', 'p248', 'p268']","[8, 1, 0, 5, 7]","[92.0152836843556, 86.2038576498559, 84.40078082039426, 90.34149293193902, 91.73820004985969]",3.0,False,6.2,3.5637059362410923,2.9997811317443848,0.7908636931108841
0,,sub_105,2024-06-26 12:40:25,3,distance,cathedral,numerosity_judgement,3,0,5,countries_reversed,"['_Yemen_reversed', '_Tonga_reversed', '_Oman_reversed', '_Peru_reversed', '_Mali_reversed']","['f', 'm', 'f', 'f', 'm']","['p248', 'p318', 'p245', 'p284', 'p256']","[5, 2, 3, 7, 8]","[90.34149293193902, 87.57049330475357, 89.14911522239515, 91.73820004985969, 92.0152836843556]",3.0,False,7.0,2.5495097567963922,3.124769687652588,0.7399387129724209
0,,sub_105,2024-06-26 12:40:29,3,distance,cathedral,numerosity_judgement,3,1,3,countries_reversed,"['_Cuba_reversed', '_Tonga_reversed', '_Togo_reversed']","['m', 'm', 'f']","['p307', 'p229', 'p245']","[8, 7, 9]","[92.0152836843556, 91.73820004985969, 92.00610777531934]",3.0,True,10.0,1.0,2.9372854232788086,0.7775961865849507
0,,sub_105,2024-06-26 12:40:31,3,distance,cathedral,numerosity_judgement,3,2,4,countries_reversed,"['_Togo_reversed', '_Yemen_reversed', '_Japan_reversed', '_Sudan_reversed']","['f', 'f', 'm', 'm']","['p245', 'p284', 'p256', 'p307']","[1, 9, 3, 5]","[86.2038576498559, 92.00610777531934, 89.14911522239515, 90.34149293193902]",4.0,True,6.5,3.415650255319866,1.062422275543213,0.8191692202928158
0,,sub_105,2024-06-26 12:40:34,3,distance,cathedral,numerosity_judgement,3,3,6,countries_reversed,"['_Japan_reversed', '_Peru_reversed', '_Cuba_reversed', '_Britain_reversed', '_Sudan_reversed', '_Syria_reversed']","['m', 'm', 'm', 'f', 'f', 'm']","['p307', 'p256', 'p318', 'p284', 'p268', 'p229']","[4, 6, 9, 2, 10, 5]","[89.31368318402099, 91.58892582949886, 92.00610777531934, 87.57049330475357, 93.00003341222717, 90.34149293193902]",4.0,False,8.0,3.03315017762062,1.9373595714569092,0.8558960390421064
0,,sub_105,2024-06-26 12:40:37,3,distance,cathedral,numerosity_judgement,3,4,2,countries_reversed,"['_Togo_reversed', '_Congo_reversed']","['f', 'f']","['p268', 'p248']","[9, 8]","[92.00610777531934, 92.0152836843556]",2.0,True,10.5,0.7071067811865476,1.4373953342437744,0.7395187833390081
0,,sub_105,2024-06-26 12:40:40,3,distance,cathedral,numerosity_judgement,3,5,6,countries_reversed,"['_Yemen_reversed', '_Oman_reversed', '_Britain_reversed', '_Togo_reversed', '_Syria_reversed', '_Sudan_reversed']","['m', 'f', 'f', 'f', 'f', 'm']","['p256', 'p268', 'p248', 'p245', 'p284', 'p318']","[9, 0, 1, 6, 4, 7]","[92.00610777531934, 84.40078082039426, 86.2038576498559, 91.58892582949886, 89.31368318402099, 91.73820004985969]",3.0,False,6.5,3.5071355833500366,1.5624489784240723,0.8019975031210986
0,,sub_105,2024-06-26 12:40:43,3,distance,cathedral,numerosity_judgement,3,6,2,countries_reversed,"['_Sudan_reversed', '_Congo_reversed']","['f', 'f']","['p284', 'p245']","[5, 1]","[90.34149293193902, 86.2038576498559]",2.0,True,5.0,2.8284271247461903,1.9998540878295898,0.9502099648167064
0,,sub_105,2024-06-26 12:40:47,3,distance,cathedral,numerosity_judgement,3,7,4,countries_reversed,"['_Oman_reversed', '_Yemen_reversed', '_Britain_reversed', '_Mali_reversed']","['m', 'm', 'm', 'm']","['p229', 'p318', 'p307', 'p256']","[5, 7, 9, 6]","[90.34149293193902, 91.73820004985969, 92.00610777531934, 91.58892582949886]",5.0,False,8.75,1.707825127659933,1.9998548030853271,0.6135966405629327
0,,sub_105,2024-06-26 12:40:50,3,distance,cathedral,numerosity_judgement,3,8,5,countries_reversed,"['_Mali_reversed', '_Oman_reversed', '_Britain_reversed', '_Peru_reversed', '_Yemen_reversed']","['f', 'm', 'm', 'm', 'f']","['p268', 'p256', 'p318', 'p307', 'p245']","[1, 6, 10, 9, 5]","[86.2038576498559, 91.58892582949886, 93.00003341222717, 92.00610777531934, 90.34149293193902]",3.0,False,8.2,3.5637059362410923,2.124845266342163,0.6607536034502327
0,,sub_105,2024-06-26 12:40:53,3,distance,cathedral,numerosity_judgement,3,9,3,countries_reversed,"['_Togo_reversed', '_Yemen_reversed', '_Britain_reversed']","['f', 'f', 'f']","['p248', 'p284', 'p268']","[5, 0, 4]","[90.34149293193902, 84.40078082039426, 89.31368318402099]",2.0,False,5.0,2.6457513110645907,1.9373595714569092,0.9386789240721825
0,,sub_105,2024-06-26 12:40:57,3,distance,cathedral,numerosity_judgement,3,10,6,countries_reversed,"['_Belgium_reversed', '_Britain_reversed', '_Sudan_reversed', '_Oman_reversed', '_Japan_reversed', '_Congo_reversed']","['m', 'f', 'm', 'f', 'm', 'm']","['p256', 'p284', 'p229', 'p245', 'p307', 'p318']","[7, 6, 2, 9, 5, 8]","[91.73820004985969, 91.58892582949886, 87.57049330475357, 92.00610777531934, 90.34149293193902, 92.0152836843556]",4.0,False,8.166666666666666,2.48327740429189,2.4373228549957275,0.938962660310975
0,,sub_105,2024-06-26 12:41:01,3,distance,cathedral,numerosity_judgement,3,11,5,countries_reversed,"['_Britain_reversed', '_Yemen_reversed', '_Togo_reversed', '_Peru_reversed', '_Cuba_reversed']","['m', 'f', 'f', 'm', 'f']","['p229', 'p248', 'p284', 'p318', 'p268']","[0, 5, 3, 10, 8]","[84.40078082039426, 90.34149293193902, 89.14911522239515, 93.00003341222717, 92.0152836843556]",2.0,False,7.2,3.96232255123179,2.3748250007629395,0.787912836227443
0,,sub_105,2024-06-26 12:41:04,3,distance,cathedral,numerosity_judgement,3,12,4,countries_reversed,"['_Oman_reversed', '_Yemen_reversed', '_Peru_reversed', '_Togo_reversed']","['m', 'm', 'm', 'f']","['p318', 'p307', 'p229', 'p268']","[3, 8, 9, 4]","[89.14911522239515, 92.0152836843556, 92.00610777531934, 89.31368318402099]",3.0,False,8.0,2.943920288775949,1.937359094619751,0.7319827488366815
0,,sub_105,2024-06-26 12:41:07,3,distance,cathedral,numerosity_judgement,3,13,2,countries_reversed,"['_Peru_reversed', '_Cuba_reversed']","['m', 'm']","['p229', 'p256']","[0, 10]","[84.40078082039426, 93.00003341222717]",2.0,True,7.0,7.0710678118654755,2.3748273849487305,0.6591533310634434
0,,sub_105,2024-06-26 12:41:10,3,distance,cathedral,numerosity_judgement,3,14,3,countries_reversed,"['_Oman_reversed', '_Mali_reversed', '_Cuba_reversed']","['f', 'm', 'f']","['p248', 'p229', 'p268']","[0, 8, 3]","[84.40078082039426, 92.0152836843556, 89.14911522239515]",3.0,True,5.666666666666667,4.041451884327381,1.624824047088623,0.7294858699353082
0,,sub_105,2024-06-26 12:41:15,3,distance,cathedral,numerosity_judgement,3,15,6,countries_reversed,"['_Congo_reversed', '_Tonga_reversed', '_Britain_reversed', '_Cuba_reversed', '_Belgium_reversed', '_Mali_reversed']","['m', 'f', 'm', 'm', 'f', 'f']","['p229', 'p268', 'p256', 'p307', 'p248', 'p284']","[10, 7, 4, 3, 9, 1]","[93.00003341222717, 91.73820004985969, 89.31368318402099, 89.14911522239515, 92.00610777531934, 86.2038576498559]",4.0,False,7.666666666666667,3.559026084010437,3.593486785888672,0.8795823402564975
0,,sub_105,2024-06-26 12:41:19,3,distance,cathedral,numerosity_judgement,3,16,3,countries_reversed,"['_Yemen_reversed', '_Congo_reversed', '_Syria_reversed']","['m', 'm', 'm']","['p229', 'p318', 'p256']","[1, 8, 7]","[86.2038576498559, 92.0152836843556, 91.73820004985969]",3.0,True,7.333333333333333,3.7859388972001824,2.624809503555298,0.8899216887980933
0,,sub_105,2024-06-26 12:41:24,3,distance,cathedral,numerosity_judgement,3,17,5,countries_reversed,"['_Oman_reversed', '_Japan_reversed', '_Tonga_reversed', '_Mali_reversed', '_Congo_reversed']","['f', 'f', 'm', 'm', 'f']","['p245', 'p284', 'p318', 'p256', 'p248']","[1, 5, 6, 7, 10]","[86.2038576498559, 90.34149293193902, 91.58892582949886, 91.73820004985969, 93.00003341222717]",2.0,False,7.8,3.271085446759225,3.2497644424438477,0.8575871070253093
0,,sub_105,2024-06-26 12:41:26,3,distance,cathedral,numerosity_judgement,3,18,4,countries_reversed,"['_Sudan_reversed', '_Mali_reversed', '_Syria_reversed', '_Cuba_reversed']","['m', 'f', 'f', 'm']","['p318', 'p268', 'p245', 'p256']","[10, 1, 5, 3]","[93.00003341222717, 86.2038576498559, 90.34149293193902, 89.14911522239515]",3.0,False,6.75,3.8622100754188224,1.1874136924743652,0.8910112359550562
0,,sub_105,2024-06-26 12:41:30,3,distance,cathedral,numerosity_judgement,3,19,2,countries_reversed,"['_Peru_reversed', '_Oman_reversed']","['m', 'm']","['p256', 'p307']","[6, 5]","[91.58892582949886, 90.34149293193902]",2.0,True,7.5,0.7071067811865476,2.749799966812134,0.5561570763817955
0,,sub_105,2024-06-26 12:41:34,3,distance,cathedral,numerosity_judgement,3,20,4,countries_reversed,"['_Japan_reversed', '_Mali_reversed', '_Belgium_reversed', '_Sudan_reversed']","['f', 'f', 'f', 'm']","['p248', 'p268', 'p284', 'p256']","[4, 0, 10, 3]","[89.31368318402099, 84.40078082039426, 93.00003341222717, 89.14911522239515]",3.0,False,6.25,4.193248541803041,2.562314033508301,0.9433435478379298
0,,sub_105,2024-06-26 12:41:37,3,distance,cathedral,numerosity_judgement,3,21,3,countries_reversed,"['_Peru_reversed', '_Tonga_reversed', '_Cuba_reversed']","['m', 'm', 'm']","['p318', 'p229', 'p307']","[4, 3, 7]","[89.31368318402099, 89.14911522239515, 91.73820004985969]",2.0,False,6.666666666666667,2.0816659994661326,1.749871015548706,0.6879014867778913
0,,sub_105,2024-06-26 12:41:41,3,distance,cathedral,numerosity_judgement,3,22,2,countries_reversed,"['_Yemen_reversed', '_Tonga_reversed']","['m', 'm']","['p256', 'p307']","[7, 1]","[91.73820004985969, 86.2038576498559]",2.0,True,6.0,4.242640687119285,2.749798536300659,0.699659516513449
0,,sub_105,2024-06-26 12:41:45,3,distance,cathedral,numerosity_judgement,3,23,6,countries_reversed,"['_Japan_reversed', '_Belgium_reversed', '_Oman_reversed', '_Cuba_reversed', '_Britain_reversed', '_Syria_reversed']","['m', 'f', 'm', 'm', 'm', 'f']","['p318', 'p245', 'p256', 'p307', 'p229', 'p248']","[1, 2, 4, 0, 9, 5]","[86.2038576498559, 87.57049330475357, 89.31368318402099, 84.40078082039426, 92.00610777531934, 90.34149293193902]",3.0,False,5.5,3.271085446759225,2.6873044967651367,0.910441493587561
0,,sub_105,2024-06-26 12:41:49,3,distance,cathedral,numerosity_judgement,3,24,5,countries_reversed,"['_Congo_reversed', '_Belgium_reversed', '_Mali_reversed', '_Cuba_reversed', '_Japan_reversed']","['m', 'f', 'm', 'f', 'm']","['p318', 'p245', 'p307', 'p284', 'p256']","[8, 4, 0, 2, 7]","[92.0152836843556, 89.31368318402099, 84.40078082039426, 87.57049330475357, 91.73820004985969]",3.0,False,6.2,3.3466401061363023,2.124846935272217,0.8988877539439337
0,,sub_105,2024-06-26 12:41:52,3,distance,cathedral,numerosity_judgement,3,25,2,countries_reversed,"['_Belgium_reversed', '_Mali_reversed']","['f', 'f']","['p284', 'p245']","[5, 6]","[90.34149293193902, 91.58892582949886]",4.0,False,7.5,0.7071067811865476,2.2497739791870117,0.8507774372942912
0,,sub_105,2024-06-26 12:41:56,3,distance,cathedral,numerosity_judgement,3,26,4,countries_reversed,"['_Cuba_reversed', '_Sudan_reversed', '_Japan_reversed', '_Oman_reversed']","['f', 'm', 'm', 'f']","['p284', 'p318', 'p307', 'p248']","[4, 6, 9, 8]","[89.31368318402099, 91.58892582949886, 92.00610777531934, 92.0152836843556]",3.0,False,8.75,2.217355782608345,2.753386974334717,0.9019975031210986
0,,sub_105,2024-06-26 12:41:59,3,distance,cathedral,numerosity_judgement,3,27,5,countries_reversed,"['_Togo_reversed', '_Belgium_reversed', '_Peru_reversed', '_Congo_reversed', '_Mali_reversed']","['m', 'm', 'f', 'm', 'f']","['p229', 'p307', 'p284', 'p256', 'p245']","[7, 3, 2, 5, 9]","[91.73820004985969, 89.14911522239515, 87.57049330475357, 90.34149293193902, 92.00610777531934]",2.0,False,7.2,2.863564212655271,1.4373438358306885,0.7745545341050959
0,,sub_105,2024-06-26 12:42:02,3,distance,cathedral,numerosity_judgement,3,28,3,countries_reversed,"['_Tonga_reversed', '_Yemen_reversed', '_Japan_reversed']","['f', 'm', 'm']","['p245', 'p307', 'p256']","[7, 8, 5]","[91.73820004985969, 92.0152836843556, 90.34149293193902]",4.0,False,8.666666666666666,1.5275252316519468,1.749873399734497,0.6445919872886166
0,,sub_105,2024-06-26 12:42:05,3,distance,cathedral,numerosity_judgement,3,29,6,countries_reversed,"['_Britain_reversed', '_Oman_reversed', '_Yemen_reversed', '_Tonga_reversed', '_Mali_reversed', '_Japan_reversed']","['f', 'm', 'm', 'm', 'f', 'm']","['p245', 'p307', 'p318', 'p256', 'p268', 'p229']","[10, 1, 2, 8, 6, 0]","[93.00003341222717, 86.2038576498559, 87.57049330475357, 92.0152836843556, 91.58892582949886, 84.40078082039426]",5.0,False,6.5,4.08656334834051,1.3749001026153564,0.8408126205879015
0,,sub_105,2024-06-26 12:42:09,3,distance,cathedral,numerosity_judgement,3,30,4,countries_reversed,"['_Yemen_reversed', '_Sudan_reversed', '_Britain_reversed', '_Cuba_reversed']","['m', 'f', 'm', 'f']","['p318', 'p248', 'p229', 'p245']","[7, 3, 10, 5]","[91.73820004985969, 89.14911522239515, 93.00003341222717, 90.34149293193902]",4.0,True,8.25,2.9860788111948193,2.687304973602295,0.7132902054250368
0,,sub_105,2024-06-26 12:42:11,3,distance,cathedral,numerosity_judgement,3,31,2,countries_reversed,"['_Sudan_reversed', '_Oman_reversed']","['m', 'f']","['p256', 'p248']","[8, 4]","[92.0152836843556, 89.31368318402099]",3.0,False,8.0,2.8284271247461903,1.6248817443847656,0.6300760413119963
0,,sub_105,2024-06-26 12:42:15,3,distance,cathedral,numerosity_judgement,3,32,6,countries_reversed,"['_Togo_reversed', '_Britain_reversed', '_Tonga_reversed', '_Oman_reversed', '_Mali_reversed', '_Cuba_reversed']","['m', 'm', 'f', 'f', 'm', 'm']","['p318', 'p229', 'p284', 'p268', 'p256', 'p307']","[5, 3, 1, 6, 4, 7]","[90.34149293193902, 89.14911522239515, 86.2038576498559, 91.58892582949886, 89.31368318402099, 91.73820004985969]",4.0,False,6.333333333333333,2.160246899469287,2.5623114109039307,0.7108387243218703
0,,sub_105,2024-06-26 12:42:21,3,distance,cathedral,numerosity_judgement,3,33,3,countries_reversed,"['_Mali_reversed', '_Belgium_reversed', '_Oman_reversed']","['m', 'f', 'm']","['p229', 'p284', 'p307']","[3, 5, 4]","[89.14911522239515, 90.34149293193902, 89.31368318402099]",2.0,False,6.0,1.0,4.624664306640625,0.8182839632277834
0,,sub_105,2024-06-26 12:42:24,3,distance,cathedral,numerosity_judgement,3,34,5,countries_reversed,"['_Cuba_reversed', '_Oman_reversed', '_Britain_reversed', '_Tonga_reversed', '_Mali_reversed']","['m', 'm', 'f', 'm', 'f']","['p318', 'p307', 'p268', 'p229', 'p248']","[10, 5, 8, 3, 0]","[93.00003341222717, 90.34149293193902, 92.0152836843556, 89.14911522239515, 84.40078082039426]",4.0,False,7.2,3.96232255123179,1.687377691268921,0.7003404834865509
0,,sub_105,2024-06-26 12:42:30,3,distance,cathedral,numerosity_judgement,3,35,4,countries_reversed,"['_Tonga_reversed', '_Togo_reversed', '_Oman_reversed', '_Sudan_reversed']","['f', 'f', 'f', 'm']","['p245', 'p268', 'p284', 'p256']","[5, 8, 1, 3]","[90.34149293193902, 92.0152836843556, 86.2038576498559, 89.14911522239515]",4.0,True,6.25,2.9860788111948193,3.999709129333496,0.7776529338327091
0,,sub_105,2024-06-26 12:42:33,3,distance,cathedral,numerosity_judgement,3,36,5,countries_reversed,"['_Syria_reversed', '_Japan_reversed', '_Congo_reversed', '_Belgium_reversed', '_Oman_reversed']","['m', 'f', 'm', 'm', 'f']","['p318', 'p284', 'p256', 'p307', 'p268']","[6, 9, 1, 0, 8]","[91.58892582949886, 92.00610777531934, 86.2038576498559, 84.40078082039426, 92.0152836843556]",3.0,False,6.8,4.08656334834051,2.6248106956481934,0.9413800930654864
0,,sub_105,2024-06-26 12:42:37,3,distance,cathedral,numerosity_judgement,3,37,2,countries_reversed,"['_Japan_reversed', '_Tonga_reversed']","['m', 'f']","['p256', 'p245']","[0, 9]","[84.40078082039426, 92.00610777531934]",3.0,False,6.5,6.363961030678928,1.9372923374176025,0.8618204517080922
0,,sub_105,2024-06-26 12:42:40,3,distance,cathedral,numerosity_judgement,3,38,3,countries_reversed,"['_Cuba_reversed', '_Yemen_reversed', '_Peru_reversed']","['f', 'm', 'f']","['p245', 'p307', 'p248']","[7, 5, 1]","[91.73820004985969, 90.34149293193902, 86.2038576498559]",2.0,False,6.333333333333333,3.0550504633038935,2.2498369216918945,0.5953013278855975
0,,sub_105,2024-06-26 12:42:44,3,distance,cathedral,numerosity_judgement,3,39,6,countries_reversed,"['_Togo_reversed', '_Cuba_reversed', '_Sudan_reversed', '_Oman_reversed', '_Belgium_reversed', '_Japan_reversed']","['f', 'm', 'm', 'f', 'm', 'f']","['p268', 'p307', 'p318', 'p248', 'p229', 'p245']","[8, 7, 1, 5, 4, 6]","[92.0152836843556, 91.73820004985969, 86.2038576498559, 90.34149293193902, 89.31368318402099, 91.58892582949886]",3.0,False,7.166666666666667,2.48327740429189,2.8122973442077637,0.7519804789467711
0,,sub_105,2024-06-26 12:42:50,3,distance,cathedral,numerosity_judgement,3,40,5,countries_reversed,"['_Belgium_reversed', '_Congo_reversed', '_Yemen_reversed', '_Tonga_reversed', '_Sudan_reversed']","['m', 'm', 'm', 'm', 'f']","['p229', 'p318', 'p307', 'p256', 'p245']","[0, 7, 3, 4, 8]","[84.40078082039426, 91.73820004985969, 89.14911522239515, 89.31368318402099, 92.0152836843556]",4.0,False,6.4,3.2093613071762426,3.9372148513793945,0.911224605606628
0,,sub_105,2024-06-26 12:42:53,3,distance,cathedral,numerosity_judgement,3,41,4,countries_reversed,"['_Sudan_reversed', '_Yemen_reversed', '_Tonga_reversed', '_Japan_reversed']","['m', 'm', 'm', 'f']","['p256', 'p318', 'p229', 'p248']","[4, 2, 10, 5]","[89.31368318402099, 87.57049330475357, 93.00003341222717, 90.34149293193902]",3.0,False,7.25,3.4034296427770228,1.9998548030853271,0.8458971739870617
0,,sub_105,2024-06-26 12:42:55,3,distance,cathedral,numerosity_judgement,3,42,3,countries_reversed,"['_Belgium_reversed', '_Sudan_reversed', '_Oman_reversed']","['m', 'm', 'f']","['p256', 'p229', 'p248']","[1, 5, 6]","[86.2038576498559, 90.34149293193902, 91.58892582949886]",4.0,False,6.0,2.6457513110645907,1.3749001026153564,0.9058563159686756
0,,sub_105,2024-06-26 12:42:58,3,distance,cathedral,numerosity_judgement,3,43,2,countries_reversed,"['_Japan_reversed', '_Britain_reversed']","['m', 'f']","['p229', 'p284']","[3, 4]","[89.14911522239515, 89.31368318402099]",3.0,False,5.5,0.7071067811865476,1.7498955726623535,0.8976393144932471
0,,sub_105,2024-06-26 12:43:02,3,distance,cathedral,numerosity_judgement,3,44,6,countries_reversed,"['_Yemen_reversed', '_Sudan_reversed', '_Britain_reversed', '_Congo_reversed', '_Cuba_reversed', '_Oman_reversed']","['m', 'm', 'f', 'f', 'f', 'm']","['p256', 'p307', 'p284', 'p248', 'p268', 'p229']","[6, 8, 7, 1, 3, 5]","[91.58892582949886, 92.0152836843556, 91.73820004985969, 86.2038576498559, 89.14911522239515, 90.34149293193902]",5.0,False,7.0,2.6076809620810595,1.8748626708984375,0.7614686187719896
0,,sub_105,2024-06-26 12:43:06,3,distance,cathedral,numerosity_judgement,3,45,5,countries_reversed,"['_Sudan_reversed', '_Mali_reversed', '_Tonga_reversed', '_Yemen_reversed', '_Syria_reversed']","['f', 'm', 'f', 'f', 'f']","['p268', 'p307', 'p248', 'p245', 'p284']","[3, 2, 6, 7, 0]","[89.14911522239515, 87.57049330475357, 91.58892582949886, 91.73820004985969, 84.40078082039426]",2.0,False,5.6,2.8809720581775866,3.0622775554656982,0.8263874702076949
0,,sub_105,2024-06-26 12:43:09,3,distance,cathedral,numerosity_judgement,3,46,2,countries_reversed,"['_Cuba_reversed', '_Congo_reversed']","['m', 'm']","['p229', 'p256']","[4, 5]","[89.31368318402099, 90.34149293193902]",2.0,True,6.5,0.7071067811865476,1.5623860359191895,0.7708205652025877
0,,sub_105,2024-06-26 12:43:11,3,distance,cathedral,numerosity_judgement,3,47,6,countries_reversed,"['_Mali_reversed', '_Cuba_reversed', '_Peru_reversed', '_Oman_reversed', '_Syria_reversed', '_Yemen_reversed']","['f', 'm', 'f', 'm', 'f', 'f']","['p284', 'p307', 'p268', 'p229', 'p248', 'p245']","[4, 7, 10, 6, 9, 0]","[89.31368318402099, 91.73820004985969, 93.00003341222717, 91.58892582949886, 92.00610777531934, 84.40078082039426]",4.0,False,8.0,3.63318042491699,1.0624220371246338,0.6868346385200318
0,,sub_105,2024-06-26 12:43:13,3,distance,cathedral,numerosity_judgement,3,48,4,countries_reversed,"['_Oman_reversed', '_Togo_reversed', '_Cuba_reversed', '_Peru_reversed']","['m', 'm', 'm', 'f']","['p229', 'p318', 'p307', 'p248']","[1, 9, 7, 10]","[86.2038576498559, 92.00610777531934, 91.73820004985969, 93.00003341222717]",5.0,False,8.75,4.031128874149275,0.937431812286377,0.6752808988764045
0,,sub_105,2024-06-26 12:43:16,3,distance,cathedral,numerosity_judgement,3,49,3,countries_reversed,"['_Congo_reversed', '_Sudan_reversed', '_Yemen_reversed']","['f', 'm', 'm']","['p245', 'p256', 'p307']","[7, 9, 8]","[91.73820004985969, 92.00610777531934, 92.0152836843556]",3.0,True,10.0,1.0,1.4373958110809326,0.7516286460106685
0,,sub_105,2024-06-26 12:43:53,3,distance,cathedral,numerosity_judgement,4,0,6,countries_reversed,"['_Britain_reversed', '_Oman_reversed', '_Mali_reversed', '_Togo_reversed', '_Yemen_reversed', '_Belgium_reversed']","['m', 'm', 'f', 'f', 'f', 'm']","['p318', 'p307', 'p245', 'p248', 'p284', 'p256']","[1, 7, 5, 6, 9, 3]","[86.2038576498559, 91.73820004985969, 90.34149293193902, 91.58892582949886, 92.00610777531934, 89.14911522239515]",6.0,True,7.166666666666667,2.857738033247041,2.9997823238372803,0.7176937918510953
0,,sub_105,2024-06-26 12:43:56,3,distance,cathedral,numerosity_judgement,4,1,4,countries_reversed,"['_Peru_reversed', '_Oman_reversed', '_Belgium_reversed', '_Yemen_reversed']","['m', 'm', 'f', 'f']","['p256', 'p229', 'p284', 'p245']","[1, 2, 0, 7]","[86.2038576498559, 87.57049330475357, 84.40078082039426, 91.73820004985969]",3.0,False,4.5,3.1091263510296048,1.937361240386963,0.8499035296788106
0,,sub_105,2024-06-26 12:43:59,3,distance,cathedral,numerosity_judgement,4,2,2,countries_reversed,"['_Belgium_reversed', '_Peru_reversed']","['m', 'm']","['p318', 'p256']","[1, 9]","[86.2038576498559, 92.00610777531934]",3.0,False,7.0,5.656854249492381,1.499891757965088,0.9034956304619226
0,,sub_105,2024-06-26 12:44:02,3,distance,cathedral,numerosity_judgement,4,3,5,countries_reversed,"['_Oman_reversed', '_Congo_reversed', '_Yemen_reversed', '_Mali_reversed', '_Togo_reversed']","['m', 'f', 'f', 'm', 'm']","['p307', 'p248', 'p245', 'p256', 'p229']","[4, 7, 6, 2, 8]","[89.31368318402099, 91.73820004985969, 91.58892582949886, 87.57049330475357, 92.0152836843556]",4.0,False,7.4,2.4083189157584592,1.7498722076416016,0.7072749971626376
0,,sub_105,2024-06-26 12:44:05,3,distance,cathedral,numerosity_judgement,4,4,3,countries_reversed,"['_Yemen_reversed', '_Oman_reversed', '_Togo_reversed']","['f', 'f', 'm']","['p245', 'p248', 'p307']","[1, 0, 10]","[86.2038576498559, 84.40078082039426, 93.00003341222717]",2.0,False,5.666666666666667,5.507570547286102,1.5623860359191895,0.8842923618204517
0,,sub_105,2024-06-26 12:44:08,3,distance,cathedral,numerosity_judgement,4,5,4,countries_reversed,"['_Syria_reversed', '_Oman_reversed', '_Yemen_reversed', '_Peru_reversed']","['f', 'f', 'f', 'm']","['p268', 'p245', 'p284', 'p318']","[6, 7, 10, 5]","[91.58892582949886, 91.73820004985969, 93.00003341222717, 90.34149293193902]",5.0,False,9.0,2.160246899469287,1.37489914894104,0.8120871637725571
0,,sub_105,2024-06-26 12:44:10,3,distance,cathedral,numerosity_judgement,4,6,6,countries_reversed,"['_Peru_reversed', '_Belgium_reversed', '_Togo_reversed', '_Congo_reversed', '_Oman_reversed', '_Britain_reversed']","['f', 'm', 'm', 'f', 'm', 'f']","['p284', 'p229', 'p307', 'p268', 'p318', 'p245']","[4, 3, 7, 10, 9, 8]","[89.31368318402099, 89.14911522239515, 91.73820004985969, 93.00003341222717, 92.00610777531934, 92.0152836843556]",4.0,False,8.833333333333334,2.786873995477131,1.249908447265625,0.7753149472250596
0,,sub_105,2024-06-26 12:44:13,3,distance,cathedral,numerosity_judgement,4,7,5,countries_reversed,"['_Yemen_reversed', '_Oman_reversed', '_Congo_reversed', '_Peru_reversed', '_Syria_reversed']","['f', 'm', 'f', 'f', 'm']","['p284', 'p256', 'p245', 'p268', 'p229']","[6, 8, 7, 0, 1]","[91.58892582949886, 92.0152836843556, 91.73820004985969, 84.40078082039426, 86.2038576498559]",3.0,False,6.4,3.6469165057620936,1.624880313873291,0.884019975031211
0,,sub_105,2024-06-26 12:44:17,3,distance,cathedral,numerosity_judgement,4,8,2,countries_reversed,"['_Tonga_reversed', '_Yemen_reversed']","['m', 'f']","['p307', 'p248']","[3, 8]","[89.14911522239515, 92.0152836843556]",2.0,True,7.5,3.5355339059327378,2.937286853790283,0.5877085461355124
0,,sub_105,2024-06-26 12:44:22,3,distance,cathedral,numerosity_judgement,4,9,3,countries_reversed,"['_Belgium_reversed', '_Congo_reversed', '_Oman_reversed']","['m', 'f', 'm']","['p229', 'p248', 'p307']","[0, 9, 6]","[84.40078082039426, 92.00610777531934, 91.58892582949886]",3.0,True,7.0,4.58257569495584,3.499746084213257,0.7594824651004426
0,,sub_105,2024-06-26 12:44:26,3,distance,cathedral,numerosity_judgement,4,10,2,countries_reversed,"['_Belgium_reversed', '_Syria_reversed']","['f', 'f']","['p248', 'p245']","[3, 6]","[89.14911522239515, 91.58892582949886]",3.0,False,6.5,2.1213203435596424,2.5623137950897217,0.8759505163999546
0,,sub_105,2024-06-26 12:44:29,3,distance,cathedral,numerosity_judgement,4,11,3,countries_reversed,"['_Yemen_reversed', '_Cuba_reversed', '_Oman_reversed']","['f', 'f', 'm']","['p268', 'p245', 'p256']","[8, 5, 9]","[92.0152836843556, 90.34149293193902, 92.00610777531934]",4.0,False,9.333333333333334,2.0816659994661326,1.4998908042907715,0.6368630121439111
0,,sub_105,2024-06-26 12:44:33,3,distance,cathedral,numerosity_judgement,4,12,6,countries_reversed,"['_Mali_reversed', '_Japan_reversed', '_Oman_reversed', '_Tonga_reversed', '_Peru_reversed', '_Cuba_reversed']","['m', 'f', 'f', 'm', 'm', 'm']","['p318', 'p248', 'p284', 'p256', 'p307', 'p229']","[6, 2, 9, 0, 1, 3]","[91.58892582949886, 87.57049330475357, 92.00610777531934, 84.40078082039426, 86.2038576498559, 89.14911522239515]",3.0,False,5.5,3.391164991562634,3.2497639656066895,0.8629213483146068
0,,sub_105,2024-06-26 12:44:38,3,distance,cathedral,numerosity_judgement,4,13,4,countries_reversed,"['_Mali_reversed', '_Togo_reversed', '_Cuba_reversed', '_Oman_reversed']","['m', 'f', 'm', 'f']","['p256', 'p284', 'p229', 'p248']","[7, 8, 5, 2]","[91.73820004985969, 92.0152836843556, 90.34149293193902, 87.57049330475357]",3.0,False,7.5,2.6457513110645907,3.0622758865356445,0.7176824424015436
0,,sub_105,2024-06-26 12:44:41,3,distance,cathedral,numerosity_judgement,4,14,5,countries_reversed,"['_Britain_reversed', '_Yemen_reversed', '_Congo_reversed', '_Belgium_reversed', '_Mali_reversed']","['m', 'f', 'm', 'f', 'm']","['p318', 'p268', 'p307', 'p245', 'p256']","[3, 2, 7, 5, 9]","[89.14911522239515, 87.57049330475357, 91.73820004985969, 90.34149293193902, 92.00610777531934]",4.0,False,7.2,2.863564212655271,2.124901294708252,0.7360572012257406
0,,sub_105,2024-06-26 12:44:45,3,distance,cathedral,numerosity_judgement,4,15,4,countries_reversed,"['_Oman_reversed', '_Yemen_reversed', '_Britain_reversed', '_Mali_reversed']","['m', 'm', 'm', 'm']","['p229', 'p318', 'p307', 'p256']","[5, 7, 9, 6]","[90.34149293193902, 91.73820004985969, 92.00610777531934, 91.58892582949886]",3.0,False,8.75,1.707825127659933,2.24983549118042,0.6135966405629327
0,,sub_105,2024-06-26 12:44:49,3,distance,cathedral,numerosity_judgement,4,16,2,countries_reversed,"['_Mali_reversed', '_Sudan_reversed']","['f', 'f']","['p268', 'p284']","[10, 4]","[93.00003341222717, 89.31368318402099]",4.0,False,9.0,4.242640687119285,2.9997825622558594,0.9483032572920214
0,,sub_105,2024-06-26 12:44:54,3,distance,cathedral,numerosity_judgement,4,17,5,countries_reversed,"['_Yemen_reversed', '_Congo_reversed', '_Japan_reversed', '_Cuba_reversed', '_Oman_reversed']","['m', 'm', 'f', 'm', 'f']","['p256', 'p318', 'p268', 'p307', 'p245']","[6, 0, 7, 1, 10]","[91.58892582949886, 84.40078082039426, 91.73820004985969, 86.2038576498559, 93.00003341222717]",3.0,False,6.8,4.207136793592526,3.2497637271881104,0.7821246169560776
0,,sub_105,2024-06-26 12:44:56,3,distance,cathedral,numerosity_judgement,4,18,3,countries_reversed,"['_Syria_reversed', '_Sudan_reversed', '_Congo_reversed']","['f', 'm', 'm']","['p284', 'p307', 'p256']","[9, 3, 2]","[92.00610777531934, 89.14911522239515, 87.57049330475357]",3.0,True,6.666666666666667,3.7859388972001824,1.4998908042907715,0.8471456134377483
0,,sub_105,2024-06-26 12:44:59,3,distance,cathedral,numerosity_judgement,4,19,6,countries_reversed,"['_Yemen_reversed', '_Congo_reversed', '_Oman_reversed', '_Tonga_reversed', '_Peru_reversed', '_Togo_reversed']","['f', 'f', 'm', 'm', 'f', 'm']","['p268', 'p248', 'p256', 'p318', 'p245', 'p307']","[10, 2, 4, 3, 5, 7]","[93.00003341222717, 87.57049330475357, 89.31368318402099, 89.14911522239515, 90.34149293193902, 91.73820004985969]",4.0,False,7.166666666666667,2.9268868558020253,1.4998915195465088,0.6845647486096924
0,,sub_105,2024-06-26 12:45:03,3,distance,cathedral,numerosity_judgement,4,20,2,countries_reversed,"['_Cuba_reversed', '_Peru_reversed']","['m', 'm']","['p256', 'p307']","[10, 6]","[93.00003341222717, 91.58892582949886]",2.0,True,10.0,2.8284271247461903,2.2498364448547363,0.6097378277153558
0,,sub_105,2024-06-26 12:45:06,3,distance,cathedral,numerosity_judgement,4,21,3,countries_reversed,"['_Oman_reversed', '_Cuba_reversed', '_Yemen_reversed']","['m', 'm', 'f']","['p256', 'p307', 'p248']","[10, 7, 4]","[93.00003341222717, 91.73820004985969, 89.31368318402099]",3.0,True,9.0,3.0,2.3123326301574707,0.6046419248666439
0,,sub_105,2024-06-26 12:45:09,3,distance,cathedral,numerosity_judgement,4,22,6,countries_reversed,"['_Yemen_reversed', '_Mali_reversed', '_Belgium_reversed', '_Japan_reversed', '_Peru_reversed', '_Britain_reversed']","['m', 'f', 'f', 'm', 'm', 'f']","['p229', 'p268', 'p245', 'p256', 'p307', 'p248']","[6, 1, 9, 10, 4, 8]","[91.58892582949886, 86.2038576498559, 92.00610777531934, 93.00003341222717, 89.31368318402099, 92.0152836843556]",6.0,True,8.333333333333334,3.3862466931200785,1.2499089241027832,0.8375893769152196
0,,sub_105,2024-06-26 12:45:11,3,distance,cathedral,numerosity_judgement,4,23,5,countries_reversed,"['_Congo_reversed', '_Togo_reversed', '_Belgium_reversed', '_Syria_reversed', '_Tonga_reversed']","['m', 'f', 'm', 'f', 'm']","['p229', 'p284', 'p318', 'p268', 'p256']","[0, 10, 9, 2, 4]","[84.40078082039426, 93.00003341222717, 92.00610777531934, 87.57049330475357, 89.31368318402099]",5.0,True,7.0,4.358898943540674,1.1874165534973145,0.9474860969242992
0,,sub_105,2024-06-26 12:45:14,3,distance,cathedral,numerosity_judgement,4,24,4,countries_reversed,"['_Britain_reversed', '_Togo_reversed', '_Congo_reversed', '_Mali_reversed']","['m', 'm', 'm', 'f']","['p307', 'p256', 'p318', 'p268']","[10, 0, 4, 7]","[93.00003341222717, 84.40078082039426, 89.31368318402099, 91.73820004985969]",4.0,True,7.25,4.272001872658765,1.4373953342437744,0.8976733628419021
0,,sub_105,2024-06-26 12:45:18,3,distance,cathedral,numerosity_judgement,4,25,2,countries_reversed,"['_Britain_reversed', '_Oman_reversed']","['m', 'm']","['p256', 'p307']","[7, 1]","[91.73820004985969, 86.2038576498559]",2.0,True,6.0,4.242640687119285,2.937286376953125,0.7645443196004994
0,,sub_105,2024-06-26 12:45:21,3,distance,cathedral,numerosity_judgement,4,26,6,countries_reversed,"['_Japan_reversed', '_Oman_reversed', '_Syria_reversed', '_Cuba_reversed', '_Togo_reversed', '_Peru_reversed']","['f', 'm', 'f', 'f', 'm', 'f']","['p268', 'p318', 'p245', 'p248', 'p307', 'p284']","[7, 10, 6, 9, 2, 5]","[91.73820004985969, 93.00003341222717, 91.58892582949886, 92.00610777531934, 87.57049330475357, 90.34149293193902]",4.0,False,8.5,2.8809720581775866,1.749873399734497,0.8001475428441721
0,,sub_105,2024-06-26 12:45:24,3,distance,cathedral,numerosity_judgement,4,27,3,countries_reversed,"['_Syria_reversed', '_Mali_reversed', '_Britain_reversed']","['f', 'm', 'm']","['p248', 'p229', 'p318']","[5, 0, 6]","[90.34149293193902, 84.40078082039426, 91.58892582949886]",3.0,True,5.666666666666667,3.2145502536643185,1.3124043941497803,0.9120644648734536
0,,sub_105,2024-06-26 12:45:27,3,distance,cathedral,numerosity_judgement,4,28,5,countries_reversed,"['_Cuba_reversed', '_Oman_reversed', '_Belgium_reversed', '_Congo_reversed', '_Yemen_reversed']","['m', 'm', 'm', 'm', 'f']","['p229', 'p256', 'p318', 'p307', 'p245']","[2, 5, 4, 9, 8]","[87.57049330475357, 90.34149293193902, 89.31368318402099, 92.00610777531934, 92.0152836843556]",4.0,False,7.6,2.8809720581775866,2.077909469604492,0.7659176029962547
0,,sub_105,2024-06-26 12:45:32,3,distance,cathedral,numerosity_judgement,4,29,4,countries_reversed,"['_Tonga_reversed', '_Mali_reversed', '_Oman_reversed', '_Peru_reversed']","['f', 'm', 'f', 'f']","['p245', 'p229', 'p268', 'p248']","[6, 1, 10, 4]","[91.58892582949886, 86.2038576498559, 93.00003341222717, 89.31368318402099]",4.0,True,7.25,3.774917217635375,3.4372494220733643,0.7559641357394167
0,,sub_105,2024-06-26 12:45:35,3,distance,cathedral,numerosity_judgement,4,30,2,countries_reversed,"['_Britain_reversed', '_Congo_reversed']","['m', 'f']","['p307', 'p248']","[7, 1]","[91.73820004985969, 86.2038576498559]",3.0,False,6.0,4.242640687119285,2.1248462200164795,0.8029735557825446
0,,sub_105,2024-06-26 12:45:38,3,distance,cathedral,numerosity_judgement,4,31,3,countries_reversed,"['_Sudan_reversed', '_Oman_reversed', '_Cuba_reversed']","['m', 'm', 'f']","['p256', 'p307', 'p245']","[4, 5, 1]","[89.31368318402099, 90.34149293193902, 86.2038576498559]",2.0,False,5.333333333333333,2.0816659994661326,1.3748779296875,0.689183974577233
0,,sub_105,2024-06-26 12:45:41,3,distance,cathedral,numerosity_judgement,4,32,6,countries_reversed,"['_Britain_reversed', '_Mali_reversed', '_Peru_reversed', '_Oman_reversed', '_Cuba_reversed', '_Sudan_reversed']","['m', 'f', 'm', 'f', 'm', 'f']","['p256', 'p245', 'p307', 'p268', 'p318', 'p284']","[3, 10, 4, 8, 0, 7]","[89.14911522239515, 93.00003341222717, 89.31368318402099, 92.0152836843556, 84.40078082039426, 91.73820004985969]",6.0,True,7.333333333333333,3.669695718539436,1.9373586177825928,0.9067869708319146
0,,sub_105,2024-06-26 12:45:44,3,distance,cathedral,numerosity_judgement,4,33,5,countries_reversed,"['_Togo_reversed', '_Japan_reversed', '_Tonga_reversed', '_Syria_reversed', '_Oman_reversed']","['m', 'f', 'f', 'f', 'f']","['p229', 'p268', 'p245', 'p284', 'p248']","[10, 6, 2, 3, 7]","[93.00003341222717, 91.58892582949886, 87.57049330475357, 89.14911522239515, 91.73820004985969]",4.0,False,7.6,3.2093613071762426,1.999854326248169,0.8618885484054023
0,,sub_105,2024-06-26 12:45:47,3,distance,cathedral,numerosity_judgement,4,34,4,countries_reversed,"['_Belgium_reversed', '_Syria_reversed', '_Sudan_reversed', '_Japan_reversed']","['m', 'm', 'm', 'f']","['p256', 'p307', 'p229', 'p245']","[3, 10, 8, 0]","[89.14911522239515, 93.00003341222717, 92.0152836843556, 84.40078082039426]",5.0,False,7.25,4.573474244670748,1.43739652633667,0.9135739416638292
0,,sub_105,2024-06-26 12:45:49,3,distance,cathedral,numerosity_judgement,4,35,2,countries_reversed,"['_Sudan_reversed', '_Togo_reversed']","['m', 'f']","['p307', 'p248']","[3, 4]","[89.14911522239515, 89.31368318402099]",2.0,True,5.5,0.7071067811865476,1.062422752380371,0.8310066961752355
0,,sub_105,2024-06-26 12:45:52,3,distance,cathedral,numerosity_judgement,4,36,3,countries_reversed,"['_Sudan_reversed', '_Japan_reversed', '_Mali_reversed']","['m', 'f', 'm']","['p307', 'p284', 'p256']","[1, 9, 2]","[86.2038576498559, 92.00610777531934, 87.57049330475357]",5.0,False,6.0,4.358898943540674,1.6874289512634277,0.9493474066507774
0,,sub_105,2024-06-26 12:45:55,3,distance,cathedral,numerosity_judgement,4,37,5,countries_reversed,"['_Belgium_reversed', '_Congo_reversed', '_Cuba_reversed', '_Peru_reversed', '_Togo_reversed']","['m', 'm', 'f', 'm', 'f']","['p229', 'p256', 'p245', 'p307', 'p284']","[8, 3, 5, 10, 2]","[92.0152836843556, 89.14911522239515, 90.34149293193902, 93.00003341222717, 87.57049330475357]",4.0,False,7.6,3.361547262794322,1.5624513626098633,0.6736579275905119
0,,sub_105,2024-06-26 12:45:59,3,distance,cathedral,numerosity_judgement,4,38,4,countries_reversed,"['_Peru_reversed', '_Yemen_reversed', '_Belgium_reversed', '_Japan_reversed']","['m', 'm', 'm', 'f']","['p307', 'p256', 'p229', 'p268']","[9, 7, 5, 4]","[92.00610777531934, 91.73820004985969, 90.34149293193902, 89.31368318402099]",3.0,False,8.25,2.217355782608345,2.4373226165771484,0.7766314833730564
0,,sub_105,2024-06-26 12:46:03,3,distance,cathedral,numerosity_judgement,4,39,6,countries_reversed,"['_Japan_reversed', '_Tonga_reversed', '_Congo_reversed', '_Sudan_reversed', '_Peru_reversed', '_Belgium_reversed']","['f', 'f', 'm', 'm', 'm', 'm']","['p245', 'p248', 'p256', 'p229', 'p318', 'p307']","[1, 8, 0, 7, 9, 5]","[86.2038576498559, 92.0152836843556, 84.40078082039426, 91.73820004985969, 92.00610777531934, 90.34149293193902]",4.0,False,7.0,3.7416573867739413,2.4998178482055664,0.9540006809669732
0,,sub_105,2024-06-26 12:46:06,3,distance,cathedral,numerosity_judgement,4,40,2,countries_reversed,"['_Oman_reversed', '_Cuba_reversed']","['f', 'f']","['p248', 'p245']","[5, 4]","[90.34149293193902, 89.31368318402099]",2.0,True,6.5,0.7071067811865476,1.7498722076416016,0.6725910793326524
0,,sub_105,2024-06-26 12:46:10,3,distance,cathedral,numerosity_judgement,4,41,6,countries_reversed,"['_Mali_reversed', '_Oman_reversed', '_Peru_reversed', '_Togo_reversed', '_Cuba_reversed', '_Syria_reversed']","['f', 'f', 'm', 'f', 'f', 'm']","['p245', 'p268', 'p307', 'p248', 'p284', 'p318']","[3, 8, 10, 6, 4, 1]","[89.14911522239515, 92.0152836843556, 93.00003341222717, 91.58892582949886, 89.31368318402099, 86.2038576498559]",6.0,True,7.333333333333333,3.32665998663324,2.4998183250427246,0.8904664623765748
0,,sub_105,2024-06-26 12:46:13,3,distance,cathedral,numerosity_judgement,4,42,4,countries_reversed,"['_Tonga_reversed', '_Oman_reversed', '_Sudan_reversed', '_Cuba_reversed']","['f', 'm', 'f', 'f']","['p268', 'p256', 'p284', 'p248']","[3, 5, 10, 8]","[89.14911522239515, 90.34149293193902, 93.00003341222717, 92.0152836843556]",5.0,False,8.5,3.1091263510296048,2.3747646808624268,0.684394506866417
0,,sub_105,2024-06-26 12:46:16,3,distance,cathedral,numerosity_judgement,4,43,5,countries_reversed,"['_Oman_reversed', '_Peru_reversed', '_Togo_reversed', '_Congo_reversed', '_Japan_reversed']","['m', 'f', 'm', 'f', 'f']","['p256', 'p245', 'p307', 'p268', 'p248']","[7, 5, 1, 4, 9]","[91.73820004985969, 90.34149293193902, 86.2038576498559, 89.31368318402099, 92.00610777531934]",3.0,False,7.2,3.03315017762062,1.3124055862426758,0.830575417092271
0,,sub_105,2024-06-26 12:46:19,3,distance,cathedral,numerosity_judgement,4,44,3,countries_reversed,"['_Togo_reversed', '_Japan_reversed', '_Oman_reversed']","['f', 'f', 'm']","['p268', 'p245', 'p307']","[3, 5, 7]","[89.14911522239515, 90.34149293193902, 91.73820004985969]",4.0,False,7.0,2.0,1.7498736381530762,0.7749744637385086
0,,sub_105,2024-06-26 12:46:22,3,distance,cathedral,numerosity_judgement,4,45,4,countries_reversed,"['_Congo_reversed', '_Togo_reversed', '_Mali_reversed', '_Syria_reversed']","['f', 'm', 'f', 'f']","['p248', 'p229', 'p284', 'p268']","[2, 3, 7, 5]","[87.57049330475357, 89.14911522239515, 91.73820004985969, 90.34149293193902]",4.0,True,6.25,2.217355782608345,1.6873774528503418,0.941277948019521
0,,sub_105,2024-06-26 12:46:25,3,distance,cathedral,numerosity_judgement,4,46,5,countries_reversed,"['_Congo_reversed', '_Mali_reversed', '_Belgium_reversed', '_Peru_reversed', '_Yemen_reversed']","['f', 'm', 'f', 'm', 'f']","['p284', 'p256', 'p248', 'p307', 'p268']","[7, 9, 8, 4, 6]","[91.73820004985969, 92.00610777531934, 92.0152836843556, 89.31368318402099, 91.58892582949886]",3.0,False,8.8,1.9235384061671346,1.874863624572754,0.9169447281806832
0,,sub_105,2024-06-26 12:46:28,3,distance,cathedral,numerosity_judgement,4,47,2,countries_reversed,"['_Tonga_reversed', '_Sudan_reversed']","['m', 'm']","['p318', 'p256']","[5, 10]","[90.34149293193902, 93.00003341222717]",2.0,True,9.5,3.5355339059327378,1.749875545501709,0.7050845533991601
0,,sub_105,2024-06-26 12:46:31,3,distance,cathedral,numerosity_judgement,4,48,3,countries_reversed,"['_Cuba_reversed', '_Congo_reversed', '_Oman_reversed']","['f', 'f', 'm']","['p268', 'p248', 'p256']","[10, 7, 2]","[93.00003341222717, 91.73820004985969, 87.57049330475357]",2.0,False,8.333333333333334,4.041451884327381,2.187375068664551,0.7182045170809216
0,,sub_105,2024-06-26 12:46:36,3,distance,cathedral,numerosity_judgement,4,49,6,countries_reversed,"['_Cuba_reversed', '_Congo_reversed', '_Oman_reversed', '_Tonga_reversed', '_Mali_reversed', '_Togo_reversed']","['f', 'm', 'f', 'm', 'm', 'm']","['p268', 'p229', 'p248', 'p318', 'p307', 'p256']","[6, 3, 7, 5, 2, 0]","[91.58892582949886, 89.14911522239515, 91.73820004985969, 90.34149293193902, 87.57049330475357, 84.40078082039426]",2.0,False,5.833333333333333,2.6394443859772205,3.6247358322143555,0.7532743161956645
