event_id,timestamp,subject_id,session_index,plane,setup,task,block,trial_index,headpose_offset_azi,headpose_offset_ele,target_number,target_filename,target_talker,target_sex,target_speaker_id,step_number:,distance_masker,distance_target,target_speaker_proc,target_speaker_chan,target_speaker_azi,target_speaker_ele,target_speaker_dist,target_stim_level,masker_filename,masker_speaker_id,masker_speaker_proc,masker_speaker_chan,masker_speaker_azi,masker_speaker_ele,masker_speaker_dist,masker_stim_level,normalisation_method,normalisation_level_masker,normalisation_level_target,played_number,resp_number,is_correct,reaction_time
,2024-07-26 13:33:50,sub_118,3,distance,cathedral,spatial_unmasking,1,0,0,0,_two_,talker-p248_sex-f_text-_two_.wav,p248,f,5,1,2.0,7.0,RX81,6,0.0,0.0,7.0,92.34149293193902,babble-reversed_n13_p318-nine-p307-eight-p229-two-p284-one-p248-three-p245-five.wav,0,RX81,1,0.0,0.0,2.0,84.40078082039426,mgb_normalisation,84.40078082039426,90.34149293193902,2,2.0,True,1.1875157356262207
,2024-07-26 13:33:54,sub_118,3,distance,cathedral,spatial_unmasking,1,1,0,0,_nine_,talker-p248_sex-f_text-_nine_.wav,p248,f,5,2,2.0,7.0,RX81,6,0.0,0.0,7.0,88.34149293193902,babble-reversed_n13_p229-two-p318-eight-p256-three-p268-one-p248-nine-p284-five.wav,0,RX81,1,0.0,0.0,2.0,84.40078082039426,mgb_normalisation,84.40078082039426,90.34149293193902,9,9.0,True,1.1250154972076416
,2024-07-26 13:33:58,sub_118,3,distance,cathedral,spatial_unmasking,1,2,0,0,_nine_,talker-p248_sex-f_text-_nine_.wav,p248,f,5,3,2.0,7.0,RX81,6,0.0,0.0,7.0,84.341492931939,babble-reversed_n13_p318-five-p256-nine-p307-eight-p248-two-p245-four-p284-three.wav,0,RX81,1,0.0,0.0,2.0,84.40078082039426,mgb_normalisation,84.40078082039426,90.34149293193902,9,5.0,False,1.37501859664917
,2024-07-26 13:34:02,sub_118,3,distance,cathedral,spatial_unmasking,1,3,0,0,_five_,talker-p248_sex-f_text-_five_.wav,p248,f,5,4,2.0,7.0,RX81,6,0.0,0.0,7.0,86.341492931939,babble-reversed_n13_p256-four-p229-eight-p307-five-p248-three-p245-one-p284-two.wav,0,RX81,1,0.0,0.0,2.0,84.40078082039426,mgb_normalisation,84.40078082039426,90.34149293193902,5,5.0,True,2.125027894973755
,2024-07-26 13:34:06,sub_118,3,distance,cathedral,spatial_unmasking,1,4,0,0,_six_,talker-p248_sex-f_text-_six_.wav,p248,f,5,5,2.0,7.0,RX81,6,0.0,0.0,7.0,86.34149293193902,babble-reversed_n13_p229-three-p256-nine-p318-five-p248-one-p245-eight-p284-two.wav,0,RX81,1,0.0,0.0,2.0,84.40078082039426,mgb_normalisation,84.40078082039426,90.34149293193902,6,6.0,True,1.1250152587890625
,2024-07-26 13:34:12,sub_118,3,distance,cathedral,spatial_unmasking,1,5,0,0,_four_,talker-p248_sex-f_text-_four_.wav,p248,f,5,6,2.0,7.0,RX81,6,0.0,0.0,7.0,84.341492931939,babble-reversed_n13_p256-four-p229-eight-p307-five-p248-three-p245-one-p284-two.wav,0,RX81,1,0.0,0.0,2.0,84.40078082039426,mgb_normalisation,84.40078082039426,90.34149293193902,4,3.0,False,4.25005841255188
,2024-07-26 13:34:16,sub_118,3,distance,cathedral,spatial_unmasking,1,6,0,0,_six_,talker-p248_sex-f_text-_six_.wav,p248,f,5,7,2.0,7.0,RX81,6,0.0,0.0,7.0,85.34149293193903,babble-reversed_n13_p318-five-p229-three-p256-four-p268-eight-p248-one-p245-nine.wav,0,RX81,1,0.0,0.0,2.0,84.40078082039426,mgb_normalisation,84.40078082039426,90.34149293193902,6,6.0,True,1.0000145435333252
,2024-07-26 13:34:19,sub_118,3,distance,cathedral,spatial_unmasking,1,7,0,0,_three_,talker-p248_sex-f_text-_three_.wav,p248,f,5,8,2.0,7.0,RX81,6,0.0,0.0,7.0,85.34149293193903,babble-reversed_n13_p307-nine-p318-two-p256-one-p245-three-p268-four-p248-eight.wav,0,RX81,1,0.0,0.0,2.0,84.40078082039426,mgb_normalisation,84.40078082039426,90.34149293193902,3,3.0,True,1.1250152587890625
,2024-07-26 13:34:23,sub_118,3,distance,cathedral,spatial_unmasking,1,8,0,0,_five_,talker-p248_sex-f_text-_five_.wav,p248,f,5,9,2.0,7.0,RX81,6,0.0,0.0,7.0,84.341492931939,babble-reversed_n13_p256-eight-p229-three-p307-nine-p245-five-p248-four-p268-two.wav,0,RX81,1,0.0,0.0,2.0,84.40078082039426,mgb_normalisation,84.40078082039426,90.34149293193902,5,5.0,True,1.187516450881958
,2024-07-26 13:34:26,sub_118,3,distance,cathedral,spatial_unmasking,1,9,0,0,_one_,talker-p248_sex-f_text-_one_.wav,p248,f,5,10,2.0,7.0,RX81,6,0.0,0.0,7.0,84.34149293193903,babble-reversed_n13_p229-five-p318-two-p307-eight-p268-three-p248-four-p245-one.wav,0,RX81,1,0.0,0.0,2.0,84.40078082039427,mgb_normalisation,84.40078082039426,90.34149293193902,1,1.0,True,1.2500169277191162
,2024-07-26 13:34:30,sub_118,3,distance,cathedral,spatial_unmasking,1,10,0,0,_four_,talker-p248_sex-f_text-_four_.wav,p248,f,5,11,2.0,7.0,RX81,6,0.0,0.0,7.0,83.34149293193902,babble-reversed_n13_p229-nine-p256-four-p318-three-p268-eight-p248-two-p284-five.wav,0,RX81,1,0.0,0.0,2.0,84.40078082039426,mgb_normalisation,84.40078082039426,90.34149293193902,4,4.0,True,1.3124749660491943
,2024-07-26 13:34:33,sub_118,3,distance,cathedral,spatial_unmasking,1,11,0,0,_three_,talker-p248_sex-f_text-_three_.wav,p248,f,5,12,2.0,7.0,RX81,6,0.0,0.0,7.0,83.34149293193902,babble-reversed_n13_p318-nine-p256-five-p307-eight-p268-three-p248-one-p245-four.wav,0,RX81,1,0.0,0.0,2.0,84.40078082039426,mgb_normalisation,84.40078082039426,90.34149293193902,3,3.0,True,1.0625154972076416
,2024-07-26 13:34:37,sub_118,3,distance,cathedral,spatial_unmasking,1,12,0,0,_one_,talker-p248_sex-f_text-_one_.wav,p248,f,5,13,2.0,7.0,RX81,6,0.0,0.0,7.0,82.34149293193902,babble-reversed_n13_p318-five-p229-four-p256-eight-p284-one-p245-three-p248-two.wav,0,RX81,1,0.0,0.0,2.0,84.40078082039426,mgb_normalisation,84.40078082039426,90.34149293193902,1,1.0,True,1.187516212463379
,2024-07-26 13:34:41,sub_118,3,distance,cathedral,spatial_unmasking,1,13,0,0,_eight_,talker-p248_sex-f_text-_eight_.wav,p248,f,5,14,2.0,7.0,RX81,6,0.0,0.0,7.0,82.34149293193902,babble-reversed_n13_p229-five-p256-three-p318-nine-p248-two-p284-four-p268-one.wav,0,RX81,1,0.0,0.0,2.0,84.40078082039427,mgb_normalisation,84.40078082039426,90.34149293193902,8,3.0,False,1.2500159740447998
,2024-07-26 13:34:44,sub_118,3,distance,cathedral,spatial_unmasking,1,14,0,0,_five_,talker-p248_sex-f_text-_five_.wav,p248,f,5,15,2.0,7.0,RX81,6,0.0,0.0,7.0,83.34149293193902,babble-reversed_n13_p229-two-p307-five-p318-four-p284-one-p248-nine-p268-eight.wav,0,RX81,1,0.0,0.0,2.0,84.40078082039426,mgb_normalisation,84.40078082039426,90.34149293193902,5,5.0,True,1.3125455379486084
,2024-07-26 13:34:48,sub_118,3,distance,cathedral,spatial_unmasking,1,15,0,0,_six_,talker-p248_sex-f_text-_six_.wav,p248,f,5,16,2.0,7.0,RX81,6,0.0,0.0,7.0,83.34149293193902,babble-reversed_n13_p256-three-p318-one-p307-two-p284-nine-p268-four-p245-eight.wav,0,RX81,1,0.0,0.0,2.0,84.40078082039426,mgb_normalisation,84.40078082039426,90.34149293193902,6,6.0,True,1.125016212463379
,2024-07-26 13:34:52,sub_118,3,distance,cathedral,spatial_unmasking,1,16,0,0,_four_,talker-p248_sex-f_text-_four_.wav,p248,f,5,17,2.0,7.0,RX81,6,0.0,0.0,7.0,82.34149293193902,babble-reversed_n13_p229-nine-p256-four-p318-three-p268-eight-p248-two-p284-five.wav,0,RX81,1,0.0,0.0,2.0,84.40078082039426,mgb_normalisation,84.40078082039426,90.34149293193902,4,4.0,True,2.062530279159546
,2024-07-26 13:34:57,sub_118,3,distance,cathedral,spatial_unmasking,1,17,0,0,_eight_,talker-p248_sex-f_text-_eight_.wav,p248,f,5,18,2.0,7.0,RX81,6,0.0,0.0,7.0,82.34149293193902,babble-reversed_n13_p229-nine-p318-one-p307-two-p248-eight-p245-five-p284-four.wav,0,RX81,1,0.0,0.0,2.0,84.40078082039426,mgb_normalisation,84.40078082039426,90.34149293193902,8,3.0,False,2.000027656555176
,2024-07-26 13:35:00,sub_118,3,distance,cathedral,spatial_unmasking,1,18,0,0,_three_,talker-p248_sex-f_text-_three_.wav,p248,f,5,19,2.0,7.0,RX81,6,0.0,0.0,7.0,83.34149293193902,babble-reversed_n13_p307-five-p229-three-p318-nine-p245-four-p268-eight-p284-two.wav,0,RX81,1,0.0,0.0,2.0,84.40078082039426,mgb_normalisation,84.40078082039426,90.34149293193902,3,3.0,True,1.2500169277191162
,2024-07-26 13:35:04,sub_118,3,distance,cathedral,spatial_unmasking,1,19,0,0,_three_,talker-p248_sex-f_text-_three_.wav,p248,f,5,20,2.0,7.0,RX81,6,0.0,0.0,7.0,83.34149293193902,babble-reversed_n13_p307-nine-p318-two-p256-one-p245-three-p268-four-p248-eight.wav,0,RX81,1,0.0,0.0,2.0,84.40078082039426,mgb_normalisation,84.40078082039426,90.34149293193902,3,3.0,True,1.0625147819519043
,2024-07-26 13:35:07,sub_118,3,distance,cathedral,spatial_unmasking,1,20,0,0,_two_,talker-p248_sex-f_text-_two_.wav,p248,f,5,21,2.0,7.0,RX81,6,0.0,0.0,7.0,82.34149293193902,babble-reversed_n13_p229-one-p318-eight-p256-three-p268-nine-p248-five-p284-four.wav,0,RX81,1,0.0,0.0,2.0,84.40078082039426,mgb_normalisation,84.40078082039426,90.34149293193902,2,2.0,True,0.9999475479125975
,2024-07-26 13:35:11,sub_118,3,distance,cathedral,spatial_unmasking,1,21,0,0,_two_,talker-p248_sex-f_text-_two_.wav,p248,f,5,22,2.0,7.0,RX81,6,0.0,0.0,7.0,82.34149293193902,babble-reversed_n13_p318-nine-p256-five-p307-eight-p268-three-p248-one-p245-four.wav,0,RX81,1,0.0,0.0,2.0,84.40078082039426,mgb_normalisation,84.40078082039426,90.34149293193902,2,2.0,True,1.000016212463379
,2024-07-26 13:35:15,sub_118,3,distance,cathedral,spatial_unmasking,1,22,0,0,_five_,talker-p248_sex-f_text-_five_.wav,p248,f,5,23,2.0,7.0,RX81,6,0.0,0.0,7.0,81.341492931939,babble-reversed_n13_p256-four-p229-two-p318-five-p268-one-p248-eight-p245-three.wav,0,RX81,1,0.0,0.0,2.0,84.40078082039426,mgb_normalisation,84.40078082039426,90.34149293193902,5,5.0,True,2.062528610229492
,2024-07-26 13:35:19,sub_118,3,distance,cathedral,spatial_unmasking,1,23,0,0,_three_,talker-p248_sex-f_text-_three_.wav,p248,f,5,24,2.0,7.0,RX81,6,0.0,0.0,7.0,81.34149293193902,babble-reversed_n13_p229-nine-p318-one-p307-two-p248-eight-p245-five-p284-four.wav,0,RX81,1,0.0,0.0,2.0,84.40078082039426,mgb_normalisation,84.40078082039426,90.34149293193902,3,3.0,True,1.2500174045562744
,2024-07-26 13:35:23,sub_118,3,distance,cathedral,spatial_unmasking,1,24,0,0,_two_,talker-p248_sex-f_text-_two_.wav,p248,f,5,25,2.0,7.0,RX81,6,0.0,0.0,7.0,80.34149293193903,babble-reversed_n13_p256-five-p307-nine-p318-three-p284-eight-p268-one-p248-two.wav,0,RX81,1,0.0,0.0,2.0,84.40078082039426,mgb_normalisation,84.40078082039426,90.34149293193902,2,2.0,True,2.3125576972961426
,2024-07-26 13:35:27,sub_118,3,distance,cathedral,spatial_unmasking,1,25,0,0,_one_,talker-p248_sex-f_text-_one_.wav,p248,f,5,26,2.0,7.0,RX81,6,0.0,0.0,7.0,80.34149293193903,babble-reversed_n13_p318-five-p256-nine-p307-eight-p248-two-p245-four-p284-three.wav,0,RX81,1,0.0,0.0,2.0,84.40078082039426,mgb_normalisation,84.40078082039426,90.34149293193902,1,1.0,True,1.1250152587890625
,2024-07-26 13:35:31,sub_118,3,distance,cathedral,spatial_unmasking,1,26,0,0,_two_,talker-p248_sex-f_text-_two_.wav,p248,f,5,27,2.0,7.0,RX81,6,0.0,0.0,7.0,79.34149293193902,babble-reversed_n13_p256-eight-p229-three-p307-nine-p245-five-p248-four-p268-two.wav,0,RX81,1,0.0,0.0,2.0,84.40078082039426,mgb_normalisation,84.40078082039426,90.34149293193902,2,2.0,True,1.312517166137695
,2024-07-26 13:35:35,sub_118,3,distance,cathedral,spatial_unmasking,1,27,0,0,_three_,talker-p248_sex-f_text-_three_.wav,p248,f,5,28,2.0,7.0,RX81,6,0.0,0.0,7.0,79.341492931939,babble-reversed_n13_p318-one-p307-two-p256-eight-p284-three-p248-five-p245-four.wav,0,RX81,1,0.0,0.0,2.0,84.40078082039427,mgb_normalisation,84.40078082039426,90.34149293193902,3,3.0,True,1.5000195503234863
,2024-07-26 13:35:41,sub_118,3,distance,cathedral,spatial_unmasking,1,28,0,0,_eight_,talker-p248_sex-f_text-_eight_.wav,p248,f,5,29,2.0,7.0,RX81,6,0.0,0.0,7.0,78.34149293193902,babble-reversed_n13_p229-three-p307-one-p318-two-p245-eight-p268-five-p284-four.wav,0,RX81,1,0.0,0.0,2.0,84.40078082039426,mgb_normalisation,84.40078082039426,90.34149293193902,8,8.0,True,4.062555551528931
,2024-07-26 13:35:50,sub_118,3,distance,cathedral,spatial_unmasking,1,29,0,0,_eight_,talker-p248_sex-f_text-_eight_.wav,p248,f,5,30,2.0,7.0,RX81,6,0.0,0.0,7.0,78.34149293193902,babble-reversed_n13_p256-five-p229-one-p318-three-p248-nine-p284-eight-p268-two.wav,0,RX81,1,0.0,0.0,2.0,84.40078082039427,mgb_normalisation,84.40078082039426,90.34149293193902,8,9.0,False,6.312587022781372
,2024-07-26 13:35:53,sub_118,3,distance,cathedral,spatial_unmasking,1,30,0,0,_nine_,talker-p248_sex-f_text-_nine_.wav,p248,f,5,31,2.0,7.0,RX81,6,0.0,0.0,7.0,79.341492931939,babble-reversed_n13_p229-three-p256-nine-p318-five-p248-one-p245-eight-p284-two.wav,0,RX81,1,0.0,0.0,2.0,84.40078082039426,mgb_normalisation,84.40078082039426,90.34149293193902,9,9.0,True,1.000013828277588
,2024-07-26 13:35:57,sub_118,3,distance,cathedral,spatial_unmasking,1,31,0,0,_one_,talker-p248_sex-f_text-_one_.wav,p248,f,5,32,2.0,7.0,RX81,6,0.0,0.0,7.0,79.34149293193902,babble-reversed_n13_p256-five-p307-nine-p318-three-p284-eight-p268-one-p248-two.wav,0,RX81,1,0.0,0.0,2.0,84.40078082039426,mgb_normalisation,84.40078082039426,90.34149293193902,1,1.0,True,1.1250157356262207
,2024-07-26 13:36:00,sub_118,3,distance,cathedral,spatial_unmasking,1,32,0,0,_six_,talker-p248_sex-f_text-_six_.wav,p248,f,5,33,2.0,7.0,RX81,6,0.0,0.0,7.0,78.34149293193902,babble-reversed_n13_p256-eight-p318-two-p307-five-p245-four-p268-nine-p284-one.wav,0,RX81,1,0.0,0.0,2.0,84.40078082039426,mgb_normalisation,84.40078082039426,90.34149293193902,6,6.0,True,1.000013828277588
,2024-07-26 13:36:06,sub_118,3,distance,cathedral,spatial_unmasking,1,33,0,0,_nine_,talker-p248_sex-f_text-_nine_.wav,p248,f,5,34,2.0,7.0,RX81,6,0.0,0.0,7.0,78.34149293193902,babble-reversed_n13_p256-eight-p229-three-p307-nine-p245-five-p248-four-p268-two.wav,0,RX81,1,0.0,0.0,2.0,84.40078082039426,mgb_normalisation,84.40078082039426,90.34149293193902,9,1.0,False,3.5000481605529785
,2024-07-26 13:36:10,sub_118,3,distance,cathedral,spatial_unmasking,1,34,0,0,_nine_,talker-p248_sex-f_text-_nine_.wav,p248,f,5,35,2.0,7.0,RX81,6,0.0,0.0,7.0,79.341492931939,babble-reversed_n13_p307-nine-p318-two-p256-one-p245-three-p268-four-p248-eight.wav,0,RX81,1,0.0,0.0,2.0,84.40078082039426,mgb_normalisation,84.40078082039426,90.34149293193902,9,9.0,True,1.8125247955322263
,2024-07-26 13:36:15,sub_118,3,distance,cathedral,spatial_unmasking,1,35,0,0,_eight_,talker-p248_sex-f_text-_eight_.wav,p248,f,5,36,2.0,7.0,RX81,6,0.0,0.0,7.0,79.34149293193902,babble-reversed_n13_p256-eight-p229-three-p307-nine-p245-five-p248-four-p268-two.wav,0,RX81,1,0.0,0.0,2.0,84.40078082039426,mgb_normalisation,84.40078082039426,90.34149293193902,8,4.0,False,2.8750224113464355
,2024-07-26 13:36:19,sub_118,3,distance,cathedral,spatial_unmasking,1,36,0,0,_six_,talker-p248_sex-f_text-_six_.wav,p248,f,5,37,2.0,7.0,RX81,6,0.0,0.0,7.0,80.34149293193903,babble-reversed_n13_p318-five-p256-nine-p307-eight-p248-two-p245-four-p284-three.wav,0,RX81,1,0.0,0.0,2.0,84.40078082039426,mgb_normalisation,84.40078082039426,90.34149293193902,6,6.0,True,1.187516450881958
,2024-07-26 13:36:35,sub_118,3,distance,cathedral,spatial_unmasking,1,37,0,0,_eight_,talker-p248_sex-f_text-_eight_.wav,p248,f,5,38,2.0,7.0,RX81,6,0.0,0.0,7.0,80.34149293193903,babble-reversed_n13_p229-five-p256-one-p318-three-p248-nine-p268-four-p284-eight.wav,0,RX81,1,0.0,0.0,2.0,84.40078082039426,mgb_normalisation,84.40078082039426,90.34149293193902,8,8.0,True,13.87519121170044
,2024-07-26 13:38:17,sub_118,3,distance,cathedral,spatial_unmasking,2,38,0,0,_nine_,talker-p248_sex-f_text-_nine_.wav,p248,f,5,1,12.0,7.0,RX81,6,0.0,0.0,7.0,92.34149293193902,babble-reversed_n13_p256-five-p229-one-p318-three-p248-nine-p284-eight-p268-two.wav,10,RX81,11,0.0,0.0,12.0,93.00003341222718,mgb_normalisation,93.00003341222715,90.34149293193902,9,9.0,True,1.2500741481781006
,2024-07-26 13:38:21,sub_118,3,distance,cathedral,spatial_unmasking,2,39,0,0,_three_,talker-p248_sex-f_text-_three_.wav,p248,f,5,2,12.0,7.0,RX81,6,0.0,0.0,7.0,88.34149293193902,babble-reversed_n13_p307-five-p229-three-p318-nine-p245-four-p268-eight-p284-two.wav,10,RX81,11,0.0,0.0,12.0,93.00003341222715,mgb_normalisation,93.00003341222715,90.34149293193902,3,3.0,True,1.0625147819519043
,2024-07-26 13:38:24,sub_118,3,distance,cathedral,spatial_unmasking,2,40,0,0,_two_,talker-p248_sex-f_text-_two_.wav,p248,f,5,3,12.0,7.0,RX81,6,0.0,0.0,7.0,84.34149293193903,babble-reversed_n13_p256-two-p307-five-p318-nine-p248-eight-p245-four-p284-one.wav,10,RX81,11,0.0,0.0,12.0,93.00003341222718,mgb_normalisation,93.00003341222715,90.34149293193902,2,2.0,True,1.1250154972076416
,2024-07-26 13:38:28,sub_118,3,distance,cathedral,spatial_unmasking,2,41,0,0,_three_,talker-p248_sex-f_text-_three_.wav,p248,f,5,4,12.0,7.0,RX81,6,0.0,0.0,7.0,80.341492931939,babble-reversed_n13_p318-four-p256-five-p229-three-p284-one-p245-eight-p248-nine.wav,10,RX81,11,0.0,0.0,12.0,93.00003341222718,mgb_normalisation,93.00003341222715,90.34149293193902,3,3.0,True,1.2500169277191162
,2024-07-26 13:38:37,sub_118,3,distance,cathedral,spatial_unmasking,2,42,0,0,_one_,talker-p248_sex-f_text-_one_.wav,p248,f,5,5,12.0,7.0,RX81,6,0.0,0.0,7.0,76.34149293193902,babble-reversed_n13_p307-two-p256-four-p318-three-p284-eight-p248-five-p245-nine.wav,10,RX81,11,0.0,0.0,12.0,93.00003341222718,mgb_normalisation,93.00003341222715,90.34149293193902,1,5.0,False,6.941133737564087
,2024-07-26 13:38:43,sub_118,3,distance,cathedral,spatial_unmasking,2,43,0,0,_four_,talker-p248_sex-f_text-_four_.wav,p248,f,5,6,12.0,7.0,RX81,6,0.0,0.0,7.0,78.34149293193902,babble-reversed_n13_p229-two-p307-five-p318-four-p284-one-p248-nine-p268-eight.wav,10,RX81,11,0.0,0.0,12.0,93.00003341222718,mgb_normalisation,93.00003341222715,90.34149293193902,4,1.0,False,3.625057697296143
,2024-07-26 13:38:47,sub_118,3,distance,cathedral,spatial_unmasking,2,44,0,0,_nine_,talker-p248_sex-f_text-_nine_.wav,p248,f,5,7,12.0,7.0,RX81,6,0.0,0.0,7.0,80.341492931939,babble-reversed_n13_p318-four-p256-five-p229-three-p284-one-p245-eight-p248-nine.wav,10,RX81,11,0.0,0.0,12.0,93.00003341222718,mgb_normalisation,93.00003341222715,90.34149293193902,9,9.0,True,1.3750817775726318
,2024-07-26 13:38:50,sub_118,3,distance,cathedral,spatial_unmasking,2,45,0,0,_six_,talker-p248_sex-f_text-_six_.wav,p248,f,5,8,12.0,7.0,RX81,6,0.0,0.0,7.0,80.34149293193903,babble-reversed_n13_p229-one-p318-eight-p256-three-p268-nine-p248-five-p284-four.wav,10,RX81,11,0.0,0.0,12.0,93.00003341222715,mgb_normalisation,93.00003341222715,90.34149293193902,6,6.0,True,1.000013828277588
,2024-07-26 13:38:54,sub_118,3,distance,cathedral,spatial_unmasking,2,46,0,0,_six_,talker-p248_sex-f_text-_six_.wav,p248,f,5,9,12.0,7.0,RX81,6,0.0,0.0,7.0,78.34149293193902,babble-reversed_n13_p318-five-p256-nine-p307-two-p245-eight-p248-one-p284-four.wav,10,RX81,11,0.0,0.0,12.0,93.00003341222718,mgb_normalisation,93.00003341222715,90.34149293193902,6,6.0,True,1.500020980834961
,2024-07-26 13:38:58,sub_118,3,distance,cathedral,spatial_unmasking,2,47,0,0,_four_,talker-p248_sex-f_text-_four_.wav,p248,f,5,10,12.0,7.0,RX81,6,0.0,0.0,7.0,78.34149293193902,babble-reversed_n13_p318-one-p307-two-p256-eight-p284-three-p248-five-p245-four.wav,10,RX81,11,0.0,0.0,12.0,93.00003341222718,mgb_normalisation,93.00003341222715,90.34149293193902,4,3.0,False,1.4375200271606443
,2024-07-26 13:39:02,sub_118,3,distance,cathedral,spatial_unmasking,2,48,0,0,_four_,talker-p248_sex-f_text-_four_.wav,p248,f,5,11,12.0,7.0,RX81,6,0.0,0.0,7.0,79.341492931939,babble-reversed_n13_p256-nine-p307-four-p229-one-p284-three-p248-two-p245-five.wav,10,RX81,11,0.0,0.0,12.0,93.00003341222718,mgb_normalisation,93.00003341222715,90.34149293193902,4,2.0,False,1.500018835067749
,2024-07-26 13:39:05,sub_118,3,distance,cathedral,spatial_unmasking,2,49,0,0,_five_,talker-p248_sex-f_text-_five_.wav,p248,f,5,12,12.0,7.0,RX81,6,0.0,0.0,7.0,80.341492931939,babble-reversed_n13_p318-three-p229-one-p256-eight-p245-five-p248-four-p284-nine.wav,10,RX81,11,0.0,0.0,12.0,93.00003341222718,mgb_normalisation,93.00003341222715,90.34149293193902,5,5.0,True,1.0625159740447998
,2024-07-26 13:39:11,sub_118,3,distance,cathedral,spatial_unmasking,2,50,0,0,_eight_,talker-p248_sex-f_text-_eight_.wav,p248,f,5,13,12.0,7.0,RX81,6,0.0,0.0,7.0,80.34149293193903,babble-reversed_n13_p256-five-p229-one-p318-three-p248-nine-p284-eight-p268-two.wav,10,RX81,11,0.0,0.0,12.0,93.00003341222718,mgb_normalisation,93.00003341222715,90.34149293193902,8,4.0,False,3.3125460147857666
,2024-07-26 13:39:15,sub_118,3,distance,cathedral,spatial_unmasking,2,51,0,0,_nine_,talker-p248_sex-f_text-_nine_.wav,p248,f,5,14,12.0,7.0,RX81,6,0.0,0.0,7.0,81.34149293193902,babble-reversed_n13_p318-three-p229-one-p256-eight-p245-five-p248-four-p284-nine.wav,10,RX81,11,0.0,0.0,12.0,93.00003341222718,mgb_normalisation,93.00003341222715,90.34149293193902,9,3.0,False,1.562520980834961
,2024-07-26 13:39:18,sub_118,3,distance,cathedral,spatial_unmasking,2,52,0,0,_six_,talker-p248_sex-f_text-_six_.wav,p248,f,5,15,12.0,7.0,RX81,6,0.0,0.0,7.0,82.34149293193902,babble-reversed_n13_p318-nine-p307-eight-p229-two-p284-one-p248-three-p245-five.wav,10,RX81,11,0.0,0.0,12.0,93.00003341222718,mgb_normalisation,93.00003341222715,90.34149293193902,6,6.0,True,1.062466382980347
,2024-07-26 13:39:23,sub_118,3,distance,cathedral,spatial_unmasking,2,53,0,0,_eight_,talker-p248_sex-f_text-_eight_.wav,p248,f,5,16,12.0,7.0,RX81,6,0.0,0.0,7.0,82.34149293193902,babble-reversed_n13_p307-two-p229-one-p256-five-p248-nine-p284-three-p268-eight.wav,10,RX81,11,0.0,0.0,12.0,93.00003341222718,mgb_normalisation,93.00003341222715,90.34149293193902,8,3.0,False,2.312466621398926
,2024-07-26 13:39:27,sub_118,3,distance,cathedral,spatial_unmasking,2,54,0,0,_three_,talker-p248_sex-f_text-_three_.wav,p248,f,5,17,12.0,7.0,RX81,6,0.0,0.0,7.0,83.34149293193902,babble-reversed_n13_p318-four-p256-five-p229-three-p284-one-p245-eight-p248-nine.wav,10,RX81,11,0.0,0.0,12.0,93.00003341222718,mgb_normalisation,93.00003341222715,90.34149293193902,3,3.0,True,1.3125231266021729
,2024-07-26 13:39:31,sub_118,3,distance,cathedral,spatial_unmasking,2,55,0,0,_nine_,talker-p248_sex-f_text-_nine_.wav,p248,f,5,18,12.0,7.0,RX81,6,0.0,0.0,7.0,83.34149293193902,babble-reversed_n13_p307-one-p318-five-p229-four-p268-eight-p284-two-p245-three.wav,10,RX81,11,0.0,0.0,12.0,93.00003341222715,mgb_normalisation,93.00003341222715,90.34149293193902,9,9.0,True,1.6250228881835938
,2024-07-26 13:39:35,sub_118,3,distance,cathedral,spatial_unmasking,2,56,0,0,_nine_,talker-p248_sex-f_text-_nine_.wav,p248,f,5,19,12.0,7.0,RX81,6,0.0,0.0,7.0,82.34149293193902,babble-reversed_n13_p256-three-p318-two-p229-nine-p248-four-p284-one-p268-eight.wav,10,RX81,11,0.0,0.0,12.0,93.00003341222715,mgb_normalisation,93.00003341222715,90.34149293193902,9,5.0,False,1.4375205039978027
,2024-07-26 13:39:38,sub_118,3,distance,cathedral,spatial_unmasking,2,57,0,0,_two_,talker-p248_sex-f_text-_two_.wav,p248,f,5,20,12.0,7.0,RX81,6,0.0,0.0,7.0,83.34149293193903,babble-reversed_n13_p307-five-p229-two-p318-four-p248-three-p245-nine-p268-eight.wav,10,RX81,11,0.0,0.0,12.0,93.00003341222715,mgb_normalisation,93.00003341222715,90.34149293193902,2,2.0,True,0.8750114440917969
,2024-07-26 13:39:41,sub_118,3,distance,cathedral,spatial_unmasking,2,58,0,0,_five_,talker-p248_sex-f_text-_five_.wav,p248,f,5,21,12.0,7.0,RX81,6,0.0,0.0,7.0,83.34149293193902,babble-reversed_n13_p229-two-p307-five-p318-four-p284-one-p248-nine-p268-eight.wav,10,RX81,11,0.0,0.0,12.0,93.00003341222718,mgb_normalisation,93.00003341222715,90.34149293193902,5,5.0,True,1.1250085830688477
,2024-07-26 13:39:45,sub_118,3,distance,cathedral,spatial_unmasking,2,59,0,0,_two_,talker-p248_sex-f_text-_two_.wav,p248,f,5,22,12.0,7.0,RX81,6,0.0,0.0,7.0,82.34149293193902,babble-reversed_n13_p318-nine-p307-eight-p229-two-p284-one-p248-three-p245-five.wav,10,RX81,11,0.0,0.0,12.0,93.00003341222718,mgb_normalisation,93.00003341222715,90.34149293193902,2,2.0,True,1.1875157356262207
,2024-07-26 13:39:48,sub_118,3,distance,cathedral,spatial_unmasking,2,60,0,0,_six_,talker-p248_sex-f_text-_six_.wav,p248,f,5,23,12.0,7.0,RX81,6,0.0,0.0,7.0,82.34149293193902,babble-reversed_n13_p307-four-p318-three-p256-eight-p284-two-p245-nine-p248-five.wav,10,RX81,11,0.0,0.0,12.0,93.00003341222715,mgb_normalisation,93.00003341222715,90.34149293193902,6,6.0,True,0.9375131130218506
,2024-07-26 13:39:52,sub_118,3,distance,cathedral,spatial_unmasking,2,61,0,0,_six_,talker-p248_sex-f_text-_six_.wav,p248,f,5,24,12.0,7.0,RX81,6,0.0,0.0,7.0,81.34149293193902,babble-reversed_n13_p229-one-p318-eight-p256-three-p268-nine-p248-five-p284-four.wav,10,RX81,11,0.0,0.0,12.0,93.00003341222715,mgb_normalisation,93.00003341222715,90.34149293193902,6,6.0,True,0.9375123977661132
,2024-07-26 13:39:56,sub_118,3,distance,cathedral,spatial_unmasking,2,62,0,0,_four_,talker-p248_sex-f_text-_four_.wav,p248,f,5,25,12.0,7.0,RX81,6,0.0,0.0,7.0,81.341492931939,babble-reversed_n13_p318-nine-p256-five-p307-eight-p268-three-p248-one-p245-four.wav,10,RX81,11,0.0,0.0,12.0,93.00003341222718,mgb_normalisation,93.00003341222715,90.34149293193902,4,4.0,True,1.8750252723693848
,2024-07-26 13:39:59,sub_118,3,distance,cathedral,spatial_unmasking,2,63,0,0,_two_,talker-p248_sex-f_text-_two_.wav,p248,f,5,26,12.0,7.0,RX81,6,0.0,0.0,7.0,80.34149293193903,babble-reversed_n13_p229-two-p256-three-p318-eight-p284-five-p268-four-p245-one.wav,10,RX81,11,0.0,0.0,12.0,93.00003341222718,mgb_normalisation,93.00003341222715,90.34149293193902,2,2.0,True,1.1250152587890625
,2024-07-26 13:40:03,sub_118,3,distance,cathedral,spatial_unmasking,2,64,0,0,_eight_,talker-p248_sex-f_text-_eight_.wav,p248,f,5,27,12.0,7.0,RX81,6,0.0,0.0,7.0,80.34149293193903,babble-reversed_n13_p229-five-p318-two-p307-eight-p268-three-p248-four-p245-one.wav,10,RX81,11,0.0,0.0,12.0,93.00003341222718,mgb_normalisation,93.00003341222715,90.34149293193902,8,8.0,True,1.5000202655792236
,2024-07-26 13:40:08,sub_118,3,distance,cathedral,spatial_unmasking,2,65,0,0,_one_,talker-p248_sex-f_text-_one_.wav,p248,f,5,28,12.0,7.0,RX81,6,0.0,0.0,7.0,79.34149293193902,babble-reversed_n13_p229-one-p318-eight-p256-three-p268-two-p245-five-p248-nine.wav,10,RX81,11,0.0,0.0,12.0,93.00003341222715,mgb_normalisation,93.00003341222715,90.34149293193902,1,4.0,False,2.500034809112549
,2024-07-26 13:40:12,sub_118,3,distance,cathedral,spatial_unmasking,2,66,0,0,_nine_,talker-p248_sex-f_text-_nine_.wav,p248,f,5,29,12.0,7.0,RX81,6,0.0,0.0,7.0,80.341492931939,babble-reversed_n13_p229-nine-p307-five-p256-two-p248-three-p245-one-p268-eight.wav,10,RX81,11,0.0,0.0,12.0,93.00003341222715,mgb_normalisation,93.00003341222715,90.34149293193902,9,3.0,False,1.312490940093994
,2024-07-26 13:40:15,sub_118,3,distance,cathedral,spatial_unmasking,2,67,0,0,_five_,talker-p248_sex-f_text-_five_.wav,p248,f,5,30,12.0,7.0,RX81,6,0.0,0.0,7.0,81.341492931939,babble-reversed_n13_p256-four-p229-eight-p307-five-p248-three-p245-one-p284-two.wav,10,RX81,11,0.0,0.0,12.0,93.00003341222715,mgb_normalisation,93.00003341222715,90.34149293193902,5,5.0,True,1.1250154972076416
,2024-07-26 13:40:20,sub_118,3,distance,cathedral,spatial_unmasking,2,68,0,0,_one_,talker-p248_sex-f_text-_one_.wav,p248,f,5,31,12.0,7.0,RX81,6,0.0,0.0,7.0,81.34149293193902,babble-reversed_n13_p229-five-p318-three-p307-two-p245-four-p284-nine-p248-eight.wav,10,RX81,11,0.0,0.0,12.0,93.00003341222715,mgb_normalisation,93.00003341222715,90.34149293193902,1,1.0,True,1.9375264644622805
,2024-07-26 13:40:26,sub_118,3,distance,cathedral,spatial_unmasking,2,69,0,0,_eight_,talker-p248_sex-f_text-_eight_.wav,p248,f,5,32,12.0,7.0,RX81,6,0.0,0.0,7.0,80.34149293193903,babble-reversed_n13_p256-four-p229-eight-p307-five-p248-three-p245-one-p284-two.wav,10,RX81,11,0.0,0.0,12.0,93.00003341222715,mgb_normalisation,93.00003341222715,90.34149293193902,8,2.0,False,4.062556266784668
,2024-07-26 13:40:30,sub_118,3,distance,cathedral,spatial_unmasking,2,70,0,0,_two_,talker-p248_sex-f_text-_two_.wav,p248,f,5,33,12.0,7.0,RX81,6,0.0,0.0,7.0,81.34149293193902,babble-reversed_n13_p229-eight-p256-nine-p318-four-p245-three-p268-five-p284-two.wav,10,RX81,11,0.0,0.0,12.0,93.00003341222715,mgb_normalisation,93.00003341222715,90.34149293193902,2,2.0,True,1.3125178813934326
,2024-07-26 13:40:34,sub_118,3,distance,cathedral,spatial_unmasking,2,71,0,0,_one_,talker-p248_sex-f_text-_one_.wav,p248,f,5,34,12.0,7.0,RX81,6,0.0,0.0,7.0,81.34149293193902,babble-reversed_n13_p229-two-p318-eight-p256-three-p268-one-p248-nine-p284-five.wav,10,RX81,11,0.0,0.0,12.0,93.00003341222715,mgb_normalisation,93.00003341222715,90.34149293193902,1,1.0,True,1.2500147819519043
,2024-07-26 13:40:37,sub_118,3,distance,cathedral,spatial_unmasking,2,72,0,0,_four_,talker-p248_sex-f_text-_four_.wav,p248,f,5,35,12.0,7.0,RX81,6,0.0,0.0,7.0,80.341492931939,babble-reversed_n13_p256-eight-p318-two-p307-five-p245-four-p268-nine-p284-one.wav,10,RX81,11,0.0,0.0,12.0,93.00003341222718,mgb_normalisation,93.00003341222715,90.34149293193902,4,4.0,True,1.5000202655792236
,2024-07-26 13:40:41,sub_118,3,distance,cathedral,spatial_unmasking,2,73,0,0,_one_,talker-p248_sex-f_text-_one_.wav,p248,f,5,36,12.0,7.0,RX81,6,0.0,0.0,7.0,80.34149293193903,babble-reversed_n13_p229-nine-p256-four-p318-three-p268-eight-p248-two-p284-five.wav,10,RX81,11,0.0,0.0,12.0,93.00003341222718,mgb_normalisation,93.00003341222715,90.34149293193902,1,3.0,False,1.18751859664917
,2024-07-26 13:40:45,sub_118,3,distance,cathedral,spatial_unmasking,2,74,0,0,_six_,talker-p248_sex-f_text-_six_.wav,p248,f,5,37,12.0,7.0,RX81,6,0.0,0.0,7.0,81.34149293193902,babble-reversed_n13_p256-two-p307-five-p318-nine-p248-eight-p245-four-p284-one.wav,10,RX81,11,0.0,0.0,12.0,93.00003341222718,mgb_normalisation,93.00003341222715,90.34149293193902,6,6.0,True,1.1250154972076416
,2024-07-26 13:40:48,sub_118,3,distance,cathedral,spatial_unmasking,2,75,0,0,_nine_,talker-p248_sex-f_text-_nine_.wav,p248,f,5,38,12.0,7.0,RX81,6,0.0,0.0,7.0,81.34149293193902,babble-reversed_n13_p318-five-p256-nine-p307-two-p245-eight-p248-one-p284-four.wav,10,RX81,11,0.0,0.0,12.0,93.00003341222718,mgb_normalisation,93.00003341222715,90.34149293193902,9,9.0,True,1.1250152587890625
,2024-07-26 13:43:06,sub_118,3,distance,cathedral,spatial_unmasking,3,76,0,0,_nine_,talker-p248_sex-f_text-_nine_.wav,p248,f,5,1,10.0,7.0,RX81,6,0.0,0.0,7.0,92.34149293193902,babble-reversed_n13_p307-nine-p318-two-p256-one-p245-three-p268-four-p248-eight.wav,8,RX81,9,0.0,0.0,10.0,92.0152836843556,mgb_normalisation,92.0152836843556,90.34149293193902,9,9.0,True,1.2499876022338867
,2024-07-26 13:43:09,sub_118,3,distance,cathedral,spatial_unmasking,3,77,0,0,_eight_,talker-p248_sex-f_text-_eight_.wav,p248,f,5,2,10.0,7.0,RX81,6,0.0,0.0,7.0,88.34149293193902,babble-reversed_n13_p318-three-p229-one-p256-eight-p245-five-p248-four-p284-nine.wav,8,RX81,9,0.0,0.0,10.0,92.0152836843556,mgb_normalisation,92.0152836843556,90.34149293193902,8,3.0,False,1.1874885559082031
,2024-07-26 13:43:13,sub_118,3,distance,cathedral,spatial_unmasking,3,78,0,0,_two_,talker-p248_sex-f_text-_two_.wav,p248,f,5,3,10.0,7.0,RX81,6,0.0,0.0,7.0,90.34149293193904,babble-reversed_n13_p229-three-p307-one-p318-two-p245-eight-p268-five-p284-four.wav,8,RX81,9,0.0,0.0,10.0,92.0152836843556,mgb_normalisation,92.0152836843556,90.34149293193902,2,2.0,True,0.9374895095825196
,2024-07-26 13:43:16,sub_118,3,distance,cathedral,spatial_unmasking,3,79,0,0,_nine_,talker-p248_sex-f_text-_nine_.wav,p248,f,5,4,10.0,7.0,RX81,6,0.0,0.0,7.0,90.341492931939,babble-reversed_n13_p229-one-p318-eight-p256-three-p268-nine-p248-five-p284-four.wav,8,RX81,9,0.0,0.0,10.0,92.0152836843556,mgb_normalisation,92.0152836843556,90.34149293193902,9,9.0,True,1.062489032745361
,2024-07-26 13:43:20,sub_118,3,distance,cathedral,spatial_unmasking,3,80,0,0,_two_,talker-p248_sex-f_text-_two_.wav,p248,f,5,5,10.0,7.0,RX81,6,0.0,0.0,7.0,88.34149293193903,babble-reversed_n13_p256-five-p229-one-p318-three-p248-nine-p284-eight-p268-two.wav,8,RX81,9,0.0,0.0,10.0,92.0152836843556,mgb_normalisation,92.0152836843556,90.34149293193902,2,2.0,True,1.56248140335083
,2024-07-26 13:43:24,sub_118,3,distance,cathedral,spatial_unmasking,3,81,0,0,_five_,talker-p248_sex-f_text-_five_.wav,p248,f,5,6,10.0,7.0,RX81,6,0.0,0.0,7.0,88.34149293193902,babble-reversed_n13_p256-nine-p307-four-p229-one-p284-three-p248-two-p245-five.wav,8,RX81,9,0.0,0.0,10.0,92.0152836843556,mgb_normalisation,92.0152836843556,90.34149293193902,5,5.0,True,1.0624895095825195
,2024-07-26 13:43:27,sub_118,3,distance,cathedral,spatial_unmasking,3,82,0,0,_four_,talker-p248_sex-f_text-_four_.wav,p248,f,5,7,10.0,7.0,RX81,6,0.0,0.0,7.0,86.341492931939,babble-reversed_n13_p229-one-p318-nine-p256-four-p284-eight-p268-five-p245-two.wav,8,RX81,9,0.0,0.0,10.0,92.0152836843556,mgb_normalisation,92.0152836843556,90.34149293193902,4,4.0,True,1.124988317489624
,2024-07-26 13:43:31,sub_118,3,distance,cathedral,spatial_unmasking,3,83,0,0,_three_,talker-p248_sex-f_text-_three_.wav,p248,f,5,8,10.0,7.0,RX81,6,0.0,0.0,7.0,86.34149293193902,babble-reversed_n13_p307-five-p229-three-p318-nine-p245-four-p268-eight-p284-two.wav,8,RX81,9,0.0,0.0,10.0,92.0152836843556,mgb_normalisation,92.0152836843556,90.34149293193902,3,3.0,True,0.9374916553497314
,2024-07-26 13:43:35,sub_118,3,distance,cathedral,spatial_unmasking,3,84,0,0,_eight_,talker-p248_sex-f_text-_eight_.wav,p248,f,5,9,10.0,7.0,RX81,6,0.0,0.0,7.0,84.34149293193903,babble-reversed_n13_p229-five-p256-three-p318-nine-p248-two-p284-four-p268-one.wav,8,RX81,9,0.0,0.0,10.0,92.0152836843556,mgb_normalisation,92.0152836843556,90.34149293193902,8,8.0,True,1.8125097751617432
,2024-07-26 13:43:39,sub_118,3,distance,cathedral,spatial_unmasking,3,85,0,0,_eight_,talker-p248_sex-f_text-_eight_.wav,p248,f,5,10,10.0,7.0,RX81,6,0.0,0.0,7.0,84.34149293193903,babble-reversed_n13_p318-three-p229-one-p256-eight-p245-five-p248-four-p284-nine.wav,8,RX81,9,0.0,0.0,10.0,92.0152836843556,mgb_normalisation,92.0152836843556,90.34149293193902,8,8.0,True,1.625010967254639
,2024-07-26 13:43:42,sub_118,3,distance,cathedral,spatial_unmasking,3,86,0,0,_four_,talker-p248_sex-f_text-_four_.wav,p248,f,5,11,10.0,7.0,RX81,6,0.0,0.0,7.0,82.34149293193902,babble-reversed_n13_p256-four-p307-eight-p318-two-p248-three-p284-nine-p268-one.wav,8,RX81,9,0.0,0.0,10.0,92.0152836843556,mgb_normalisation,92.0152836843556,90.34149293193902,4,3.0,False,1.1874854564666748
,2024-07-26 13:43:46,sub_118,3,distance,cathedral,spatial_unmasking,3,87,0,0,_nine_,talker-p248_sex-f_text-_nine_.wav,p248,f,5,12,10.0,7.0,RX81,6,0.0,0.0,7.0,83.34149293193902,babble-reversed_n13_p307-four-p318-three-p256-eight-p284-two-p245-nine-p248-five.wav,8,RX81,9,0.0,0.0,10.0,92.0152836843556,mgb_normalisation,92.0152836843556,90.34149293193902,9,9.0,True,1.3124873638153076
,2024-07-26 13:43:50,sub_118,3,distance,cathedral,spatial_unmasking,3,88,0,0,_six_,talker-p248_sex-f_text-_six_.wav,p248,f,5,13,10.0,7.0,RX81,6,0.0,0.0,7.0,83.34149293193902,babble-reversed_n13_p256-four-p307-eight-p318-two-p248-three-p284-nine-p268-one.wav,8,RX81,9,0.0,0.0,10.0,92.0152836843556,mgb_normalisation,92.0152836843556,90.34149293193902,6,6.0,True,0.9999902248382568
,2024-07-26 13:43:53,sub_118,3,distance,cathedral,spatial_unmasking,3,89,0,0,_six_,talker-p248_sex-f_text-_six_.wav,p248,f,5,14,10.0,7.0,RX81,6,0.0,0.0,7.0,82.34149293193902,babble-reversed_n13_p256-eight-p318-five-p307-four-p245-three-p268-one-p284-nine.wav,8,RX81,9,0.0,0.0,10.0,92.0152836843556,mgb_normalisation,92.0152836843556,90.34149293193902,6,6.0,True,0.8124926090240479
,2024-07-26 13:43:57,sub_118,3,distance,cathedral,spatial_unmasking,3,90,0,0,_two_,talker-p248_sex-f_text-_two_.wav,p248,f,5,15,10.0,7.0,RX81,6,0.0,0.0,7.0,82.34149293193902,babble-reversed_n13_p229-three-p256-nine-p318-five-p248-one-p245-eight-p284-two.wav,8,RX81,9,0.0,0.0,10.0,92.0152836843556,mgb_normalisation,92.0152836843556,90.34149293193902,2,2.0,True,1.9374816417694087
,2024-07-26 13:44:01,sub_118,3,distance,cathedral,spatial_unmasking,3,91,0,0,_two_,talker-p248_sex-f_text-_two_.wav,p248,f,5,16,10.0,7.0,RX81,6,0.0,0.0,7.0,81.34149293193902,babble-reversed_n13_p256-two-p307-five-p318-nine-p248-eight-p245-four-p284-one.wav,8,RX81,9,0.0,0.0,10.0,92.0152836843556,mgb_normalisation,92.0152836843556,90.34149293193902,2,2.0,True,1.437485933303833
,2024-07-26 13:44:05,sub_118,3,distance,cathedral,spatial_unmasking,3,92,0,0,_nine_,talker-p248_sex-f_text-_nine_.wav,p248,f,5,17,10.0,7.0,RX81,6,0.0,0.0,7.0,81.34149293193902,babble-reversed_n13_p229-two-p318-eight-p256-three-p268-one-p248-nine-p284-five.wav,8,RX81,9,0.0,0.0,10.0,92.0152836843556,mgb_normalisation,92.0152836843556,90.34149293193902,9,9.0,True,1.374986171722412
,2024-07-26 13:44:08,sub_118,3,distance,cathedral,spatial_unmasking,3,93,0,0,_six_,talker-p248_sex-f_text-_six_.wav,p248,f,5,18,10.0,7.0,RX81,6,0.0,0.0,7.0,80.34149293193903,babble-reversed_n13_p307-nine-p229-one-p256-eight-p248-four-p284-two-p268-three.wav,8,RX81,9,0.0,0.0,10.0,92.0152836843556,mgb_normalisation,92.0152836843556,90.34149293193902,6,6.0,True,1.0624897480010986
,2024-07-26 13:44:12,sub_118,3,distance,cathedral,spatial_unmasking,3,94,0,0,_six_,talker-p248_sex-f_text-_six_.wav,p248,f,5,19,10.0,7.0,RX81,6,0.0,0.0,7.0,80.34149293193903,babble-reversed_n13_p229-three-p307-one-p318-two-p245-eight-p268-five-p284-four.wav,8,RX81,9,0.0,0.0,10.0,92.0152836843556,mgb_normalisation,92.0152836843556,90.34149293193902,6,6.0,True,1.562483549118042
,2024-07-26 13:44:16,sub_118,3,distance,cathedral,spatial_unmasking,3,95,0,0,_one_,talker-p248_sex-f_text-_one_.wav,p248,f,5,20,10.0,7.0,RX81,6,0.0,0.0,7.0,79.34149293193902,babble-reversed_n13_p307-one-p318-five-p229-four-p268-eight-p284-two-p245-three.wav,8,RX81,9,0.0,0.0,10.0,92.0152836843556,mgb_normalisation,92.0152836843556,90.34149293193902,1,1.0,True,1.437485933303833
,2024-07-26 13:44:22,sub_118,3,distance,cathedral,spatial_unmasking,3,96,0,0,_one_,talker-p248_sex-f_text-_one_.wav,p248,f,5,21,10.0,7.0,RX81,6,0.0,0.0,7.0,79.34149293193902,babble-reversed_n13_p229-two-p307-five-p318-four-p284-one-p248-nine-p268-eight.wav,8,RX81,9,0.0,0.0,10.0,92.0152836843556,mgb_normalisation,92.0152836843556,90.34149293193902,1,9.0,False,3.4374942779541016
,2024-07-26 13:44:25,sub_118,3,distance,cathedral,spatial_unmasking,3,97,0,0,_eight_,talker-p248_sex-f_text-_eight_.wav,p248,f,5,22,10.0,7.0,RX81,6,0.0,0.0,7.0,80.34149293193903,babble-reversed_n13_p256-two-p307-five-p318-nine-p248-eight-p245-four-p284-one.wav,8,RX81,9,0.0,0.0,10.0,92.0152836843556,mgb_normalisation,92.0152836843556,90.34149293193902,8,3.0,False,1.312459945678711
,2024-07-26 13:44:29,sub_118,3,distance,cathedral,spatial_unmasking,3,98,0,0,_five_,talker-p248_sex-f_text-_five_.wav,p248,f,5,23,10.0,7.0,RX81,6,0.0,0.0,7.0,81.341492931939,babble-reversed_n13_p229-two-p256-three-p318-eight-p284-five-p268-four-p245-one.wav,8,RX81,9,0.0,0.0,10.0,92.0152836843556,mgb_normalisation,92.0152836843556,90.34149293193902,5,5.0,True,1.2499871253967283
,2024-07-26 13:44:33,sub_118,3,distance,cathedral,spatial_unmasking,3,99,0,0,_three_,talker-p248_sex-f_text-_three_.wav,p248,f,5,24,10.0,7.0,RX81,6,0.0,0.0,7.0,81.34149293193902,babble-reversed_n13_p229-five-p256-one-p318-three-p248-nine-p268-four-p284-eight.wav,8,RX81,9,0.0,0.0,10.0,92.0152836843556,mgb_normalisation,92.0152836843556,90.34149293193902,3,3.0,True,1.062490940093994
,2024-07-26 13:44:38,sub_118,3,distance,cathedral,spatial_unmasking,3,100,0,0,_five_,talker-p248_sex-f_text-_five_.wav,p248,f,5,25,10.0,7.0,RX81,6,0.0,0.0,7.0,80.341492931939,babble-reversed_n13_p256-two-p307-five-p318-nine-p248-eight-p245-four-p284-one.wav,8,RX81,9,0.0,0.0,10.0,92.0152836843556,mgb_normalisation,92.0152836843556,90.34149293193902,5,5.0,True,2.812469005584717
,2024-07-26 13:44:42,sub_118,3,distance,cathedral,spatial_unmasking,3,101,0,0,_one_,talker-p248_sex-f_text-_one_.wav,p248,f,5,26,10.0,7.0,RX81,6,0.0,0.0,7.0,80.34149293193903,babble-reversed_n13_p229-three-p256-nine-p318-five-p248-one-p245-eight-p284-two.wav,8,RX81,9,0.0,0.0,10.0,92.0152836843556,mgb_normalisation,92.0152836843556,90.34149293193902,1,9.0,False,1.5624849796295166
,2024-07-26 13:44:46,sub_118,3,distance,cathedral,spatial_unmasking,3,102,0,0,_eight_,talker-p248_sex-f_text-_eight_.wav,p248,f,5,27,10.0,7.0,RX81,6,0.0,0.0,7.0,81.34149293193902,babble-reversed_n13_p229-nine-p318-one-p307-two-p248-eight-p245-five-p284-four.wav,8,RX81,9,0.0,0.0,10.0,92.0152836843556,mgb_normalisation,92.0152836843556,90.34149293193902,8,8.0,True,1.4999847412109375
,2024-07-26 13:44:50,sub_118,3,distance,cathedral,spatial_unmasking,3,103,0,0,_two_,talker-p248_sex-f_text-_two_.wav,p248,f,5,28,10.0,7.0,RX81,6,0.0,0.0,7.0,81.34149293193902,babble-reversed_n13_p229-three-p307-one-p318-two-p245-eight-p268-five-p284-four.wav,8,RX81,9,0.0,0.0,10.0,92.0152836843556,mgb_normalisation,92.0152836843556,90.34149293193902,2,2.0,True,2.0624823570251465
,2024-07-26 13:44:54,sub_118,3,distance,cathedral,spatial_unmasking,3,104,0,0,_eight_,talker-p248_sex-f_text-_eight_.wav,p248,f,5,29,10.0,7.0,RX81,6,0.0,0.0,7.0,80.34149293193903,babble-reversed_n13_p256-three-p318-one-p307-two-p284-nine-p268-four-p245-eight.wav,8,RX81,9,0.0,0.0,10.0,92.0152836843556,mgb_normalisation,92.0152836843556,90.34149293193902,8,8.0,True,1.9374871253967283
,2024-07-26 13:44:58,sub_118,3,distance,cathedral,spatial_unmasking,3,105,0,0,_nine_,talker-p248_sex-f_text-_nine_.wav,p248,f,5,30,10.0,7.0,RX81,6,0.0,0.0,7.0,80.341492931939,babble-reversed_n13_p229-eight-p256-nine-p318-four-p245-three-p268-five-p284-two.wav,8,RX81,9,0.0,0.0,10.0,92.0152836843556,mgb_normalisation,92.0152836843556,90.34149293193902,9,9.0,True,1.6874825954437256
,2024-07-26 13:45:02,sub_118,3,distance,cathedral,spatial_unmasking,3,106,0,0,_three_,talker-p248_sex-f_text-_three_.wav,p248,f,5,31,10.0,7.0,RX81,6,0.0,0.0,7.0,79.341492931939,babble-reversed_n13_p256-four-p229-two-p318-five-p268-one-p248-eight-p245-three.wav,8,RX81,9,0.0,0.0,10.0,92.0152836843556,mgb_normalisation,92.0152836843556,90.34149293193902,3,3.0,True,1.3124871253967283
,2024-07-26 13:45:07,sub_118,3,distance,cathedral,spatial_unmasking,3,107,0,0,_three_,talker-p248_sex-f_text-_three_.wav,p248,f,5,32,10.0,7.0,RX81,6,0.0,0.0,7.0,79.341492931939,babble-reversed_n13_p256-eight-p318-five-p307-four-p245-three-p268-one-p284-nine.wav,8,RX81,9,0.0,0.0,10.0,92.0152836843556,mgb_normalisation,92.0152836843556,90.34149293193902,3,8.0,False,2.124955415725708
,2024-07-26 13:45:10,sub_118,3,distance,cathedral,spatial_unmasking,3,108,0,0,_two_,talker-p248_sex-f_text-_two_.wav,p248,f,5,33,10.0,7.0,RX81,6,0.0,0.0,7.0,80.34149293193903,babble-reversed_n13_p256-eight-p229-three-p307-nine-p245-five-p248-four-p268-two.wav,8,RX81,9,0.0,0.0,10.0,92.0152836843556,mgb_normalisation,92.0152836843556,90.34149293193902,2,2.0,True,1.249983549118042
,2024-07-26 13:45:14,sub_118,3,distance,cathedral,spatial_unmasking,3,109,0,0,_two_,talker-p248_sex-f_text-_two_.wav,p248,f,5,34,10.0,7.0,RX81,6,0.0,0.0,7.0,80.34149293193903,babble-reversed_n13_p256-eight-p318-five-p307-four-p245-three-p268-one-p284-nine.wav,8,RX81,9,0.0,0.0,10.0,92.0152836843556,mgb_normalisation,92.0152836843556,90.34149293193902,2,2.0,True,1.3124868869781494
,2024-07-26 13:45:18,sub_118,3,distance,cathedral,spatial_unmasking,3,110,0,0,_five_,talker-p248_sex-f_text-_five_.wav,p248,f,5,35,10.0,7.0,RX81,6,0.0,0.0,7.0,79.341492931939,babble-reversed_n13_p229-five-p256-three-p318-nine-p248-two-p284-four-p268-one.wav,8,RX81,9,0.0,0.0,10.0,92.0152836843556,mgb_normalisation,92.0152836843556,90.34149293193902,5,5.0,True,1.6249840259552002
,2024-07-26 13:45:22,sub_118,3,distance,cathedral,spatial_unmasking,3,111,0,0,_three_,talker-p248_sex-f_text-_three_.wav,p248,f,5,36,10.0,7.0,RX81,6,0.0,0.0,7.0,79.341492931939,babble-reversed_n13_p229-two-p307-five-p318-four-p284-one-p248-nine-p268-eight.wav,8,RX81,9,0.0,0.0,10.0,92.0152836843556,mgb_normalisation,92.0152836843556,90.34149293193902,3,3.0,True,1.9374804496765137
,2024-07-26 13:45:27,sub_118,3,distance,cathedral,spatial_unmasking,3,112,0,0,_four_,talker-p248_sex-f_text-_four_.wav,p248,f,5,37,10.0,7.0,RX81,6,0.0,0.0,7.0,78.34149293193902,babble-reversed_n13_p307-two-p256-four-p318-three-p284-eight-p248-five-p245-nine.wav,8,RX81,9,0.0,0.0,10.0,92.0152836843556,mgb_normalisation,92.0152836843556,90.34149293193902,4,8.0,False,2.374976396560669
,2024-07-26 13:45:31,sub_118,3,distance,cathedral,spatial_unmasking,3,113,0,0,_three_,talker-p248_sex-f_text-_three_.wav,p248,f,5,38,10.0,7.0,RX81,6,0.0,0.0,7.0,79.341492931939,babble-reversed_n13_p256-two-p307-five-p318-nine-p248-eight-p245-four-p284-one.wav,8,RX81,9,0.0,0.0,10.0,92.0152836843556,mgb_normalisation,92.0152836843556,90.34149293193902,3,3.0,True,1.1874885559082031
,2024-07-26 13:45:35,sub_118,3,distance,cathedral,spatial_unmasking,3,114,0,0,_five_,talker-p248_sex-f_text-_five_.wav,p248,f,5,39,10.0,7.0,RX81,6,0.0,0.0,7.0,79.341492931939,babble-reversed_n13_p229-one-p318-nine-p256-four-p284-eight-p268-five-p245-two.wav,8,RX81,9,0.0,0.0,10.0,92.0152836843556,mgb_normalisation,92.0152836843556,90.34149293193902,5,5.0,True,1.7499830722808838
,2024-07-26 13:46:27,sub_118,3,distance,cathedral,spatial_unmasking,4,115,0,0,_nine_,talker-p248_sex-f_text-_nine_.wav,p248,f,5,1,7.0,7.0,RX81,6,0.0,0.0,7.0,92.34149293193902,babble-reversed_n13_p318-nine-p307-eight-p229-two-p284-one-p248-three-p245-five.wav,5,RX81,6,0.0,0.0,7.0,90.34149293193904,mgb_normalisation,90.34149293193902,90.34149293193902,9,9.0,True,1.437485694885254
,2024-07-26 13:46:31,sub_118,3,distance,cathedral,spatial_unmasking,4,116,0,0,_three_,talker-p248_sex-f_text-_three_.wav,p248,f,5,2,7.0,7.0,RX81,6,0.0,0.0,7.0,88.34149293193902,babble-reversed_n13_p307-four-p318-three-p256-eight-p284-two-p245-nine-p248-five.wav,5,RX81,6,0.0,0.0,7.0,90.341492931939,mgb_normalisation,90.34149293193902,90.34149293193902,3,3.0,True,1.062488079071045
,2024-07-26 13:46:34,sub_118,3,distance,cathedral,spatial_unmasking,4,117,0,0,_two_,talker-p248_sex-f_text-_two_.wav,p248,f,5,3,7.0,7.0,RX81,6,0.0,0.0,7.0,84.34149293193903,babble-reversed_n13_p229-three-p256-nine-p318-five-p248-one-p245-eight-p284-two.wav,5,RX81,6,0.0,0.0,7.0,90.34149293193904,mgb_normalisation,90.34149293193902,90.34149293193902,2,2.0,True,1.062432050704956
,2024-07-26 13:46:38,sub_118,3,distance,cathedral,spatial_unmasking,4,118,0,0,_four_,talker-p248_sex-f_text-_four_.wav,p248,f,5,4,7.0,7.0,RX81,6,0.0,0.0,7.0,80.341492931939,babble-reversed_n13_p256-two-p307-five-p318-nine-p248-eight-p245-four-p284-one.wav,5,RX81,6,0.0,0.0,7.0,90.34149293193904,mgb_normalisation,90.34149293193902,90.34149293193902,4,1.0,False,1.749982833862305
,2024-07-26 13:46:42,sub_118,3,distance,cathedral,spatial_unmasking,4,119,0,0,_four_,talker-p248_sex-f_text-_four_.wav,p248,f,5,5,7.0,7.0,RX81,6,0.0,0.0,7.0,82.34149293193902,babble-reversed_n13_p229-nine-p318-one-p307-two-p248-eight-p245-five-p284-four.wav,5,RX81,6,0.0,0.0,7.0,90.34149293193904,mgb_normalisation,90.34149293193902,90.34149293193902,4,4.0,True,1.749982833862305
,2024-07-26 13:46:46,sub_118,3,distance,cathedral,spatial_unmasking,4,120,0,0,_four_,talker-p248_sex-f_text-_four_.wav,p248,f,5,6,7.0,7.0,RX81,6,0.0,0.0,7.0,82.34149293193902,babble-reversed_n13_p318-nine-p256-five-p307-eight-p268-three-p248-one-p245-four.wav,5,RX81,6,0.0,0.0,7.0,90.34149293193904,mgb_normalisation,90.34149293193902,90.34149293193902,4,4.0,True,1.687483310699463
,2024-07-26 13:46:50,sub_118,3,distance,cathedral,spatial_unmasking,4,121,0,0,_six_,talker-p248_sex-f_text-_six_.wav,p248,f,5,7,7.0,7.0,RX81,6,0.0,0.0,7.0,80.34149293193903,babble-reversed_n13_p307-nine-p229-one-p256-eight-p248-four-p284-two-p268-three.wav,5,RX81,6,0.0,0.0,7.0,90.34149293193904,mgb_normalisation,90.34149293193902,90.34149293193902,6,6.0,True,1.4999842643737793
,2024-07-26 13:46:57,sub_118,3,distance,cathedral,spatial_unmasking,4,122,0,0,_eight_,talker-p248_sex-f_text-_eight_.wav,p248,f,5,8,7.0,7.0,RX81,6,0.0,0.0,7.0,80.34149293193903,babble-reversed_n13_p318-nine-p256-five-p307-eight-p268-three-p248-one-p245-four.wav,5,RX81,6,0.0,0.0,7.0,90.34149293193904,mgb_normalisation,90.34149293193902,90.34149293193902,8,4.0,False,4.56245493888855
,2024-07-26 13:47:00,sub_118,3,distance,cathedral,spatial_unmasking,4,123,0,0,_two_,talker-p248_sex-f_text-_two_.wav,p248,f,5,9,7.0,7.0,RX81,6,0.0,0.0,7.0,81.34149293193902,babble-reversed_n13_p256-eight-p229-three-p307-nine-p245-five-p248-four-p268-two.wav,5,RX81,6,0.0,0.0,7.0,90.341492931939,mgb_normalisation,90.34149293193902,90.34149293193902,2,2.0,True,1.4999854564666748
,2024-07-26 13:47:04,sub_118,3,distance,cathedral,spatial_unmasking,4,124,0,0,_one_,talker-p248_sex-f_text-_one_.wav,p248,f,5,10,7.0,7.0,RX81,6,0.0,0.0,7.0,81.34149293193902,babble-reversed_n13_p318-five-p256-nine-p307-eight-p248-two-p245-four-p284-three.wav,5,RX81,6,0.0,0.0,7.0,90.34149293193904,mgb_normalisation,90.34149293193902,90.34149293193902,1,1.0,True,1.1874885559082031
,2024-07-26 13:47:09,sub_118,3,distance,cathedral,spatial_unmasking,4,125,0,0,_four_,talker-p248_sex-f_text-_four_.wav,p248,f,5,11,7.0,7.0,RX81,6,0.0,0.0,7.0,80.341492931939,babble-reversed_n13_p318-three-p229-one-p256-eight-p245-five-p248-four-p284-nine.wav,5,RX81,6,0.0,0.0,7.0,90.34149293193904,mgb_normalisation,90.34149293193902,90.34149293193902,4,3.0,False,2.749918460845948
,2024-07-26 13:47:13,sub_118,3,distance,cathedral,spatial_unmasking,4,126,0,0,_three_,talker-p248_sex-f_text-_three_.wav,p248,f,5,12,7.0,7.0,RX81,6,0.0,0.0,7.0,81.34149293193902,babble-reversed_n13_p256-five-p307-nine-p318-three-p284-eight-p268-one-p248-two.wav,5,RX81,6,0.0,0.0,7.0,90.34149293193904,mgb_normalisation,90.34149293193902,90.34149293193902,3,3.0,True,1.4374852180480957
,2024-07-26 13:47:16,sub_118,3,distance,cathedral,spatial_unmasking,4,127,0,0,_six_,talker-p248_sex-f_text-_six_.wav,p248,f,5,13,7.0,7.0,RX81,6,0.0,0.0,7.0,81.34149293193902,babble-reversed_n13_p229-two-p318-eight-p256-three-p268-one-p248-nine-p284-five.wav,5,RX81,6,0.0,0.0,7.0,90.341492931939,mgb_normalisation,90.34149293193902,90.34149293193902,6,6.0,True,1.0624918937683103
,2024-07-26 13:47:20,sub_118,3,distance,cathedral,spatial_unmasking,4,128,0,0,_three_,talker-p248_sex-f_text-_three_.wav,p248,f,5,14,7.0,7.0,RX81,6,0.0,0.0,7.0,80.341492931939,babble-reversed_n13_p256-eight-p318-two-p307-five-p245-four-p268-nine-p284-one.wav,5,RX81,6,0.0,0.0,7.0,90.34149293193904,mgb_normalisation,90.34149293193902,90.34149293193902,3,3.0,True,1.8124816417694087
,2024-07-26 13:47:24,sub_118,3,distance,cathedral,spatial_unmasking,4,129,0,0,_nine_,talker-p248_sex-f_text-_nine_.wav,p248,f,5,15,7.0,7.0,RX81,6,0.0,0.0,7.0,80.341492931939,babble-reversed_n13_p229-three-p256-nine-p318-five-p248-one-p245-eight-p284-two.wav,5,RX81,6,0.0,0.0,7.0,90.34149293193904,mgb_normalisation,90.34149293193902,90.34149293193902,9,9.0,True,1.3750410079956057
,2024-07-26 13:47:28,sub_118,3,distance,cathedral,spatial_unmasking,4,130,0,0,_six_,talker-p248_sex-f_text-_six_.wav,p248,f,5,16,7.0,7.0,RX81,6,0.0,0.0,7.0,79.34149293193902,babble-reversed_n13_p229-two-p307-five-p318-four-p284-one-p248-nine-p268-eight.wav,5,RX81,6,0.0,0.0,7.0,90.34149293193904,mgb_normalisation,90.34149293193902,90.34149293193902,6,6.0,True,1.3124830722808838
,2024-07-26 13:47:31,sub_118,3,distance,cathedral,spatial_unmasking,4,131,0,0,_two_,talker-p248_sex-f_text-_two_.wav,p248,f,5,17,7.0,7.0,RX81,6,0.0,0.0,7.0,79.34149293193902,babble-reversed_n13_p318-five-p256-nine-p307-eight-p248-two-p245-four-p284-three.wav,5,RX81,6,0.0,0.0,7.0,90.34149293193904,mgb_normalisation,90.34149293193902,90.34149293193902,2,2.0,True,1.1875331401824951
,2024-07-26 13:47:35,sub_118,3,distance,cathedral,spatial_unmasking,4,132,0,0,_five_,talker-p248_sex-f_text-_five_.wav,p248,f,5,18,7.0,7.0,RX81,6,0.0,0.0,7.0,78.341492931939,babble-reversed_n13_p229-eight-p256-nine-p318-four-p245-three-p268-five-p284-two.wav,5,RX81,6,0.0,0.0,7.0,90.341492931939,mgb_normalisation,90.34149293193902,90.34149293193902,5,5.0,True,1.6874830722808838
,2024-07-26 13:47:39,sub_118,3,distance,cathedral,spatial_unmasking,4,133,0,0,_two_,talker-p248_sex-f_text-_two_.wav,p248,f,5,19,7.0,7.0,RX81,6,0.0,0.0,7.0,78.34149293193902,babble-reversed_n13_p256-four-p307-eight-p318-two-p248-three-p284-nine-p268-one.wav,5,RX81,6,0.0,0.0,7.0,90.34149293193904,mgb_normalisation,90.34149293193902,90.34149293193902,2,3.0,False,1.6249845027923584
,2024-07-26 13:47:43,sub_118,3,distance,cathedral,spatial_unmasking,4,134,0,0,_eight_,talker-p248_sex-f_text-_eight_.wav,p248,f,5,20,7.0,7.0,RX81,6,0.0,0.0,7.0,79.34149293193902,babble-reversed_n13_p229-nine-p256-four-p318-three-p268-eight-p248-two-p284-five.wav,5,RX81,6,0.0,0.0,7.0,90.34149293193904,mgb_normalisation,90.34149293193902,90.34149293193902,8,4.0,False,1.624985933303833
,2024-07-26 13:47:48,sub_118,3,distance,cathedral,spatial_unmasking,4,135,0,0,_nine_,talker-p248_sex-f_text-_nine_.wav,p248,f,5,21,7.0,7.0,RX81,6,0.0,0.0,7.0,80.341492931939,babble-reversed_n13_p229-three-p307-one-p318-two-p245-eight-p268-five-p284-four.wav,5,RX81,6,0.0,0.0,7.0,90.34149293193904,mgb_normalisation,90.34149293193902,90.34149293193902,9,9.0,True,3.2499682903289795
,2024-07-26 13:47:54,sub_118,3,distance,cathedral,spatial_unmasking,4,136,0,0,_five_,talker-p248_sex-f_text-_five_.wav,p248,f,5,22,7.0,7.0,RX81,6,0.0,0.0,7.0,80.341492931939,babble-reversed_n13_p307-five-p229-two-p318-four-p248-three-p245-nine-p268-eight.wav,5,RX81,6,0.0,0.0,7.0,90.341492931939,mgb_normalisation,90.34149293193902,90.34149293193902,5,8.0,False,2.937497854232788
,2024-07-26 13:47:57,sub_118,3,distance,cathedral,spatial_unmasking,4,137,0,0,_eight_,talker-p248_sex-f_text-_eight_.wav,p248,f,5,23,7.0,7.0,RX81,6,0.0,0.0,7.0,81.34149293193902,babble-reversed_n13_p229-one-p318-nine-p256-four-p284-eight-p268-five-p245-two.wav,5,RX81,6,0.0,0.0,7.0,90.34149293193904,mgb_normalisation,90.34149293193902,90.34149293193902,8,8.0,True,1.4374866485595703
,2024-07-26 13:48:01,sub_118,3,distance,cathedral,spatial_unmasking,4,138,0,0,_five_,talker-p248_sex-f_text-_five_.wav,p248,f,5,24,7.0,7.0,RX81,6,0.0,0.0,7.0,81.341492931939,babble-reversed_n13_p229-five-p318-two-p307-eight-p268-three-p248-four-p245-one.wav,5,RX81,6,0.0,0.0,7.0,90.34149293193904,mgb_normalisation,90.34149293193902,90.34149293193902,5,5.0,True,1.3124873638153076
,2024-07-26 13:48:05,sub_118,3,distance,cathedral,spatial_unmasking,4,139,0,0,_two_,talker-p248_sex-f_text-_two_.wav,p248,f,5,25,7.0,7.0,RX81,6,0.0,0.0,7.0,80.34149293193903,babble-reversed_n13_p256-two-p307-five-p318-nine-p248-eight-p245-four-p284-one.wav,5,RX81,6,0.0,0.0,7.0,90.34149293193904,mgb_normalisation,90.34149293193902,90.34149293193902,2,2.0,True,1.4999847412109375
,2024-07-26 13:48:10,sub_118,3,distance,cathedral,spatial_unmasking,4,140,0,0,_five_,talker-p248_sex-f_text-_five_.wav,p248,f,5,26,7.0,7.0,RX81,6,0.0,0.0,7.0,80.341492931939,babble-reversed_n13_p229-nine-p307-five-p256-two-p248-three-p245-one-p268-eight.wav,5,RX81,6,0.0,0.0,7.0,90.34149293193904,mgb_normalisation,90.34149293193902,90.34149293193902,5,3.0,False,2.687473058700561
,2024-07-26 13:48:15,sub_118,3,distance,cathedral,spatial_unmasking,4,141,0,0,_five_,talker-p248_sex-f_text-_five_.wav,p248,f,5,27,7.0,7.0,RX81,6,0.0,0.0,7.0,81.341492931939,babble-reversed_n13_p307-nine-p229-one-p256-eight-p248-four-p284-two-p268-three.wav,5,RX81,6,0.0,0.0,7.0,90.34149293193904,mgb_normalisation,90.34149293193902,90.34149293193902,5,8.0,False,2.6874732971191406
,2024-07-26 13:48:19,sub_118,3,distance,cathedral,spatial_unmasking,4,142,0,0,_nine_,talker-p248_sex-f_text-_nine_.wav,p248,f,5,28,7.0,7.0,RX81,6,0.0,0.0,7.0,82.34149293193902,babble-reversed_n13_p307-one-p318-five-p229-four-p268-eight-p284-two-p245-three.wav,5,RX81,6,0.0,0.0,7.0,90.341492931939,mgb_normalisation,90.34149293193902,90.34149293193902,9,9.0,True,1.937480926513672
,2024-07-26 13:48:23,sub_118,3,distance,cathedral,spatial_unmasking,4,143,0,0,_nine_,talker-p248_sex-f_text-_nine_.wav,p248,f,5,29,7.0,7.0,RX81,6,0.0,0.0,7.0,82.34149293193902,babble-reversed_n13_p256-eight-p318-five-p307-four-p245-three-p268-one-p284-nine.wav,5,RX81,6,0.0,0.0,7.0,90.341492931939,mgb_normalisation,90.34149293193902,90.34149293193902,9,9.0,True,1.9374806880950928
,2024-07-26 13:48:27,sub_118,3,distance,cathedral,spatial_unmasking,4,144,0,0,_five_,talker-p248_sex-f_text-_five_.wav,p248,f,5,30,7.0,7.0,RX81,6,0.0,0.0,7.0,81.341492931939,babble-reversed_n13_p256-eight-p318-two-p307-five-p245-four-p268-nine-p284-one.wav,5,RX81,6,0.0,0.0,7.0,90.34149293193904,mgb_normalisation,90.34149293193902,90.34149293193902,5,5.0,True,1.1249885559082031
,2024-07-26 13:48:30,sub_118,3,distance,cathedral,spatial_unmasking,4,145,0,0,_five_,talker-p248_sex-f_text-_five_.wav,p248,f,5,31,7.0,7.0,RX81,6,0.0,0.0,7.0,81.341492931939,babble-reversed_n13_p229-eight-p256-nine-p318-four-p245-three-p268-five-p284-two.wav,5,RX81,6,0.0,0.0,7.0,90.341492931939,mgb_normalisation,90.34149293193902,90.34149293193902,5,5.0,True,1.1874332427978516
,2024-07-26 13:48:33,sub_118,3,distance,cathedral,spatial_unmasking,4,146,0,0,_six_,talker-p248_sex-f_text-_six_.wav,p248,f,5,32,7.0,7.0,RX81,6,0.0,0.0,7.0,80.34149293193903,babble-reversed_n13_p318-nine-p256-five-p307-eight-p268-three-p248-one-p245-four.wav,5,RX81,6,0.0,0.0,7.0,90.34149293193904,mgb_normalisation,90.34149293193902,90.34149293193902,6,6.0,True,1.0504481792449951
,2024-07-26 13:48:37,sub_118,3,distance,cathedral,spatial_unmasking,4,147,0,0,_one_,talker-p248_sex-f_text-_one_.wav,p248,f,5,33,7.0,7.0,RX81,6,0.0,0.0,7.0,80.34149293193903,babble-reversed_n13_p307-four-p318-three-p256-eight-p284-two-p245-nine-p248-five.wav,5,RX81,6,0.0,0.0,7.0,90.341492931939,mgb_normalisation,90.34149293193902,90.34149293193902,1,8.0,False,1.6874840259552002
,2024-07-26 13:48:41,sub_118,3,distance,cathedral,spatial_unmasking,4,148,0,0,_nine_,talker-p248_sex-f_text-_nine_.wav,p248,f,5,34,7.0,7.0,RX81,6,0.0,0.0,7.0,81.34149293193902,babble-reversed_n13_p256-eight-p229-three-p307-nine-p245-five-p248-four-p268-two.wav,5,RX81,6,0.0,0.0,7.0,90.341492931939,mgb_normalisation,90.34149293193902,90.34149293193902,9,8.0,False,1.749983787536621
,2024-07-26 13:48:45,sub_118,3,distance,cathedral,spatial_unmasking,4,149,0,0,_two_,talker-p248_sex-f_text-_two_.wav,p248,f,5,35,7.0,7.0,RX81,6,0.0,0.0,7.0,82.34149293193902,babble-reversed_n13_p256-eight-p229-three-p307-nine-p245-five-p248-four-p268-two.wav,5,RX81,6,0.0,0.0,7.0,90.341492931939,mgb_normalisation,90.34149293193902,90.34149293193902,2,2.0,True,1.374985933303833
,2024-07-26 13:48:49,sub_118,3,distance,cathedral,spatial_unmasking,4,150,0,0,_three_,talker-p248_sex-f_text-_three_.wav,p248,f,5,36,7.0,7.0,RX81,6,0.0,0.0,7.0,82.34149293193902,babble-reversed_n13_p229-nine-p318-one-p307-two-p248-eight-p245-five-p284-four.wav,5,RX81,6,0.0,0.0,7.0,90.34149293193904,mgb_normalisation,90.34149293193902,90.34149293193902,3,3.0,True,1.3749892711639404
,2024-07-26 13:50:03,sub_118,3,distance,cathedral,spatial_unmasking,5,151,0,0,_six_,talker-p248_sex-f_text-_six_.wav,p248,f,5,1,4.0,7.0,RX81,6,0.0,0.0,7.0,92.34149293193902,babble-reversed_n13_p229-one-p318-nine-p256-four-p284-eight-p268-five-p245-two.wav,2,RX81,3,0.0,0.0,4.0,87.57049330475357,mgb_normalisation,87.57049330475357,90.34149293193902,6,6.0,True,1.0624892711639404
,2024-07-26 13:50:06,sub_118,3,distance,cathedral,spatial_unmasking,5,152,0,0,_eight_,talker-p248_sex-f_text-_eight_.wav,p248,f,5,2,4.0,7.0,RX81,6,0.0,0.0,7.0,88.34149293193902,babble-reversed_n13_p229-five-p318-two-p307-eight-p268-three-p248-four-p245-one.wav,2,RX81,3,0.0,0.0,4.0,87.57049330475357,mgb_normalisation,87.57049330475357,90.34149293193902,8,8.0,True,1.0624892711639404
,2024-07-26 13:50:10,sub_118,3,distance,cathedral,spatial_unmasking,5,153,0,0,_eight_,talker-p248_sex-f_text-_eight_.wav,p248,f,5,3,4.0,7.0,RX81,6,0.0,0.0,7.0,84.34149293193903,babble-reversed_n13_p229-nine-p318-one-p307-two-p248-eight-p245-five-p284-four.wav,2,RX81,3,0.0,0.0,4.0,87.57049330475357,mgb_normalisation,87.57049330475357,90.34149293193902,8,8.0,True,1.1250314712524414
,2024-07-26 13:50:13,sub_118,3,distance,cathedral,spatial_unmasking,5,154,0,0,_four_,talker-p248_sex-f_text-_four_.wav,p248,f,5,4,4.0,7.0,RX81,6,0.0,0.0,7.0,80.341492931939,babble-reversed_n13_p256-four-p307-eight-p318-two-p248-three-p284-nine-p268-one.wav,2,RX81,3,0.0,0.0,4.0,87.57049330475357,mgb_normalisation,87.57049330475357,90.34149293193902,4,3.0,False,0.9999902248382568
,2024-07-26 13:50:17,sub_118,3,distance,cathedral,spatial_unmasking,5,155,0,0,_three_,talker-p248_sex-f_text-_three_.wav,p248,f,5,5,4.0,7.0,RX81,6,0.0,0.0,7.0,82.34149293193902,babble-reversed_n13_p256-eight-p318-two-p307-five-p245-four-p268-nine-p284-one.wav,2,RX81,3,0.0,0.0,4.0,87.57049330475357,mgb_normalisation,87.57049330475357,90.34149293193902,3,3.0,True,1.2499885559082031
,2024-07-26 13:50:20,sub_118,3,distance,cathedral,spatial_unmasking,5,156,0,0,_two_,talker-p248_sex-f_text-_two_.wav,p248,f,5,6,4.0,7.0,RX81,6,0.0,0.0,7.0,82.34149293193902,babble-reversed_n13_p256-five-p229-one-p318-three-p248-nine-p284-eight-p268-two.wav,2,RX81,3,0.0,0.0,4.0,87.57049330475357,mgb_normalisation,87.57049330475357,90.34149293193902,2,2.0,True,0.999990701675415
,2024-07-26 13:50:24,sub_118,3,distance,cathedral,spatial_unmasking,5,157,0,0,_three_,talker-p248_sex-f_text-_three_.wav,p248,f,5,7,4.0,7.0,RX81,6,0.0,0.0,7.0,80.341492931939,babble-reversed_n13_p229-five-p256-one-p318-three-p248-nine-p268-four-p284-eight.wav,2,RX81,3,0.0,0.0,4.0,87.57049330475355,mgb_normalisation,87.57049330475357,90.34149293193902,3,3.0,True,1.1249892711639404
,2024-07-26 13:50:30,sub_118,3,distance,cathedral,spatial_unmasking,5,158,0,0,_four_,talker-p248_sex-f_text-_four_.wav,p248,f,5,8,4.0,7.0,RX81,6,0.0,0.0,7.0,80.341492931939,babble-reversed_n13_p256-three-p318-two-p229-nine-p248-four-p284-one-p268-eight.wav,2,RX81,3,0.0,0.0,4.0,87.57049330475355,mgb_normalisation,87.57049330475357,90.34149293193902,4,4.0,True,3.62493634223938
,2024-07-26 13:50:35,sub_118,3,distance,cathedral,spatial_unmasking,5,159,0,0,_three_,talker-p248_sex-f_text-_three_.wav,p248,f,5,9,4.0,7.0,RX81,6,0.0,0.0,7.0,78.34149293193902,babble-reversed_n13_p307-five-p229-two-p318-four-p248-three-p245-nine-p268-eight.wav,2,RX81,3,0.0,0.0,4.0,87.57049330475355,mgb_normalisation,87.57049330475357,90.34149293193902,3,3.0,True,2.5624115467071533
,2024-07-26 13:50:41,sub_118,3,distance,cathedral,spatial_unmasking,5,160,0,0,_eight_,talker-p248_sex-f_text-_eight_.wav,p248,f,5,10,4.0,7.0,RX81,6,0.0,0.0,7.0,78.34149293193902,babble-reversed_n13_p256-five-p229-one-p318-three-p248-nine-p284-eight-p268-two.wav,2,RX81,3,0.0,0.0,4.0,87.57049330475357,mgb_normalisation,87.57049330475357,90.34149293193902,8,4.0,False,4.187485933303833
,2024-07-26 13:50:45,sub_118,3,distance,cathedral,spatial_unmasking,5,161,0,0,_three_,talker-p248_sex-f_text-_three_.wav,p248,f,5,11,4.0,7.0,RX81,6,0.0,0.0,7.0,79.341492931939,babble-reversed_n13_p256-eight-p229-three-p307-nine-p245-five-p248-four-p268-two.wav,2,RX81,3,0.0,0.0,4.0,87.57049330475355,mgb_normalisation,87.57049330475357,90.34149293193902,3,3.0,True,1.3124873638153076
,2024-07-26 13:50:49,sub_118,3,distance,cathedral,spatial_unmasking,5,162,0,0,_eight_,talker-p248_sex-f_text-_eight_.wav,p248,f,5,12,4.0,7.0,RX81,6,0.0,0.0,7.0,79.34149293193902,babble-reversed_n13_p229-one-p318-eight-p256-three-p268-nine-p248-five-p284-four.wav,2,RX81,3,0.0,0.0,4.0,87.57049330475357,mgb_normalisation,87.57049330475357,90.34149293193902,8,4.0,False,1.812482118606568
,2024-07-26 13:50:53,sub_118,3,distance,cathedral,spatial_unmasking,5,163,0,0,_two_,talker-p248_sex-f_text-_two_.wav,p248,f,5,13,4.0,7.0,RX81,6,0.0,0.0,7.0,80.34149293193903,babble-reversed_n13_p229-three-p307-one-p318-two-p245-eight-p268-five-p284-four.wav,2,RX81,3,0.0,0.0,4.0,87.57049330475357,mgb_normalisation,87.57049330475357,90.34149293193902,2,2.0,True,1.0624895095825195
,2024-07-26 13:50:56,sub_118,3,distance,cathedral,spatial_unmasking,5,164,0,0,_three_,talker-p248_sex-f_text-_three_.wav,p248,f,5,14,4.0,7.0,RX81,6,0.0,0.0,7.0,80.341492931939,babble-reversed_n13_p256-five-p229-one-p318-three-p248-nine-p284-eight-p268-two.wav,2,RX81,3,0.0,0.0,4.0,87.57049330475357,mgb_normalisation,87.57049330475357,90.34149293193902,3,3.0,True,1.0624656677246094
,2024-07-26 13:51:00,sub_118,3,distance,cathedral,spatial_unmasking,5,165,0,0,_one_,talker-p248_sex-f_text-_one_.wav,p248,f,5,15,4.0,7.0,RX81,6,0.0,0.0,7.0,79.34149293193902,babble-reversed_n13_p229-five-p318-three-p307-two-p245-four-p284-nine-p248-eight.wav,2,RX81,3,0.0,0.0,4.0,87.57049330475357,mgb_normalisation,87.57049330475357,90.34149293193902,1,1.0,True,1.1874878406524658
,2024-07-26 13:51:04,sub_118,3,distance,cathedral,spatial_unmasking,5,166,0,0,_eight_,talker-p248_sex-f_text-_eight_.wav,p248,f,5,16,4.0,7.0,RX81,6,0.0,0.0,7.0,79.34149293193902,babble-reversed_n13_p256-five-p229-one-p318-three-p248-nine-p284-eight-p268-two.wav,2,RX81,3,0.0,0.0,4.0,87.57049330475357,mgb_normalisation,87.57049330475357,90.34149293193902,8,8.0,True,2.062506437301636
,2024-07-26 13:51:08,sub_118,3,distance,cathedral,spatial_unmasking,5,167,0,0,_four_,talker-p248_sex-f_text-_four_.wav,p248,f,5,17,4.0,7.0,RX81,6,0.0,0.0,7.0,78.34149293193902,babble-reversed_n13_p318-three-p229-one-p256-eight-p245-five-p248-four-p284-nine.wav,2,RX81,3,0.0,0.0,4.0,87.57049330475357,mgb_normalisation,87.57049330475357,90.34149293193902,4,8.0,False,1.750046730041504
,2024-07-26 13:51:12,sub_118,3,distance,cathedral,spatial_unmasking,5,168,0,0,_three_,talker-p248_sex-f_text-_three_.wav,p248,f,5,18,4.0,7.0,RX81,6,0.0,0.0,7.0,79.341492931939,babble-reversed_n13_p229-five-p318-two-p307-eight-p268-three-p248-four-p245-one.wav,2,RX81,3,0.0,0.0,4.0,87.57049330475357,mgb_normalisation,87.57049330475357,90.34149293193902,3,3.0,True,1.3125402927398682
,2024-07-26 13:51:16,sub_118,3,distance,cathedral,spatial_unmasking,5,169,0,0,_six_,talker-p248_sex-f_text-_six_.wav,p248,f,5,19,4.0,7.0,RX81,6,0.0,0.0,7.0,79.34149293193902,babble-reversed_n13_p318-three-p307-one-p256-five-p248-nine-p245-two-p284-eight.wav,2,RX81,3,0.0,0.0,4.0,87.57049330475357,mgb_normalisation,87.57049330475357,90.34149293193902,6,6.0,True,0.9999902248382568
,2024-07-26 13:51:19,sub_118,3,distance,cathedral,spatial_unmasking,5,170,0,0,_two_,talker-p248_sex-f_text-_two_.wav,p248,f,5,20,4.0,7.0,RX81,6,0.0,0.0,7.0,78.34149293193902,babble-reversed_n13_p256-four-p307-eight-p318-two-p248-three-p284-nine-p268-one.wav,2,RX81,3,0.0,0.0,4.0,87.57049330475357,mgb_normalisation,87.57049330475357,90.34149293193902,2,3.0,False,1.1249887943267822
,2024-07-26 13:51:23,sub_118,3,distance,cathedral,spatial_unmasking,5,171,0,0,_five_,talker-p248_sex-f_text-_five_.wav,p248,f,5,21,4.0,7.0,RX81,6,0.0,0.0,7.0,79.341492931939,babble-reversed_n13_p307-five-p229-two-p318-four-p248-three-p245-nine-p268-eight.wav,2,RX81,3,0.0,0.0,4.0,87.57049330475355,mgb_normalisation,87.57049330475357,90.34149293193902,5,8.0,False,1.4375360012054443
,2024-07-26 13:51:27,sub_118,3,distance,cathedral,spatial_unmasking,5,172,0,0,_two_,talker-p248_sex-f_text-_two_.wav,p248,f,5,22,4.0,7.0,RX81,6,0.0,0.0,7.0,80.34149293193903,babble-reversed_n13_p318-five-p229-three-p256-four-p268-eight-p248-one-p245-nine.wav,2,RX81,3,0.0,0.0,4.0,87.57049330475357,mgb_normalisation,87.57049330475357,90.34149293193902,2,2.0,True,1.1874947547912598
,2024-07-26 13:51:31,sub_118,3,distance,cathedral,spatial_unmasking,5,173,0,0,_eight_,talker-p248_sex-f_text-_eight_.wav,p248,f,5,23,4.0,7.0,RX81,6,0.0,0.0,7.0,80.34149293193903,babble-reversed_n13_p256-four-p229-two-p318-five-p268-one-p248-eight-p245-three.wav,2,RX81,3,0.0,0.0,4.0,87.57049330475355,mgb_normalisation,87.57049330475357,90.34149293193902,8,8.0,True,1.7499754428863523
,2024-07-26 13:51:35,sub_118,3,distance,cathedral,spatial_unmasking,5,174,0,0,_eight_,talker-p248_sex-f_text-_eight_.wav,p248,f,5,24,4.0,7.0,RX81,6,0.0,0.0,7.0,79.34149293193902,babble-reversed_n13_p256-three-p318-one-p307-two-p284-nine-p268-four-p245-eight.wav,2,RX81,3,0.0,0.0,4.0,87.57049330475357,mgb_normalisation,87.57049330475357,90.34149293193902,8,3.0,False,1.6250340938568115
,2024-07-26 13:51:39,sub_118,3,distance,cathedral,spatial_unmasking,5,175,0,0,_five_,talker-p248_sex-f_text-_five_.wav,p248,f,5,25,4.0,7.0,RX81,6,0.0,0.0,7.0,80.341492931939,babble-reversed_n13_p229-five-p318-two-p307-eight-p268-three-p248-four-p245-one.wav,2,RX81,3,0.0,0.0,4.0,87.57049330475357,mgb_normalisation,87.57049330475357,90.34149293193902,5,5.0,True,1.562485933303833
,2024-07-26 13:51:43,sub_118,3,distance,cathedral,spatial_unmasking,5,176,0,0,_nine_,talker-p248_sex-f_text-_nine_.wav,p248,f,5,26,4.0,7.0,RX81,6,0.0,0.0,7.0,80.341492931939,babble-reversed_n13_p229-two-p318-eight-p256-three-p268-one-p248-nine-p284-five.wav,2,RX81,3,0.0,0.0,4.0,87.57049330475355,mgb_normalisation,87.57049330475357,90.34149293193902,9,1.0,False,1.7499830722808838
,2024-07-26 13:51:48,sub_118,3,distance,cathedral,spatial_unmasking,5,177,0,0,_eight_,talker-p248_sex-f_text-_eight_.wav,p248,f,5,27,4.0,7.0,RX81,6,0.0,0.0,7.0,81.34149293193902,babble-reversed_n13_p229-three-p256-one-p307-two-p284-eight-p268-five-p248-nine.wav,2,RX81,3,0.0,0.0,4.0,87.57049330475357,mgb_normalisation,87.57049330475357,90.34149293193902,8,8.0,True,2.2499783039093018
,2024-07-26 13:51:52,sub_118,3,distance,cathedral,spatial_unmasking,5,178,0,0,_nine_,talker-p248_sex-f_text-_nine_.wav,p248,f,5,28,4.0,7.0,RX81,6,0.0,0.0,7.0,81.34149293193902,babble-reversed_n13_p318-five-p229-three-p256-four-p268-eight-p248-one-p245-nine.wav,2,RX81,3,0.0,0.0,4.0,87.57049330475357,mgb_normalisation,87.57049330475357,90.34149293193902,9,9.0,True,1.93748140335083
,2024-07-26 13:51:55,sub_118,3,distance,cathedral,spatial_unmasking,5,179,0,0,_five_,talker-p248_sex-f_text-_five_.wav,p248,f,5,29,4.0,7.0,RX81,6,0.0,0.0,7.0,80.341492931939,babble-reversed_n13_p229-five-p256-one-p318-three-p248-nine-p268-four-p284-eight.wav,2,RX81,3,0.0,0.0,4.0,87.57049330475355,mgb_normalisation,87.57049330475357,90.34149293193902,5,5.0,True,1.1249887943267822
,2024-07-26 13:52:00,sub_118,3,distance,cathedral,spatial_unmasking,5,180,0,0,_three_,talker-p248_sex-f_text-_three_.wav,p248,f,5,30,4.0,7.0,RX81,6,0.0,0.0,7.0,80.341492931939,babble-reversed_n13_p256-five-p229-one-p318-three-p248-nine-p284-eight-p268-two.wav,2,RX81,3,0.0,0.0,4.0,87.57049330475357,mgb_normalisation,87.57049330475357,90.34149293193902,3,3.0,True,1.87498140335083
,2024-07-26 13:52:04,sub_118,3,distance,cathedral,spatial_unmasking,5,181,0,0,_five_,talker-p248_sex-f_text-_five_.wav,p248,f,5,31,4.0,7.0,RX81,6,0.0,0.0,7.0,79.341492931939,babble-reversed_n13_p256-four-p229-eight-p307-five-p248-three-p245-one-p284-two.wav,2,RX81,3,0.0,0.0,4.0,87.57049330475355,mgb_normalisation,87.57049330475357,90.34149293193902,5,1.0,False,2.3749773502349854
,2024-07-26 13:52:08,sub_118,3,distance,cathedral,spatial_unmasking,5,182,0,0,_five_,talker-p248_sex-f_text-_five_.wav,p248,f,5,32,4.0,7.0,RX81,6,0.0,0.0,7.0,80.341492931939,babble-reversed_n13_p229-nine-p318-one-p307-two-p248-eight-p245-five-p284-four.wav,2,RX81,3,0.0,0.0,4.0,87.57049330475357,mgb_normalisation,87.57049330475357,90.34149293193902,5,5.0,True,1.249988079071045
,2024-07-26 13:52:12,sub_118,3,distance,cathedral,spatial_unmasking,5,183,0,0,_two_,talker-p248_sex-f_text-_two_.wav,p248,f,5,33,4.0,7.0,RX81,6,0.0,0.0,7.0,80.34149293193903,babble-reversed_n13_p229-nine-p318-one-p307-two-p248-eight-p245-five-p284-four.wav,2,RX81,3,0.0,0.0,4.0,87.57049330475357,mgb_normalisation,87.57049330475357,90.34149293193902,2,2.0,True,1.062490940093994
,2024-07-26 13:53:11,sub_118,3,distance,cathedral,spatial_unmasking,6,184,0,0,_nine_,talker-p248_sex-f_text-_nine_.wav,p248,f,5,1,8.0,7.0,RX81,6,0.0,0.0,7.0,92.34149293193902,babble-reversed_n13_p318-nine-p307-eight-p229-two-p284-one-p248-three-p245-five.wav,6,RX81,7,0.0,0.0,8.0,91.58892582949886,mgb_normalisation,91.58892582949886,90.34149293193902,9,9.0,True,1.124989032745361
,2024-07-26 13:53:14,sub_118,3,distance,cathedral,spatial_unmasking,6,185,0,0,_two_,talker-p248_sex-f_text-_two_.wav,p248,f,5,2,8.0,7.0,RX81,6,0.0,0.0,7.0,88.34149293193903,babble-reversed_n13_p256-eight-p318-five-p307-four-p245-three-p268-one-p284-nine.wav,6,RX81,7,0.0,0.0,8.0,91.58892582949886,mgb_normalisation,91.58892582949886,90.34149293193902,2,2.0,True,1.0624823570251465
,2024-07-26 13:53:18,sub_118,3,distance,cathedral,spatial_unmasking,6,186,0,0,_six_,talker-p248_sex-f_text-_six_.wav,p248,f,5,3,8.0,7.0,RX81,6,0.0,0.0,7.0,84.341492931939,babble-reversed_n13_p318-four-p256-five-p229-three-p284-one-p245-eight-p248-nine.wav,6,RX81,7,0.0,0.0,8.0,91.58892582949888,mgb_normalisation,91.58892582949886,90.34149293193902,6,6.0,True,1.187488317489624
,2024-07-26 13:53:21,sub_118,3,distance,cathedral,spatial_unmasking,6,187,0,0,_three_,talker-p248_sex-f_text-_three_.wav,p248,f,5,4,8.0,7.0,RX81,6,0.0,0.0,7.0,80.341492931939,babble-reversed_n13_p256-four-p307-eight-p318-two-p248-three-p284-nine-p268-one.wav,6,RX81,7,0.0,0.0,8.0,91.58892582949888,mgb_normalisation,91.58892582949886,90.34149293193902,3,3.0,True,1.1249876022338867
,2024-07-26 13:53:25,sub_118,3,distance,cathedral,spatial_unmasking,6,188,0,0,_one_,talker-p248_sex-f_text-_one_.wav,p248,f,5,5,8.0,7.0,RX81,6,0.0,0.0,7.0,76.34149293193902,babble-reversed_n13_p229-five-p256-three-p318-nine-p248-two-p284-four-p268-one.wav,6,RX81,7,0.0,0.0,8.0,91.58892582949888,mgb_normalisation,91.58892582949886,90.34149293193902,1,1.0,True,1.624983787536621
,2024-07-26 13:53:30,sub_118,3,distance,cathedral,spatial_unmasking,6,189,0,0,_four_,talker-p248_sex-f_text-_four_.wav,p248,f,5,6,8.0,7.0,RX81,6,0.0,0.0,7.0,72.34149293193902,babble-reversed_n13_p318-three-p229-one-p256-eight-p245-five-p248-four-p284-nine.wav,6,RX81,7,0.0,0.0,8.0,91.58892582949888,mgb_normalisation,91.58892582949886,90.34149293193902,4,8.0,False,2.062537908554077
,2024-07-26 13:53:34,sub_118,3,distance,cathedral,spatial_unmasking,6,190,0,0,_one_,talker-p248_sex-f_text-_one_.wav,p248,f,5,7,8.0,7.0,RX81,6,0.0,0.0,7.0,74.34149293193902,babble-reversed_n13_p256-eight-p318-two-p307-five-p245-four-p268-nine-p284-one.wav,6,RX81,7,0.0,0.0,8.0,91.58892582949888,mgb_normalisation,91.58892582949886,90.34149293193902,1,4.0,False,2.124978542327881
,2024-07-26 13:53:38,sub_118,3,distance,cathedral,spatial_unmasking,6,191,0,0,_eight_,talker-p248_sex-f_text-_eight_.wav,p248,f,5,8,8.0,7.0,RX81,6,0.0,0.0,7.0,76.34149293193902,babble-reversed_n13_p256-nine-p307-four-p229-one-p284-three-p248-two-p245-five.wav,6,RX81,7,0.0,0.0,8.0,91.58892582949888,mgb_normalisation,91.58892582949886,90.34149293193902,8,8.0,True,1.3749873638153076
,2024-07-26 13:53:42,sub_118,3,distance,cathedral,spatial_unmasking,6,192,0,0,_nine_,talker-p248_sex-f_text-_nine_.wav,p248,f,5,9,8.0,7.0,RX81,6,0.0,0.0,7.0,76.34149293193902,babble-reversed_n13_p256-five-p229-one-p318-three-p248-nine-p284-eight-p268-two.wav,6,RX81,7,0.0,0.0,8.0,91.58892582949888,mgb_normalisation,91.58892582949886,90.34149293193902,9,9.0,True,0.9999892711639404
,2024-07-26 13:53:46,sub_118,3,distance,cathedral,spatial_unmasking,6,193,0,0,_two_,talker-p248_sex-f_text-_two_.wav,p248,f,5,10,8.0,7.0,RX81,6,0.0,0.0,7.0,74.34149293193902,babble-reversed_n13_p229-two-p256-three-p318-eight-p284-five-p268-four-p245-one.wav,6,RX81,7,0.0,0.0,8.0,91.58892582949888,mgb_normalisation,91.58892582949886,90.34149293193902,2,2.0,True,1.999979972839356
,2024-07-26 13:53:51,sub_118,3,distance,cathedral,spatial_unmasking,6,194,0,0,_five_,talker-p248_sex-f_text-_five_.wav,p248,f,5,11,8.0,7.0,RX81,6,0.0,0.0,7.0,74.341492931939,babble-reversed_n13_p229-one-p318-nine-p256-four-p284-eight-p268-five-p245-two.wav,6,RX81,7,0.0,0.0,8.0,91.58892582949886,mgb_normalisation,91.58892582949886,90.34149293193902,5,5.0,True,2.3750035762786865
,2024-07-26 13:53:54,sub_118,3,distance,cathedral,spatial_unmasking,6,195,0,0,_six_,talker-p248_sex-f_text-_six_.wav,p248,f,5,12,8.0,7.0,RX81,6,0.0,0.0,7.0,72.34149293193902,babble-reversed_n13_p256-five-p229-one-p318-three-p248-nine-p284-eight-p268-two.wav,6,RX81,7,0.0,0.0,8.0,91.58892582949888,mgb_normalisation,91.58892582949886,90.34149293193902,6,6.0,True,1.1875288486480713
,2024-07-26 13:53:58,sub_118,3,distance,cathedral,spatial_unmasking,6,196,0,0,_nine_,talker-p248_sex-f_text-_nine_.wav,p248,f,5,13,8.0,7.0,RX81,6,0.0,0.0,7.0,72.34149293193902,babble-reversed_n13_p256-nine-p307-four-p229-one-p284-three-p248-two-p245-five.wav,6,RX81,7,0.0,0.0,8.0,91.58892582949888,mgb_normalisation,91.58892582949886,90.34149293193902,9,8.0,False,1.74998140335083
,2024-07-26 13:54:03,sub_118,3,distance,cathedral,spatial_unmasking,6,197,0,0,_five_,talker-p248_sex-f_text-_five_.wav,p248,f,5,14,8.0,7.0,RX81,6,0.0,0.0,7.0,73.341492931939,babble-reversed_n13_p307-five-p229-two-p318-four-p248-three-p245-nine-p268-eight.wav,6,RX81,7,0.0,0.0,8.0,91.58892582949886,mgb_normalisation,91.58892582949886,90.34149293193902,5,8.0,False,1.93748140335083
,2024-07-26 13:54:07,sub_118,3,distance,cathedral,spatial_unmasking,6,198,0,0,_three_,talker-p248_sex-f_text-_three_.wav,p248,f,5,15,8.0,7.0,RX81,6,0.0,0.0,7.0,74.34149293193902,babble-reversed_n13_p229-one-p318-eight-p256-three-p268-two-p245-five-p248-nine.wav,6,RX81,7,0.0,0.0,8.0,91.58892582949886,mgb_normalisation,91.58892582949886,90.34149293193902,3,1.0,False,2.187479257583618
,2024-07-26 13:54:12,sub_118,3,distance,cathedral,spatial_unmasking,6,199,0,0,_nine_,talker-p248_sex-f_text-_nine_.wav,p248,f,5,16,8.0,7.0,RX81,6,0.0,0.0,7.0,75.34149293193902,babble-reversed_n13_p256-four-p229-eight-p307-five-p248-three-p245-one-p284-two.wav,6,RX81,7,0.0,0.0,8.0,91.58892582949886,mgb_normalisation,91.58892582949886,90.34149293193902,9,3.0,False,2.12497878074646
,2024-07-26 13:54:15,sub_118,3,distance,cathedral,spatial_unmasking,6,200,0,0,_six_,talker-p248_sex-f_text-_six_.wav,p248,f,5,17,8.0,7.0,RX81,6,0.0,0.0,7.0,76.34149293193902,babble-reversed_n13_p256-nine-p307-four-p229-one-p284-three-p248-two-p245-five.wav,6,RX81,7,0.0,0.0,8.0,91.58892582949888,mgb_normalisation,91.58892582949886,90.34149293193902,6,6.0,True,1.0624887943267822
,2024-07-26 13:54:20,sub_118,3,distance,cathedral,spatial_unmasking,6,201,0,0,_two_,talker-p248_sex-f_text-_two_.wav,p248,f,5,18,8.0,7.0,RX81,6,0.0,0.0,7.0,76.34149293193902,babble-reversed_n13_p318-nine-p256-five-p307-eight-p268-three-p248-one-p245-four.wav,6,RX81,7,0.0,0.0,8.0,91.58892582949888,mgb_normalisation,91.58892582949886,90.34149293193902,2,2.0,True,2.374919176101685
,2024-07-26 13:54:24,sub_118,3,distance,cathedral,spatial_unmasking,6,202,0,0,_one_,talker-p248_sex-f_text-_one_.wav,p248,f,5,19,8.0,7.0,RX81,6,0.0,0.0,7.0,75.34149293193903,babble-reversed_n13_p229-nine-p307-five-p256-two-p248-three-p245-one-p268-eight.wav,6,RX81,7,0.0,0.0,8.0,91.58892582949886,mgb_normalisation,91.58892582949886,90.34149293193902,1,3.0,False,1.124988317489624
,2024-07-26 13:54:27,sub_118,3,distance,cathedral,spatial_unmasking,6,203,0,0,_nine_,talker-p248_sex-f_text-_nine_.wav,p248,f,5,20,8.0,7.0,RX81,6,0.0,0.0,7.0,76.34149293193902,babble-reversed_n13_p307-five-p229-two-p318-four-p248-three-p245-nine-p268-eight.wav,6,RX81,7,0.0,0.0,8.0,91.58892582949886,mgb_normalisation,91.58892582949886,90.34149293193902,9,3.0,False,0.937490701675415
,2024-07-26 13:54:32,sub_118,3,distance,cathedral,spatial_unmasking,6,204,0,0,_five_,talker-p248_sex-f_text-_five_.wav,p248,f,5,21,8.0,7.0,RX81,6,0.0,0.0,7.0,77.341492931939,babble-reversed_n13_p229-five-p318-two-p307-eight-p268-three-p248-four-p245-one.wav,6,RX81,7,0.0,0.0,8.0,91.58892582949888,mgb_normalisation,91.58892582949886,90.34149293193902,5,4.0,False,2.562474012374878
,2024-07-26 13:54:36,sub_118,3,distance,cathedral,spatial_unmasking,6,205,0,0,_one_,talker-p248_sex-f_text-_one_.wav,p248,f,5,22,8.0,7.0,RX81,6,0.0,0.0,7.0,78.34149293193902,babble-reversed_n13_p307-two-p256-four-p318-three-p284-eight-p248-five-p245-nine.wav,6,RX81,7,0.0,0.0,8.0,91.58892582949888,mgb_normalisation,91.58892582949886,90.34149293193902,1,8.0,False,1.4374854564666748
,2024-07-26 13:54:40,sub_118,3,distance,cathedral,spatial_unmasking,6,206,0,0,_nine_,talker-p248_sex-f_text-_nine_.wav,p248,f,5,23,8.0,7.0,RX81,6,0.0,0.0,7.0,79.341492931939,babble-reversed_n13_p229-five-p318-two-p307-eight-p268-three-p248-four-p245-one.wav,6,RX81,7,0.0,0.0,8.0,91.58892582949888,mgb_normalisation,91.58892582949886,90.34149293193902,9,4.0,False,2.31247615814209
,2024-07-26 13:54:44,sub_118,3,distance,cathedral,spatial_unmasking,6,207,0,0,_five_,talker-p248_sex-f_text-_five_.wav,p248,f,5,24,8.0,7.0,RX81,6,0.0,0.0,7.0,80.341492931939,babble-reversed_n13_p256-eight-p318-two-p307-five-p245-four-p268-nine-p284-one.wav,6,RX81,7,0.0,0.0,8.0,91.58892582949888,mgb_normalisation,91.58892582949886,90.34149293193902,5,5.0,True,1.1874878406524658
,2024-07-26 13:54:48,sub_118,3,distance,cathedral,spatial_unmasking,6,208,0,0,_six_,talker-p248_sex-f_text-_six_.wav,p248,f,5,25,8.0,7.0,RX81,6,0.0,0.0,7.0,80.34149293193903,babble-reversed_n13_p229-eight-p256-nine-p318-four-p245-three-p268-five-p284-two.wav,6,RX81,7,0.0,0.0,8.0,91.58892582949886,mgb_normalisation,91.58892582949886,90.34149293193902,6,6.0,True,1.3124866485595703
,2024-07-26 13:54:51,sub_118,3,distance,cathedral,spatial_unmasking,6,209,0,0,_six_,talker-p248_sex-f_text-_six_.wav,p248,f,5,26,8.0,7.0,RX81,6,0.0,0.0,7.0,79.34149293193902,babble-reversed_n13_p256-five-p229-one-p318-three-p248-nine-p284-eight-p268-two.wav,6,RX81,7,0.0,0.0,8.0,91.58892582949888,mgb_normalisation,91.58892582949886,90.34149293193902,6,6.0,True,0.9374899864196776
,2024-07-26 13:54:55,sub_118,3,distance,cathedral,spatial_unmasking,6,210,0,0,_eight_,talker-p248_sex-f_text-_eight_.wav,p248,f,5,27,8.0,7.0,RX81,6,0.0,0.0,7.0,79.34149293193902,babble-reversed_n13_p229-two-p256-three-p318-eight-p284-five-p268-four-p245-one.wav,6,RX81,7,0.0,0.0,8.0,91.58892582949888,mgb_normalisation,91.58892582949886,90.34149293193902,8,8.0,True,1.4999849796295166
,2024-07-26 13:54:58,sub_118,3,distance,cathedral,spatial_unmasking,6,211,0,0,_six_,talker-p248_sex-f_text-_six_.wav,p248,f,5,28,8.0,7.0,RX81,6,0.0,0.0,7.0,78.34149293193902,babble-reversed_n13_p256-three-p318-one-p307-two-p284-nine-p268-four-p245-eight.wav,6,RX81,7,0.0,0.0,8.0,91.58892582949888,mgb_normalisation,91.58892582949886,90.34149293193902,6,6.0,True,1.0000510215759275
,2024-07-26 13:55:02,sub_118,3,distance,cathedral,spatial_unmasking,6,212,0,0,_two_,talker-p248_sex-f_text-_two_.wav,p248,f,5,29,8.0,7.0,RX81,6,0.0,0.0,7.0,78.34149293193902,babble-reversed_n13_p229-two-p318-eight-p256-three-p268-one-p248-nine-p284-five.wav,6,RX81,7,0.0,0.0,8.0,91.58892582949886,mgb_normalisation,91.58892582949886,90.34149293193902,2,2.0,True,1.3749864101409912
,2024-07-26 13:55:09,sub_118,3,distance,cathedral,spatial_unmasking,6,213,0,0,_eight_,talker-p248_sex-f_text-_eight_.wav,p248,f,5,30,8.0,7.0,RX81,6,0.0,0.0,7.0,77.34149293193903,babble-reversed_n13_p318-five-p229-three-p256-four-p268-eight-p248-one-p245-nine.wav,6,RX81,7,0.0,0.0,8.0,91.58892582949888,mgb_normalisation,91.58892582949886,90.34149293193902,8,4.0,False,4.187458753585815
,2024-07-26 13:55:12,sub_118,3,distance,cathedral,spatial_unmasking,6,214,0,0,_nine_,talker-p248_sex-f_text-_nine_.wav,p248,f,5,31,8.0,7.0,RX81,6,0.0,0.0,7.0,78.34149293193902,babble-reversed_n13_p256-three-p318-two-p229-nine-p248-four-p284-one-p268-eight.wav,6,RX81,7,0.0,0.0,8.0,91.58892582949886,mgb_normalisation,91.58892582949886,90.34149293193902,9,3.0,False,1.187488317489624
,2024-07-26 13:55:16,sub_118,3,distance,cathedral,spatial_unmasking,6,215,0,0,_one_,talker-p248_sex-f_text-_one_.wav,p248,f,5,32,8.0,7.0,RX81,6,0.0,0.0,7.0,79.34149293193902,babble-reversed_n13_p307-five-p229-two-p318-four-p248-three-p245-nine-p268-eight.wav,6,RX81,7,0.0,0.0,8.0,91.58892582949886,mgb_normalisation,91.58892582949886,90.34149293193902,1,3.0,False,1.4999845027923584
,2024-07-26 13:55:20,sub_118,3,distance,cathedral,spatial_unmasking,6,216,0,0,_eight_,talker-p248_sex-f_text-_eight_.wav,p248,f,5,33,8.0,7.0,RX81,6,0.0,0.0,7.0,80.34149293193903,babble-reversed_n13_p318-four-p256-five-p229-three-p284-one-p245-eight-p248-nine.wav,6,RX81,7,0.0,0.0,8.0,91.58892582949888,mgb_normalisation,91.58892582949886,90.34149293193902,8,8.0,True,1.6249303817749023
,2024-07-26 13:55:24,sub_118,3,distance,cathedral,spatial_unmasking,6,217,0,0,_five_,talker-p248_sex-f_text-_five_.wav,p248,f,5,34,8.0,7.0,RX81,6,0.0,0.0,7.0,80.341492931939,babble-reversed_n13_p256-eight-p229-three-p307-nine-p245-five-p248-four-p268-two.wav,6,RX81,7,0.0,0.0,8.0,91.58892582949886,mgb_normalisation,91.58892582949886,90.34149293193902,5,8.0,False,1.8124818801879885
,2024-07-26 13:55:28,sub_118,3,distance,cathedral,spatial_unmasking,6,218,0,0,_five_,talker-p248_sex-f_text-_five_.wav,p248,f,5,35,8.0,7.0,RX81,6,0.0,0.0,7.0,81.341492931939,babble-reversed_n13_p229-five-p256-one-p318-three-p248-nine-p268-four-p284-eight.wav,6,RX81,7,0.0,0.0,8.0,91.58892582949886,mgb_normalisation,91.58892582949886,90.34149293193902,5,5.0,True,1.1874873638153076
,2024-07-26 13:55:32,sub_118,3,distance,cathedral,spatial_unmasking,6,219,0,0,_one_,talker-p248_sex-f_text-_one_.wav,p248,f,5,36,8.0,7.0,RX81,6,0.0,0.0,7.0,81.34149293193902,babble-reversed_n13_p318-nine-p307-eight-p229-two-p284-one-p248-three-p245-five.wav,6,RX81,7,0.0,0.0,8.0,91.58892582949886,mgb_normalisation,91.58892582949886,90.34149293193902,1,1.0,True,1.624983549118042
,2024-07-26 13:55:36,sub_118,3,distance,cathedral,spatial_unmasking,6,220,0,0,_two_,talker-p248_sex-f_text-_two_.wav,p248,f,5,37,8.0,7.0,RX81,6,0.0,0.0,7.0,80.34149293193903,babble-reversed_n13_p318-five-p229-four-p256-eight-p284-one-p245-three-p248-two.wav,6,RX81,7,0.0,0.0,8.0,91.58892582949888,mgb_normalisation,91.58892582949886,90.34149293193902,2,2.0,True,1.2499864101409912
,2024-07-26 13:55:40,sub_118,3,distance,cathedral,spatial_unmasking,6,221,0,0,_one_,talker-p248_sex-f_text-_one_.wav,p248,f,5,38,8.0,7.0,RX81,6,0.0,0.0,7.0,80.34149293193903,babble-reversed_n13_p318-five-p229-three-p256-four-p268-eight-p248-one-p245-nine.wav,6,RX81,7,0.0,0.0,8.0,91.58892582949888,mgb_normalisation,91.58892582949886,90.34149293193902,1,5.0,False,1.874981164932251
,2024-07-26 13:55:44,sub_118,3,distance,cathedral,spatial_unmasking,6,222,0,0,_eight_,talker-p248_sex-f_text-_eight_.wav,p248,f,5,39,8.0,7.0,RX81,6,0.0,0.0,7.0,81.34149293193902,babble-reversed_n13_p256-three-p318-one-p307-two-p284-nine-p268-four-p245-eight.wav,6,RX81,7,0.0,0.0,8.0,91.58892582949888,mgb_normalisation,91.58892582949886,90.34149293193902,8,8.0,True,1.1874892711639404
,2024-07-26 13:55:47,sub_118,3,distance,cathedral,spatial_unmasking,6,223,0,0,_four_,talker-p248_sex-f_text-_four_.wav,p248,f,5,40,8.0,7.0,RX81,6,0.0,0.0,7.0,81.341492931939,babble-reversed_n13_p229-five-p318-three-p307-two-p245-four-p284-nine-p248-eight.wav,6,RX81,7,0.0,0.0,8.0,91.58892582949886,mgb_normalisation,91.58892582949886,90.34149293193902,4,4.0,True,1.3124873638153076
,2024-07-26 13:55:51,sub_118,3,distance,cathedral,spatial_unmasking,6,224,0,0,_nine_,talker-p248_sex-f_text-_nine_.wav,p248,f,5,41,8.0,7.0,RX81,6,0.0,0.0,7.0,80.341492931939,babble-reversed_n13_p256-eight-p318-two-p307-five-p245-four-p268-nine-p284-one.wav,6,RX81,7,0.0,0.0,8.0,91.58892582949888,mgb_normalisation,91.58892582949886,90.34149293193902,9,1.0,False,1.2499866485595703
,2024-07-26 13:55:55,sub_118,3,distance,cathedral,spatial_unmasking,6,225,0,0,_five_,talker-p248_sex-f_text-_five_.wav,p248,f,5,42,8.0,7.0,RX81,6,0.0,0.0,7.0,81.341492931939,babble-reversed_n13_p318-nine-p307-eight-p229-two-p284-one-p248-three-p245-five.wav,6,RX81,7,0.0,0.0,8.0,91.58892582949886,mgb_normalisation,91.58892582949886,90.34149293193902,5,5.0,True,1.3749852180480957
,2024-07-26 13:55:59,sub_118,3,distance,cathedral,spatial_unmasking,6,226,0,0,_one_,talker-p248_sex-f_text-_one_.wav,p248,f,5,43,8.0,7.0,RX81,6,0.0,0.0,7.0,81.34149293193902,babble-reversed_n13_p307-five-p229-two-p318-four-p248-three-p245-nine-p268-eight.wav,6,RX81,7,0.0,0.0,8.0,91.58892582949886,mgb_normalisation,91.58892582949886,90.34149293193902,1,8.0,False,1.562483787536621
,2024-07-26 13:56:02,sub_118,3,distance,cathedral,spatial_unmasking,6,227,0,0,_one_,talker-p248_sex-f_text-_one_.wav,p248,f,5,44,8.0,7.0,RX81,6,0.0,0.0,7.0,82.34149293193902,babble-reversed_n13_p229-one-p318-nine-p256-four-p284-eight-p268-five-p245-two.wav,6,RX81,7,0.0,0.0,8.0,91.58892582949886,mgb_normalisation,91.58892582949886,90.34149293193902,1,1.0,True,1.249988317489624
,2024-07-26 13:56:07,sub_118,3,distance,cathedral,spatial_unmasking,6,228,0,0,_nine_,talker-p248_sex-f_text-_nine_.wav,p248,f,5,45,8.0,7.0,RX81,6,0.0,0.0,7.0,82.34149293193902,babble-reversed_n13_p229-five-p256-three-p318-nine-p248-two-p284-four-p268-one.wav,6,RX81,7,0.0,0.0,8.0,91.58892582949888,mgb_normalisation,91.58892582949886,90.34149293193902,9,1.0,False,1.8124823570251465
,2024-07-26 13:56:10,sub_118,3,distance,cathedral,spatial_unmasking,6,229,0,0,_four_,talker-p248_sex-f_text-_four_.wav,p248,f,5,46,8.0,7.0,RX81,6,0.0,0.0,7.0,83.34149293193902,babble-reversed_n13_p256-nine-p307-four-p229-one-p284-three-p248-two-p245-five.wav,6,RX81,7,0.0,0.0,8.0,91.58892582949888,mgb_normalisation,91.58892582949886,90.34149293193902,4,4.0,True,1.5624849796295166
,2024-07-26 13:56:15,sub_118,3,distance,cathedral,spatial_unmasking,6,230,0,0,_one_,talker-p248_sex-f_text-_one_.wav,p248,f,5,47,8.0,7.0,RX81,6,0.0,0.0,7.0,83.34149293193903,babble-reversed_n13_p307-two-p256-four-p318-three-p284-eight-p248-five-p245-nine.wav,6,RX81,7,0.0,0.0,8.0,91.58892582949888,mgb_normalisation,91.58892582949886,90.34149293193902,1,8.0,False,2.562474489212036
,2024-07-26 13:56:19,sub_118,3,distance,cathedral,spatial_unmasking,6,231,0,0,_nine_,talker-p248_sex-f_text-_nine_.wav,p248,f,5,48,8.0,7.0,RX81,6,0.0,0.0,7.0,84.341492931939,babble-reversed_n13_p318-five-p256-nine-p307-two-p245-eight-p248-one-p284-four.wav,6,RX81,7,0.0,0.0,8.0,91.58892582949888,mgb_normalisation,91.58892582949886,90.34149293193902,9,9.0,True,1.0624887943267822
,2024-07-26 13:56:22,sub_118,3,distance,cathedral,spatial_unmasking,6,232,0,0,_five_,talker-p248_sex-f_text-_five_.wav,p248,f,5,49,8.0,7.0,RX81,6,0.0,0.0,7.0,84.341492931939,babble-reversed_n13_p256-four-p307-eight-p318-two-p248-three-p284-nine-p268-one.wav,6,RX81,7,0.0,0.0,8.0,91.58892582949888,mgb_normalisation,91.58892582949886,90.34149293193902,5,5.0,True,0.9999899864196776
,2024-07-26 13:58:19,sub_118,3,distance,cathedral,spatial_unmasking,7,233,0,0,_one_,talker-p248_sex-f_text-_one_.wav,p248,f,5,1,6.0,7.0,RX81,6,0.0,0.0,7.0,92.34149293193902,babble-reversed_n13_p256-four-p229-eight-p307-five-p248-three-p245-one-p284-two.wav,4,RX81,5,0.0,0.0,6.0,89.31368318402099,mgb_normalisation,89.31368318402099,90.34149293193902,1,1.0,True,0.9374914169311525
,2024-07-26 13:58:23,sub_118,3,distance,cathedral,spatial_unmasking,7,234,0,0,_four_,talker-p248_sex-f_text-_four_.wav,p248,f,5,2,6.0,7.0,RX81,6,0.0,0.0,7.0,88.34149293193902,babble-reversed_n13_p256-three-p318-two-p229-nine-p248-four-p284-one-p268-eight.wav,4,RX81,5,0.0,0.0,6.0,89.31368318402099,mgb_normalisation,89.31368318402099,90.34149293193902,4,4.0,True,1.3749866485595703
,2024-07-26 13:58:27,sub_118,3,distance,cathedral,spatial_unmasking,7,235,0,0,_three_,talker-p248_sex-f_text-_three_.wav,p248,f,5,3,6.0,7.0,RX81,6,0.0,0.0,7.0,84.341492931939,babble-reversed_n13_p229-two-p256-three-p318-eight-p284-five-p268-four-p245-one.wav,4,RX81,5,0.0,0.0,6.0,89.31368318402099,mgb_normalisation,89.31368318402099,90.34149293193902,3,3.0,True,1.062489032745361
,2024-07-26 13:58:31,sub_118,3,distance,cathedral,spatial_unmasking,7,236,0,0,_nine_,talker-p248_sex-f_text-_nine_.wav,p248,f,5,4,6.0,7.0,RX81,6,0.0,0.0,7.0,80.341492931939,babble-reversed_n13_p318-nine-p307-eight-p229-two-p284-one-p248-three-p245-five.wav,4,RX81,5,0.0,0.0,6.0,89.31368318402099,mgb_normalisation,89.31368318402099,90.34149293193902,9,9.0,True,1.9374186992645264
,2024-07-26 13:58:35,sub_118,3,distance,cathedral,spatial_unmasking,7,237,0,0,_four_,talker-p248_sex-f_text-_four_.wav,p248,f,5,5,6.0,7.0,RX81,6,0.0,0.0,7.0,76.34149293193902,babble-reversed_n13_p318-three-p307-one-p256-five-p248-nine-p245-two-p284-eight.wav,4,RX81,5,0.0,0.0,6.0,89.31368318402099,mgb_normalisation,89.31368318402099,90.34149293193902,4,8.0,False,1.3124852180480957
,2024-07-26 13:58:38,sub_118,3,distance,cathedral,spatial_unmasking,7,238,0,0,_five_,talker-p248_sex-f_text-_five_.wav,p248,f,5,6,6.0,7.0,RX81,6,0.0,0.0,7.0,78.341492931939,babble-reversed_n13_p318-three-p307-one-p256-five-p248-nine-p245-two-p284-eight.wav,4,RX81,5,0.0,0.0,6.0,89.31368318402099,mgb_normalisation,89.31368318402099,90.34149293193902,5,8.0,False,1.1875412464141846
,2024-07-26 13:58:42,sub_118,3,distance,cathedral,spatial_unmasking,7,239,0,0,_five_,talker-p248_sex-f_text-_five_.wav,p248,f,5,7,6.0,7.0,RX81,6,0.0,0.0,7.0,80.341492931939,babble-reversed_n13_p256-five-p307-nine-p318-three-p284-eight-p268-one-p248-two.wav,4,RX81,5,0.0,0.0,6.0,89.31368318402099,mgb_normalisation,89.31368318402099,90.34149293193902,5,5.0,True,1.4999849796295166
,2024-07-26 13:58:46,sub_118,3,distance,cathedral,spatial_unmasking,7,240,0,0,_nine_,talker-p248_sex-f_text-_nine_.wav,p248,f,5,8,6.0,7.0,RX81,6,0.0,0.0,7.0,80.341492931939,babble-reversed_n13_p318-five-p256-nine-p307-eight-p248-two-p245-four-p284-three.wav,4,RX81,5,0.0,0.0,6.0,89.31368318402099,mgb_normalisation,89.31368318402099,90.34149293193902,9,9.0,True,1.8124539852142327
,2024-07-26 13:58:52,sub_118,3,distance,cathedral,spatial_unmasking,7,241,0,0,_nine_,talker-p248_sex-f_text-_nine_.wav,p248,f,5,9,6.0,7.0,RX81,6,0.0,0.0,7.0,78.34149293193902,babble-reversed_n13_p307-nine-p318-two-p256-one-p245-three-p268-four-p248-eight.wav,4,RX81,5,0.0,0.0,6.0,89.31368318402099,mgb_normalisation,89.31368318402099,90.34149293193902,9,5.0,False,3.4374656677246094
,2024-07-26 13:58:58,sub_118,3,distance,cathedral,spatial_unmasking,7,242,0,0,_one_,talker-p248_sex-f_text-_one_.wav,p248,f,5,10,6.0,7.0,RX81,6,0.0,0.0,7.0,79.34149293193902,babble-reversed_n13_p256-three-p318-two-p229-nine-p248-four-p284-one-p268-eight.wav,4,RX81,5,0.0,0.0,6.0,89.31368318402099,mgb_normalisation,89.31368318402099,90.34149293193902,1,5.0,False,3.437389373779297
,2024-07-26 13:59:02,sub_118,3,distance,cathedral,spatial_unmasking,7,243,0,0,_three_,talker-p248_sex-f_text-_three_.wav,p248,f,5,11,6.0,7.0,RX81,6,0.0,0.0,7.0,80.341492931939,babble-reversed_n13_p256-eight-p318-two-p307-five-p245-four-p268-nine-p284-one.wav,4,RX81,5,0.0,0.0,6.0,89.31368318402099,mgb_normalisation,89.31368318402099,90.34149293193902,3,3.0,True,1.3124651908874512
,2024-07-26 13:59:05,sub_118,3,distance,cathedral,spatial_unmasking,7,244,0,0,_three_,talker-p248_sex-f_text-_three_.wav,p248,f,5,12,6.0,7.0,RX81,6,0.0,0.0,7.0,80.341492931939,babble-reversed_n13_p229-nine-p256-four-p318-three-p268-eight-p248-two-p284-five.wav,4,RX81,5,0.0,0.0,6.0,89.31368318402099,mgb_normalisation,89.31368318402099,90.34149293193902,3,3.0,True,0.937502145767212
,2024-07-26 13:59:11,sub_118,3,distance,cathedral,spatial_unmasking,7,245,0,0,_five_,talker-p248_sex-f_text-_five_.wav,p248,f,5,13,6.0,7.0,RX81,6,0.0,0.0,7.0,79.341492931939,babble-reversed_n13_p229-three-p307-one-p318-two-p245-eight-p268-five-p284-four.wav,4,RX81,5,0.0,0.0,6.0,89.31368318402099,mgb_normalisation,89.31368318402099,90.34149293193902,5,4.0,False,3.437408685684204
,2024-07-26 13:59:17,sub_118,3,distance,cathedral,spatial_unmasking,7,246,0,0,_four_,talker-p248_sex-f_text-_four_.wav,p248,f,5,14,6.0,7.0,RX81,6,0.0,0.0,7.0,80.341492931939,babble-reversed_n13_p318-five-p256-nine-p307-eight-p248-two-p245-four-p284-three.wav,4,RX81,5,0.0,0.0,6.0,89.31368318402099,mgb_normalisation,89.31368318402099,90.34149293193902,4,4.0,True,3.9999053478240967
,2024-07-26 13:59:21,sub_118,3,distance,cathedral,spatial_unmasking,7,247,0,0,_eight_,talker-p248_sex-f_text-_eight_.wav,p248,f,5,15,6.0,7.0,RX81,6,0.0,0.0,7.0,80.34149293193903,babble-reversed_n13_p256-four-p229-eight-p307-five-p248-three-p245-one-p284-two.wav,4,RX81,5,0.0,0.0,6.0,89.31368318402099,mgb_normalisation,89.31368318402099,90.34149293193902,8,3.0,False,1.6249563694000244
,2024-07-26 13:59:25,sub_118,3,distance,cathedral,spatial_unmasking,7,248,0,0,_three_,talker-p248_sex-f_text-_three_.wav,p248,f,5,16,6.0,7.0,RX81,6,0.0,0.0,7.0,81.34149293193902,babble-reversed_n13_p318-five-p229-three-p256-four-p268-eight-p248-one-p245-nine.wav,4,RX81,5,0.0,0.0,6.0,89.31368318402099,mgb_normalisation,89.31368318402099,90.34149293193902,3,3.0,True,1.5624592304229736
,2024-07-26 13:59:29,sub_118,3,distance,cathedral,spatial_unmasking,7,249,0,0,_eight_,talker-p248_sex-f_text-_eight_.wav,p248,f,5,17,6.0,7.0,RX81,6,0.0,0.0,7.0,81.34149293193902,babble-reversed_n13_p229-two-p307-five-p318-four-p284-one-p248-nine-p268-eight.wav,4,RX81,5,0.0,0.0,6.0,89.31368318402099,mgb_normalisation,89.31368318402099,90.34149293193902,8,8.0,True,1.6249537467956543
,2024-07-26 13:59:34,sub_118,3,distance,cathedral,spatial_unmasking,7,250,0,0,_nine_,talker-p248_sex-f_text-_nine_.wav,p248,f,5,18,6.0,7.0,RX81,6,0.0,0.0,7.0,80.341492931939,babble-reversed_n13_p229-three-p307-one-p318-two-p245-eight-p268-five-p284-four.wav,4,RX81,5,0.0,0.0,6.0,89.31368318402099,mgb_normalisation,89.31368318402099,90.34149293193902,9,9.0,True,1.8124964237213133
,2024-07-26 13:59:37,sub_118,3,distance,cathedral,spatial_unmasking,7,251,0,0,_eight_,talker-p248_sex-f_text-_eight_.wav,p248,f,5,19,6.0,7.0,RX81,6,0.0,0.0,7.0,80.34149293193903,babble-reversed_n13_p229-nine-p318-one-p307-two-p248-eight-p245-five-p284-four.wav,4,RX81,5,0.0,0.0,6.0,89.31368318402099,mgb_normalisation,89.31368318402099,90.34149293193902,8,8.0,True,1.1249690055847168
,2024-07-26 13:59:41,sub_118,3,distance,cathedral,spatial_unmasking,7,252,0,0,_nine_,talker-p248_sex-f_text-_nine_.wav,p248,f,5,20,6.0,7.0,RX81,6,0.0,0.0,7.0,79.341492931939,babble-reversed_n13_p229-five-p256-three-p318-nine-p248-two-p284-four-p268-one.wav,4,RX81,5,0.0,0.0,6.0,89.313683184021,mgb_normalisation,89.31368318402099,90.34149293193902,9,9.0,True,1.5624573230743408
,2024-07-26 13:59:45,sub_118,3,distance,cathedral,spatial_unmasking,7,253,0,0,_one_,talker-p248_sex-f_text-_one_.wav,p248,f,5,21,6.0,7.0,RX81,6,0.0,0.0,7.0,79.34149293193902,babble-reversed_n13_p307-five-p229-three-p318-nine-p245-four-p268-eight-p284-two.wav,4,RX81,5,0.0,0.0,6.0,89.31368318402099,mgb_normalisation,89.31368318402099,90.34149293193902,1,1.0,True,1.374962329864502
,2024-07-26 13:59:49,sub_118,3,distance,cathedral,spatial_unmasking,7,254,0,0,_four_,talker-p248_sex-f_text-_four_.wav,p248,f,5,22,6.0,7.0,RX81,6,0.0,0.0,7.0,78.34149293193902,babble-reversed_n13_p256-three-p318-one-p307-two-p284-nine-p268-four-p245-eight.wav,4,RX81,5,0.0,0.0,6.0,89.31368318402099,mgb_normalisation,89.31368318402099,90.34149293193902,4,8.0,False,2.124945163726806
,2024-07-26 13:59:53,sub_118,3,distance,cathedral,spatial_unmasking,7,255,0,0,_three_,talker-p248_sex-f_text-_three_.wav,p248,f,5,23,6.0,7.0,RX81,6,0.0,0.0,7.0,79.341492931939,babble-reversed_n13_p229-two-p256-three-p318-eight-p284-five-p268-four-p245-one.wav,4,RX81,5,0.0,0.0,6.0,89.31368318402099,mgb_normalisation,89.31368318402099,90.34149293193902,3,3.0,True,1.1249690055847168
,2024-07-26 14:00:00,sub_118,3,distance,cathedral,spatial_unmasking,7,256,0,0,_nine_,talker-p248_sex-f_text-_nine_.wav,p248,f,5,24,6.0,7.0,RX81,6,0.0,0.0,7.0,79.341492931939,babble-reversed_n13_p307-four-p318-three-p256-eight-p284-two-p245-nine-p248-five.wav,4,RX81,5,0.0,0.0,6.0,89.31368318402099,mgb_normalisation,89.31368318402099,90.34149293193902,9,9.0,True,4.437380790710449
,2024-07-26 14:00:04,sub_118,3,distance,cathedral,spatial_unmasking,7,257,0,0,_five_,talker-p248_sex-f_text-_five_.wav,p248,f,5,25,6.0,7.0,RX81,6,0.0,0.0,7.0,78.341492931939,babble-reversed_n13_p256-two-p307-five-p318-nine-p248-eight-p245-four-p284-one.wav,4,RX81,5,0.0,0.0,6.0,89.31368318402099,mgb_normalisation,89.31368318402099,90.34149293193902,5,5.0,True,1.9999473094940183
,2024-07-26 14:00:08,sub_118,3,distance,cathedral,spatial_unmasking,7,258,0,0,_one_,talker-p248_sex-f_text-_one_.wav,p248,f,5,26,6.0,7.0,RX81,6,0.0,0.0,7.0,78.34149293193902,babble-reversed_n13_p318-nine-p256-five-p307-eight-p268-three-p248-one-p245-four.wav,4,RX81,5,0.0,0.0,6.0,89.31368318402099,mgb_normalisation,89.31368318402099,90.34149293193902,1,1.0,True,1.56245756149292
,2024-07-26 14:00:12,sub_118,3,distance,cathedral,spatial_unmasking,7,259,0,0,_six_,talker-p248_sex-f_text-_six_.wav,p248,f,5,27,6.0,7.0,RX81,6,0.0,0.0,7.0,77.34149293193902,babble-reversed_n13_p256-four-p307-eight-p318-two-p248-three-p284-nine-p268-one.wav,4,RX81,5,0.0,0.0,6.0,89.313683184021,mgb_normalisation,89.31368318402099,90.34149293193902,6,6.0,True,1.187441349029541
