event_id,timestamp,subject_id,session_index,plane,setup,task,block,trial_index,headpose_offset_azi,headpose_offset_ele,target_number,target_filename,target_talker,target_sex,target_speaker_id,step_number:,distance_masker,distance_target,target_speaker_proc,target_speaker_chan,target_speaker_azi,target_speaker_ele,target_speaker_dist,target_stim_level,masker_filename,masker_speaker_id,masker_speaker_proc,masker_speaker_chan,masker_speaker_azi,masker_speaker_ele,masker_speaker_dist,masker_stim_level,normalisation_method,normalisation_level_masker,normalisation_level_target,played_number,resp_number,is_correct,reaction_time
,2024-07-10 16:29:26,sub_101,3,distance,cathedral,spatial_unmasking,1,0,0,0,_eight_,talker-p245_sex-f_text-_eight_.wav,p245,f,5,1,2.0,7.0,RX81,6,0.0,0.0,7.0,92.34149293193902,babble-reversed_n13_p318-five-p256-nine-p307-two-p245-eight-p248-one-p284-four.wav,0,RX81,1,0.0,0.0,2.0,84.40078082039427,mgb_normalisation,84.40078082039426,90.34149293193902,8,8.0,True,1.312410593032837
,2024-07-10 16:29:29,sub_101,3,distance,cathedral,spatial_unmasking,1,1,0,0,_six_,talker-p245_sex-f_text-_six_.wav,p245,f,5,2,2.0,7.0,RX81,6,0.0,0.0,7.0,88.34149293193902,babble-reversed_n13_p229-two-p256-three-p318-eight-p284-five-p268-four-p245-one.wav,0,RX81,1,0.0,0.0,2.0,84.40078082039426,mgb_normalisation,84.40078082039426,90.34149293193902,6,6.0,True,1.2499186992645264
,2024-07-10 16:29:33,sub_101,3,distance,cathedral,spatial_unmasking,1,2,0,0,_one_,talker-p245_sex-f_text-_one_.wav,p245,f,5,3,2.0,7.0,RX81,6,0.0,0.0,7.0,84.341492931939,babble-reversed_n13_p256-two-p307-five-p318-nine-p248-eight-p245-four-p284-one.wav,0,RX81,1,0.0,0.0,2.0,84.40078082039426,mgb_normalisation,84.40078082039426,90.34149293193902,1,1.0,True,1.312410831451416
,2024-07-10 16:29:37,sub_101,3,distance,cathedral,spatial_unmasking,1,3,0,0,_nine_,talker-p245_sex-f_text-_nine_.wav,p245,f,5,4,2.0,7.0,RX81,6,0.0,0.0,7.0,80.34149293193903,babble-reversed_n13_p229-three-p256-nine-p318-five-p248-one-p245-eight-p284-two.wav,0,RX81,1,0.0,0.0,2.0,84.40078082039426,mgb_normalisation,84.40078082039426,90.34149293193902,9,9.0,True,1.3124103546142578
,2024-07-10 16:29:41,sub_101,3,distance,cathedral,spatial_unmasking,1,4,0,0,_five_,talker-p245_sex-f_text-_five_.wav,p245,f,5,5,2.0,7.0,RX81,6,0.0,0.0,7.0,76.34149293193902,babble-reversed_n13_p229-five-p256-one-p318-three-p248-nine-p268-four-p284-eight.wav,0,RX81,1,0.0,0.0,2.0,84.40078082039426,mgb_normalisation,84.40078082039426,90.34149293193902,5,3.0,False,1.4998974800109863
,2024-07-10 16:29:44,sub_101,3,distance,cathedral,spatial_unmasking,1,5,0,0,_three_,talker-p245_sex-f_text-_three_.wav,p245,f,5,6,2.0,7.0,RX81,6,0.0,0.0,7.0,78.34149293193902,babble-reversed_n13_p229-three-p256-nine-p318-five-p248-one-p245-eight-p284-two.wav,0,RX81,1,0.0,0.0,2.0,84.40078082039426,mgb_normalisation,84.40078082039426,90.34149293193902,3,9.0,False,1.1249237060546875
,2024-07-10 16:29:48,sub_101,3,distance,cathedral,spatial_unmasking,1,6,0,0,_six_,talker-p245_sex-f_text-_six_.wav,p245,f,5,7,2.0,7.0,RX81,6,0.0,0.0,7.0,80.341492931939,babble-reversed_n13_p256-five-p307-nine-p318-three-p284-eight-p268-one-p248-two.wav,0,RX81,1,0.0,0.0,2.0,84.40078082039426,mgb_normalisation,84.40078082039426,90.34149293193902,6,6.0,True,1.3124110698699951
,2024-07-10 16:29:52,sub_101,3,distance,cathedral,spatial_unmasking,1,7,0,0,_five_,talker-p245_sex-f_text-_five_.wav,p245,f,5,8,2.0,7.0,RX81,6,0.0,0.0,7.0,80.34149293193903,babble-reversed_n13_p307-two-p229-one-p256-five-p248-nine-p284-three-p268-eight.wav,0,RX81,1,0.0,0.0,2.0,84.40078082039427,mgb_normalisation,84.40078082039426,90.34149293193902,5,9.0,False,1.1249234676361084
,2024-07-10 16:29:55,sub_101,3,distance,cathedral,spatial_unmasking,1,8,0,0,_six_,talker-p245_sex-f_text-_six_.wav,p245,f,5,9,2.0,7.0,RX81,6,0.0,0.0,7.0,82.34149293193902,babble-reversed_n13_p229-eight-p256-nine-p318-four-p245-three-p268-five-p284-two.wav,0,RX81,1,0.0,0.0,2.0,84.40078082039426,mgb_normalisation,84.40078082039426,90.34149293193902,6,6.0,True,1.187417984008789
,2024-07-10 16:29:59,sub_101,3,distance,cathedral,spatial_unmasking,1,9,0,0,_three_,talker-p245_sex-f_text-_three_.wav,p245,f,5,10,2.0,7.0,RX81,6,0.0,0.0,7.0,82.34149293193902,babble-reversed_n13_p256-two-p307-five-p318-nine-p248-eight-p245-four-p284-one.wav,0,RX81,1,0.0,0.0,2.0,84.40078082039426,mgb_normalisation,84.40078082039426,90.34149293193902,3,3.0,True,1.1249239444732666
,2024-07-10 16:30:04,sub_101,3,distance,cathedral,spatial_unmasking,1,10,0,0,_nine_,talker-p245_sex-f_text-_nine_.wav,p245,f,5,11,2.0,7.0,RX81,6,0.0,0.0,7.0,80.34149293193903,babble-reversed_n13_p229-eight-p256-nine-p318-four-p245-three-p268-five-p284-two.wav,0,RX81,1,0.0,0.0,2.0,84.40078082039426,mgb_normalisation,84.40078082039426,90.34149293193902,9,9.0,True,2.812307834625244
,2024-07-10 16:30:07,sub_101,3,distance,cathedral,spatial_unmasking,1,11,0,0,_four_,talker-p245_sex-f_text-_four_.wav,p245,f,5,12,2.0,7.0,RX81,6,0.0,0.0,7.0,80.34149293193903,babble-reversed_n13_p229-one-p318-nine-p256-four-p284-eight-p268-five-p245-two.wav,0,RX81,1,0.0,0.0,2.0,84.40078082039426,mgb_normalisation,84.40078082039426,90.34149293193902,4,4.0,True,1.0624275207519531
,2024-07-10 16:30:11,sub_101,3,distance,cathedral,spatial_unmasking,1,12,0,0,_nine_,talker-p245_sex-f_text-_nine_.wav,p245,f,5,13,2.0,7.0,RX81,6,0.0,0.0,7.0,78.34149293193902,babble-reversed_n13_p256-four-p229-two-p318-five-p268-one-p248-eight-p245-three.wav,0,RX81,1,0.0,0.0,2.0,84.40078082039426,mgb_normalisation,84.40078082039426,90.34149293193902,9,2.0,False,1.6873857975006104
,2024-07-10 16:30:15,sub_101,3,distance,cathedral,spatial_unmasking,1,13,0,0,_six_,talker-p245_sex-f_text-_six_.wav,p245,f,5,14,2.0,7.0,RX81,6,0.0,0.0,7.0,79.341492931939,babble-reversed_n13_p229-three-p256-one-p307-two-p284-eight-p268-five-p248-nine.wav,0,RX81,1,0.0,0.0,2.0,84.40078082039426,mgb_normalisation,84.40078082039426,90.34149293193902,6,6.0,True,0.999958038330078
,2024-07-10 16:30:19,sub_101,3,distance,cathedral,spatial_unmasking,1,14,0,0,_nine_,talker-p245_sex-f_text-_nine_.wav,p245,f,5,15,2.0,7.0,RX81,6,0.0,0.0,7.0,79.34149293193902,babble-reversed_n13_p229-five-p256-one-p318-three-p248-nine-p268-four-p284-eight.wav,0,RX81,1,0.0,0.0,2.0,84.40078082039426,mgb_normalisation,84.40078082039426,90.34149293193902,9,2.0,False,1.4374008178710938
,2024-07-10 16:30:23,sub_101,3,distance,cathedral,spatial_unmasking,1,15,0,0,_eight_,talker-p245_sex-f_text-_eight_.wav,p245,f,5,16,2.0,7.0,RX81,6,0.0,0.0,7.0,80.34149293193903,babble-reversed_n13_p229-nine-p318-one-p307-two-p248-eight-p245-five-p284-four.wav,0,RX81,1,0.0,0.0,2.0,84.40078082039426,mgb_normalisation,84.40078082039426,90.34149293193902,8,8.0,True,1.9373672008514404
,2024-07-10 16:30:27,sub_101,3,distance,cathedral,spatial_unmasking,1,16,0,0,_five_,talker-p245_sex-f_text-_five_.wav,p245,f,5,17,2.0,7.0,RX81,6,0.0,0.0,7.0,80.34149293193903,babble-reversed_n13_p307-five-p229-three-p318-nine-p245-four-p268-eight-p284-two.wav,0,RX81,1,0.0,0.0,2.0,84.40078082039426,mgb_normalisation,84.40078082039426,90.34149293193902,5,5.0,True,1.4374022483825684
,2024-07-10 16:30:30,sub_101,3,distance,cathedral,spatial_unmasking,1,17,0,0,_two_,talker-p245_sex-f_text-_two_.wav,p245,f,5,18,2.0,7.0,RX81,6,0.0,0.0,7.0,79.341492931939,babble-reversed_n13_p229-nine-p256-four-p318-three-p268-eight-p248-two-p284-five.wav,0,RX81,1,0.0,0.0,2.0,84.40078082039426,mgb_normalisation,84.40078082039426,90.34149293193902,2,2.0,True,0.999931812286377
,2024-07-10 16:30:34,sub_101,3,distance,cathedral,spatial_unmasking,1,18,0,0,_three_,talker-p245_sex-f_text-_three_.wav,p245,f,5,19,2.0,7.0,RX81,6,0.0,0.0,7.0,79.34149293193902,babble-reversed_n13_p229-one-p318-nine-p256-four-p284-eight-p268-five-p245-two.wav,0,RX81,1,0.0,0.0,2.0,84.40078082039426,mgb_normalisation,84.40078082039426,90.34149293193902,3,3.0,True,1.187419891357422
,2024-07-10 16:30:37,sub_101,3,distance,cathedral,spatial_unmasking,1,19,0,0,_two_,talker-p245_sex-f_text-_two_.wav,p245,f,5,20,2.0,7.0,RX81,6,0.0,0.0,7.0,78.341492931939,babble-reversed_n13_p229-one-p318-eight-p256-three-p268-two-p245-five-p248-nine.wav,0,RX81,1,0.0,0.0,2.0,84.40078082039426,mgb_normalisation,84.40078082039426,90.34149293193902,2,2.0,True,1.0156195163726809
,2024-07-10 16:30:40,sub_101,3,distance,cathedral,spatial_unmasking,1,20,0,0,_one_,talker-p245_sex-f_text-_one_.wav,p245,f,5,21,2.0,7.0,RX81,6,0.0,0.0,7.0,78.341492931939,babble-reversed_n13_p229-three-p307-one-p318-two-p245-eight-p268-five-p284-four.wav,0,RX81,1,0.0,0.0,2.0,84.40078082039426,mgb_normalisation,84.40078082039426,90.34149293193902,1,1.0,True,1.062427997589111
,2024-07-10 16:30:45,sub_101,3,distance,cathedral,spatial_unmasking,1,21,0,0,_five_,talker-p245_sex-f_text-_five_.wav,p245,f,5,22,2.0,7.0,RX81,6,0.0,0.0,7.0,77.34149293193902,babble-reversed_n13_p307-nine-p318-two-p256-one-p245-three-p268-four-p248-eight.wav,0,RX81,1,0.0,0.0,2.0,84.40078082039426,mgb_normalisation,84.40078082039426,90.34149293193902,5,9.0,False,1.6873855590820312
,2024-07-10 16:30:48,sub_101,3,distance,cathedral,spatial_unmasking,1,22,0,0,_one_,talker-p245_sex-f_text-_one_.wav,p245,f,5,23,2.0,7.0,RX81,6,0.0,0.0,7.0,78.341492931939,babble-reversed_n13_p229-three-p256-one-p307-two-p284-eight-p268-five-p248-nine.wav,0,RX81,1,0.0,0.0,2.0,84.40078082039426,mgb_normalisation,84.40078082039426,90.34149293193902,1,1.0,True,1.0624275207519531
,2024-07-10 16:30:52,sub_101,3,distance,cathedral,spatial_unmasking,1,23,0,0,_one_,talker-p245_sex-f_text-_one_.wav,p245,f,5,24,2.0,7.0,RX81,6,0.0,0.0,7.0,78.341492931939,babble-reversed_n13_p307-five-p229-three-p318-nine-p245-four-p268-eight-p284-two.wav,0,RX81,1,0.0,0.0,2.0,84.40078082039426,mgb_normalisation,84.40078082039426,90.34149293193902,1,3.0,False,1.3749067783355713
,2024-07-10 16:30:55,sub_101,3,distance,cathedral,spatial_unmasking,1,24,0,0,_two_,talker-p245_sex-f_text-_two_.wav,p245,f,5,25,2.0,7.0,RX81,6,0.0,0.0,7.0,79.341492931939,babble-reversed_n13_p256-three-p318-one-p307-two-p284-nine-p268-four-p245-eight.wav,0,RX81,1,0.0,0.0,2.0,84.40078082039426,mgb_normalisation,84.40078082039426,90.34149293193902,2,2.0,True,1.062427282333374
,2024-07-10 16:31:00,sub_101,3,distance,cathedral,spatial_unmasking,1,25,0,0,_nine_,talker-p245_sex-f_text-_nine_.wav,p245,f,5,26,2.0,7.0,RX81,6,0.0,0.0,7.0,79.34149293193902,babble-reversed_n13_p229-two-p307-five-p318-four-p284-one-p248-nine-p268-eight.wav,0,RX81,1,0.0,0.0,2.0,84.40078082039426,mgb_normalisation,84.40078082039426,90.34149293193902,9,3.0,False,1.8748724460601809
,2024-07-10 16:31:03,sub_101,3,distance,cathedral,spatial_unmasking,1,26,0,0,_two_,talker-p245_sex-f_text-_two_.wav,p245,f,5,27,2.0,7.0,RX81,6,0.0,0.0,7.0,80.341492931939,babble-reversed_n13_p229-one-p318-eight-p256-three-p268-two-p245-five-p248-nine.wav,0,RX81,1,0.0,0.0,2.0,84.40078082039426,mgb_normalisation,84.40078082039426,90.34149293193902,2,2.0,True,0.9374358654022216
,2024-07-10 16:31:07,sub_101,3,distance,cathedral,spatial_unmasking,1,27,0,0,_five_,talker-p245_sex-f_text-_five_.wav,p245,f,5,28,2.0,7.0,RX81,6,0.0,0.0,7.0,80.34149293193903,babble-reversed_n13_p307-nine-p229-one-p256-eight-p248-four-p284-two-p268-three.wav,0,RX81,1,0.0,0.0,2.0,84.40078082039426,mgb_normalisation,84.40078082039426,90.34149293193902,5,3.0,False,1.2499780654907229
,2024-07-10 16:31:10,sub_101,3,distance,cathedral,spatial_unmasking,1,28,0,0,_three_,talker-p245_sex-f_text-_three_.wav,p245,f,5,29,2.0,7.0,RX81,6,0.0,0.0,7.0,81.34149293193902,babble-reversed_n13_p229-five-p256-one-p318-three-p248-nine-p268-four-p284-eight.wav,0,RX81,1,0.0,0.0,2.0,84.40078082039426,mgb_normalisation,84.40078082039426,90.34149293193902,3,3.0,True,1.1249232292175293
,2024-07-10 16:31:14,sub_101,3,distance,cathedral,spatial_unmasking,1,29,0,0,_six_,talker-p245_sex-f_text-_six_.wav,p245,f,5,30,2.0,7.0,RX81,6,0.0,0.0,7.0,81.34149293193902,babble-reversed_n13_p229-five-p318-two-p307-eight-p268-three-p248-four-p245-one.wav,0,RX81,1,0.0,0.0,2.0,84.40078082039427,mgb_normalisation,84.40078082039426,90.34149293193902,6,6.0,True,1.6873857975006104
,2024-07-10 16:31:18,sub_101,3,distance,cathedral,spatial_unmasking,1,30,0,0,_three_,talker-p245_sex-f_text-_three_.wav,p245,f,5,31,2.0,7.0,RX81,6,0.0,0.0,7.0,80.34149293193903,babble-reversed_n13_p229-five-p318-three-p307-two-p245-four-p284-nine-p248-eight.wav,0,RX81,1,0.0,0.0,2.0,84.40078082039426,mgb_normalisation,84.40078082039426,90.34149293193902,3,3.0,True,1.6873846054077148
,2024-07-10 16:31:25,sub_101,3,distance,cathedral,spatial_unmasking,1,31,0,0,_four_,talker-p245_sex-f_text-_four_.wav,p245,f,5,32,2.0,7.0,RX81,6,0.0,0.0,7.0,80.34149293193903,babble-reversed_n13_p256-four-p229-eight-p307-five-p248-three-p245-one-p284-two.wav,0,RX81,1,0.0,0.0,2.0,84.40078082039426,mgb_normalisation,84.40078082039426,90.34149293193902,4,4.0,True,4.062222480773926
,2024-07-10 16:31:29,sub_101,3,distance,cathedral,spatial_unmasking,1,32,0,0,_one_,talker-p245_sex-f_text-_one_.wav,p245,f,5,33,2.0,7.0,RX81,6,0.0,0.0,7.0,79.341492931939,babble-reversed_n13_p256-four-p229-eight-p307-five-p248-three-p245-one-p284-two.wav,0,RX81,1,0.0,0.0,2.0,84.40078082039426,mgb_normalisation,84.40078082039426,90.34149293193902,1,3.0,False,1.8748724460601809
,2024-07-10 16:31:34,sub_101,3,distance,cathedral,spatial_unmasking,1,33,0,0,_four_,talker-p245_sex-f_text-_four_.wav,p245,f,5,34,2.0,7.0,RX81,6,0.0,0.0,7.0,80.34149293193903,babble-reversed_n13_p307-nine-p318-two-p256-one-p245-three-p268-four-p248-eight.wav,0,RX81,1,0.0,0.0,2.0,84.40078082039426,mgb_normalisation,84.40078082039426,90.34149293193902,4,3.0,False,2.2498466968536377
,2024-07-10 16:31:37,sub_101,3,distance,cathedral,spatial_unmasking,1,34,0,0,_two_,talker-p245_sex-f_text-_two_.wav,p245,f,5,35,2.0,7.0,RX81,6,0.0,0.0,7.0,81.341492931939,babble-reversed_n13_p256-five-p229-one-p318-three-p248-nine-p284-eight-p268-two.wav,0,RX81,1,0.0,0.0,2.0,84.40078082039427,mgb_normalisation,84.40078082039426,90.34149293193902,2,2.0,True,0.8749392032623291
,2024-07-10 16:31:41,sub_101,3,distance,cathedral,spatial_unmasking,1,35,0,0,_three_,talker-p245_sex-f_text-_three_.wav,p245,f,5,36,2.0,7.0,RX81,6,0.0,0.0,7.0,81.34149293193902,babble-reversed_n13_p229-one-p318-nine-p256-four-p284-eight-p268-five-p245-two.wav,0,RX81,1,0.0,0.0,2.0,84.40078082039426,mgb_normalisation,84.40078082039426,90.34149293193902,3,3.0,True,1.3749511241912842
,2024-07-10 16:31:44,sub_101,3,distance,cathedral,spatial_unmasking,1,36,0,0,_five_,talker-p245_sex-f_text-_five_.wav,p245,f,5,37,2.0,7.0,RX81,6,0.0,0.0,7.0,80.34149293193903,babble-reversed_n13_p256-two-p307-five-p318-nine-p248-eight-p245-four-p284-one.wav,0,RX81,1,0.0,0.0,2.0,84.40078082039426,mgb_normalisation,84.40078082039426,90.34149293193902,5,5.0,True,1.1249237060546875
,2024-07-10 16:31:47,sub_101,3,distance,cathedral,spatial_unmasking,1,37,0,0,_four_,talker-p245_sex-f_text-_four_.wav,p245,f,5,38,2.0,7.0,RX81,6,0.0,0.0,7.0,80.34149293193903,babble-reversed_n13_p229-five-p318-three-p307-two-p245-four-p284-nine-p248-eight.wav,0,RX81,1,0.0,0.0,2.0,84.40078082039426,mgb_normalisation,84.40078082039426,90.34149293193902,4,4.0,True,0.937436580657959
,2024-07-10 16:31:51,sub_101,3,distance,cathedral,spatial_unmasking,1,38,0,0,_five_,talker-p245_sex-f_text-_five_.wav,p245,f,5,39,2.0,7.0,RX81,6,0.0,0.0,7.0,79.34149293193902,babble-reversed_n13_p229-five-p318-two-p307-eight-p268-three-p248-four-p245-one.wav,0,RX81,1,0.0,0.0,2.0,84.40078082039427,mgb_normalisation,84.40078082039426,90.34149293193902,5,5.0,True,1.374908447265625
,2024-07-10 16:31:55,sub_101,3,distance,cathedral,spatial_unmasking,1,39,0,0,_five_,talker-p245_sex-f_text-_five_.wav,p245,f,5,40,2.0,7.0,RX81,6,0.0,0.0,7.0,79.34149293193902,babble-reversed_n13_p318-three-p229-one-p256-eight-p245-five-p248-four-p284-nine.wav,0,RX81,1,0.0,0.0,2.0,84.40078082039427,mgb_normalisation,84.40078082039426,90.34149293193902,5,1.0,False,1.062363624572754
,2024-07-10 16:31:58,sub_101,3,distance,cathedral,spatial_unmasking,1,40,0,0,_one_,talker-p245_sex-f_text-_one_.wav,p245,f,5,41,2.0,7.0,RX81,6,0.0,0.0,7.0,80.341492931939,babble-reversed_n13_p307-four-p318-three-p256-eight-p284-two-p245-nine-p248-five.wav,0,RX81,1,0.0,0.0,2.0,84.40078082039426,mgb_normalisation,84.40078082039426,90.34149293193902,1,4.0,False,1.124859094619751
,2024-07-10 16:32:02,sub_101,3,distance,cathedral,spatial_unmasking,1,41,0,0,_one_,talker-p245_sex-f_text-_one_.wav,p245,f,5,42,2.0,7.0,RX81,6,0.0,0.0,7.0,81.341492931939,babble-reversed_n13_p256-eight-p318-two-p307-five-p245-four-p268-nine-p284-one.wav,0,RX81,1,0.0,0.0,2.0,84.40078082039426,mgb_normalisation,84.40078082039426,90.34149293193902,1,3.0,False,1.4999032020568848
,2024-07-10 16:32:06,sub_101,3,distance,cathedral,spatial_unmasking,1,42,0,0,_five_,talker-p245_sex-f_text-_five_.wav,p245,f,5,43,2.0,7.0,RX81,6,0.0,0.0,7.0,82.34149293193902,babble-reversed_n13_p318-five-p256-nine-p307-eight-p248-two-p245-four-p284-three.wav,0,RX81,1,0.0,0.0,2.0,84.40078082039426,mgb_normalisation,84.40078082039426,90.34149293193902,5,5.0,True,1.1249232292175293
,2024-07-10 16:32:09,sub_101,3,distance,cathedral,spatial_unmasking,1,43,0,0,_four_,talker-p245_sex-f_text-_four_.wav,p245,f,5,44,2.0,7.0,RX81,6,0.0,0.0,7.0,82.34149293193902,babble-reversed_n13_p307-two-p256-four-p318-three-p284-eight-p248-five-p245-nine.wav,0,RX81,1,0.0,0.0,2.0,84.40078082039427,mgb_normalisation,84.40078082039426,90.34149293193902,4,4.0,True,1.1249144077301023
,2024-07-10 16:32:13,sub_101,3,distance,cathedral,spatial_unmasking,1,44,0,0,_six_,talker-p245_sex-f_text-_six_.wav,p245,f,5,45,2.0,7.0,RX81,6,0.0,0.0,7.0,81.34149293193902,babble-reversed_n13_p307-nine-p229-one-p256-eight-p248-four-p284-two-p268-three.wav,0,RX81,1,0.0,0.0,2.0,84.40078082039426,mgb_normalisation,84.40078082039426,90.34149293193902,6,6.0,True,1.062427997589111
,2024-07-10 16:32:16,sub_101,3,distance,cathedral,spatial_unmasking,1,45,0,0,_one_,talker-p245_sex-f_text-_one_.wav,p245,f,5,46,2.0,7.0,RX81,6,0.0,0.0,7.0,81.341492931939,babble-reversed_n13_p307-nine-p318-two-p256-one-p245-three-p268-four-p248-eight.wav,0,RX81,1,0.0,0.0,2.0,84.40078082039426,mgb_normalisation,84.40078082039426,90.34149293193902,1,4.0,False,1.2499151229858398
,2024-07-10 16:32:20,sub_101,3,distance,cathedral,spatial_unmasking,1,46,0,0,_five_,talker-p245_sex-f_text-_five_.wav,p245,f,5,47,2.0,7.0,RX81,6,0.0,0.0,7.0,82.34149293193902,babble-reversed_n13_p307-four-p318-three-p256-eight-p284-two-p245-nine-p248-five.wav,0,RX81,1,0.0,0.0,2.0,84.40078082039426,mgb_normalisation,84.40078082039426,90.34149293193902,5,3.0,False,1.3124113082885742
,2024-07-10 16:32:24,sub_101,3,distance,cathedral,spatial_unmasking,1,47,0,0,_nine_,talker-p245_sex-f_text-_nine_.wav,p245,f,5,48,2.0,7.0,RX81,6,0.0,0.0,7.0,83.34149293193902,babble-reversed_n13_p318-one-p307-two-p256-eight-p284-three-p248-five-p245-four.wav,0,RX81,1,0.0,0.0,2.0,84.40078082039427,mgb_normalisation,84.40078082039426,90.34149293193902,9,2.0,False,1.7498822212219238
,2024-07-10 16:32:28,sub_101,3,distance,cathedral,spatial_unmasking,1,48,0,0,_nine_,talker-p245_sex-f_text-_nine_.wav,p245,f,5,49,2.0,7.0,RX81,6,0.0,0.0,7.0,84.341492931939,babble-reversed_n13_p256-four-p229-two-p318-five-p268-one-p248-eight-p245-three.wav,0,RX81,1,0.0,0.0,2.0,84.40078082039426,mgb_normalisation,84.40078082039426,90.34149293193902,9,2.0,False,1.4374022483825684
,2024-07-10 16:32:31,sub_101,3,distance,cathedral,spatial_unmasking,1,49,0,0,_five_,talker-p245_sex-f_text-_five_.wav,p245,f,5,50,2.0,7.0,RX81,6,0.0,0.0,7.0,85.34149293193903,babble-reversed_n13_p256-nine-p307-four-p229-one-p284-three-p248-two-p245-five.wav,0,RX81,1,0.0,0.0,2.0,84.40078082039427,mgb_normalisation,84.40078082039426,90.34149293193902,5,9.0,False,1.1249234676361084
,2024-07-10 16:32:35,sub_101,3,distance,cathedral,spatial_unmasking,1,50,0,0,_three_,talker-p245_sex-f_text-_three_.wav,p245,f,5,51,2.0,7.0,RX81,6,0.0,0.0,7.0,86.34149293193902,babble-reversed_n13_p256-two-p307-five-p318-nine-p248-eight-p245-four-p284-one.wav,0,RX81,1,0.0,0.0,2.0,84.40078082039426,mgb_normalisation,84.40078082039426,90.34149293193902,3,3.0,True,1.062427282333374
,2024-07-10 16:32:39,sub_101,3,distance,cathedral,spatial_unmasking,1,51,0,0,_four_,talker-p245_sex-f_text-_four_.wav,p245,f,5,52,2.0,7.0,RX81,6,0.0,0.0,7.0,86.34149293193902,babble-reversed_n13_p256-four-p229-eight-p307-five-p248-three-p245-one-p284-two.wav,0,RX81,1,0.0,0.0,2.0,84.40078082039426,mgb_normalisation,84.40078082039426,90.34149293193902,4,4.0,True,1.5623300075531006
,2024-07-10 16:34:22,sub_101,3,distance,cathedral,spatial_unmasking,2,52,0,0,_eight_,talker-p245_sex-f_text-_eight_.wav,p245,f,5,1,4.0,7.0,RX81,6,0.0,0.0,7.0,92.34149293193902,babble-reversed_n13_p229-five-p256-one-p318-three-p248-nine-p268-four-p284-eight.wav,2,RX81,3,0.0,0.0,4.0,87.57049330475355,mgb_normalisation,87.57049330475357,90.34149293193902,8,8.0,True,1.49989914894104
,2024-07-10 16:34:26,sub_101,3,distance,cathedral,spatial_unmasking,2,53,0,0,_six_,talker-p245_sex-f_text-_six_.wav,p245,f,5,2,4.0,7.0,RX81,6,0.0,0.0,7.0,88.34149293193902,babble-reversed_n13_p318-nine-p256-five-p307-eight-p268-three-p248-one-p245-four.wav,2,RX81,3,0.0,0.0,4.0,87.57049330475357,mgb_normalisation,87.57049330475357,90.34149293193902,6,6.0,True,1.2499146461486816
,2024-07-10 16:34:30,sub_101,3,distance,cathedral,spatial_unmasking,2,54,0,0,_six_,talker-p245_sex-f_text-_six_.wav,p245,f,5,3,4.0,7.0,RX81,6,0.0,0.0,7.0,84.341492931939,babble-reversed_n13_p256-eight-p318-two-p307-five-p245-four-p268-nine-p284-one.wav,2,RX81,3,0.0,0.0,4.0,87.57049330475357,mgb_normalisation,87.57049330475357,90.34149293193902,6,6.0,True,1.4998958110809326
,2024-07-10 16:34:34,sub_101,3,distance,cathedral,spatial_unmasking,2,55,0,0,_one_,talker-p245_sex-f_text-_one_.wav,p245,f,5,4,4.0,7.0,RX81,6,0.0,0.0,7.0,80.341492931939,babble-reversed_n13_p229-three-p256-one-p307-two-p284-eight-p268-five-p248-nine.wav,2,RX81,3,0.0,0.0,4.0,87.57049330475357,mgb_normalisation,87.57049330475357,90.34149293193902,1,4.0,False,1.4374024868011477
,2024-07-10 16:34:37,sub_101,3,distance,cathedral,spatial_unmasking,2,56,0,0,_four_,talker-p245_sex-f_text-_four_.wav,p245,f,5,5,4.0,7.0,RX81,6,0.0,0.0,7.0,82.34149293193902,babble-reversed_n13_p318-five-p256-nine-p307-eight-p248-two-p245-four-p284-three.wav,2,RX81,3,0.0,0.0,4.0,87.57049330475357,mgb_normalisation,87.57049330475357,90.34149293193902,4,2.0,False,1.2499141693115234
,2024-07-10 16:34:41,sub_101,3,distance,cathedral,spatial_unmasking,2,57,0,0,_five_,talker-p245_sex-f_text-_five_.wav,p245,f,5,6,4.0,7.0,RX81,6,0.0,0.0,7.0,84.341492931939,babble-reversed_n13_p307-nine-p318-two-p256-one-p245-three-p268-four-p248-eight.wav,2,RX81,3,0.0,0.0,4.0,87.57049330475355,mgb_normalisation,87.57049330475357,90.34149293193902,5,5.0,True,1.312411546707153
,2024-07-10 16:34:45,sub_101,3,distance,cathedral,spatial_unmasking,2,58,0,0,_three_,talker-p245_sex-f_text-_three_.wav,p245,f,5,7,4.0,7.0,RX81,6,0.0,0.0,7.0,84.34149293193903,babble-reversed_n13_p318-nine-p256-five-p307-eight-p268-three-p248-one-p245-four.wav,2,RX81,3,0.0,0.0,4.0,87.57049330475357,mgb_normalisation,87.57049330475357,90.34149293193902,3,3.0,True,1.3749065399169922
,2024-07-10 16:34:50,sub_101,3,distance,cathedral,spatial_unmasking,2,59,0,0,_four_,talker-p245_sex-f_text-_four_.wav,p245,f,5,8,4.0,7.0,RX81,6,0.0,0.0,7.0,82.34149293193902,babble-reversed_n13_p307-two-p229-one-p256-five-p248-nine-p284-three-p268-eight.wav,2,RX81,3,0.0,0.0,4.0,87.57049330475357,mgb_normalisation,87.57049330475357,90.34149293193902,4,2.0,False,2.2498462200164795
,2024-07-10 16:34:53,sub_101,3,distance,cathedral,spatial_unmasking,2,60,0,0,_three_,talker-p245_sex-f_text-_three_.wav,p245,f,5,9,4.0,7.0,RX81,6,0.0,0.0,7.0,83.34149293193903,babble-reversed_n13_p318-five-p229-three-p256-four-p268-eight-p248-one-p245-nine.wav,2,RX81,3,0.0,0.0,4.0,87.57049330475357,mgb_normalisation,87.57049330475357,90.34149293193902,3,3.0,True,1.1249830722808838
,2024-07-10 16:34:57,sub_101,3,distance,cathedral,spatial_unmasking,2,61,0,0,_five_,talker-p245_sex-f_text-_five_.wav,p245,f,5,10,4.0,7.0,RX81,6,0.0,0.0,7.0,83.34149293193902,babble-reversed_n13_p318-five-p256-nine-p307-two-p245-eight-p248-one-p284-four.wav,2,RX81,3,0.0,0.0,4.0,87.57049330475357,mgb_normalisation,87.57049330475357,90.34149293193902,5,5.0,True,1.3749065399169922
,2024-07-10 16:35:00,sub_101,3,distance,cathedral,spatial_unmasking,2,62,0,0,_three_,talker-p245_sex-f_text-_three_.wav,p245,f,5,11,4.0,7.0,RX81,6,0.0,0.0,7.0,82.34149293193902,babble-reversed_n13_p318-five-p229-four-p256-eight-p284-one-p245-three-p248-two.wav,2,RX81,3,0.0,0.0,4.0,87.57049330475357,mgb_normalisation,87.57049330475357,90.34149293193902,3,3.0,True,1.1249239444732666
,2024-07-10 16:35:04,sub_101,3,distance,cathedral,spatial_unmasking,2,63,0,0,_four_,talker-p245_sex-f_text-_four_.wav,p245,f,5,12,4.0,7.0,RX81,6,0.0,0.0,7.0,82.34149293193902,babble-reversed_n13_p256-four-p229-two-p318-five-p268-one-p248-eight-p245-three.wav,2,RX81,3,0.0,0.0,4.0,87.57049330475355,mgb_normalisation,87.57049330475357,90.34149293193902,4,2.0,False,1.1873564720153809
,2024-07-10 16:35:08,sub_101,3,distance,cathedral,spatial_unmasking,2,64,0,0,_three_,talker-p245_sex-f_text-_three_.wav,p245,f,5,13,4.0,7.0,RX81,6,0.0,0.0,7.0,83.34149293193903,babble-reversed_n13_p229-two-p307-five-p318-four-p284-one-p248-nine-p268-eight.wav,2,RX81,3,0.0,0.0,4.0,87.57049330475357,mgb_normalisation,87.57049330475357,90.34149293193902,3,3.0,True,1.437401533126831
,2024-07-10 16:35:11,sub_101,3,distance,cathedral,spatial_unmasking,2,65,0,0,_six_,talker-p245_sex-f_text-_six_.wav,p245,f,5,14,4.0,7.0,RX81,6,0.0,0.0,7.0,83.34149293193902,babble-reversed_n13_p318-five-p256-nine-p307-eight-p248-two-p245-four-p284-three.wav,2,RX81,3,0.0,0.0,4.0,87.57049330475357,mgb_normalisation,87.57049330475357,90.34149293193902,6,6.0,True,0.9999334812164308
,2024-07-10 16:35:15,sub_101,3,distance,cathedral,spatial_unmasking,2,66,0,0,_three_,talker-p245_sex-f_text-_three_.wav,p245,f,5,15,4.0,7.0,RX81,6,0.0,0.0,7.0,82.34149293193902,babble-reversed_n13_p318-five-p229-three-p256-four-p268-eight-p248-one-p245-nine.wav,2,RX81,3,0.0,0.0,4.0,87.57049330475357,mgb_normalisation,87.57049330475357,90.34149293193902,3,3.0,True,1.1249229907989502
,2024-07-10 16:35:18,sub_101,3,distance,cathedral,spatial_unmasking,2,67,0,0,_two_,talker-p245_sex-f_text-_two_.wav,p245,f,5,16,4.0,7.0,RX81,6,0.0,0.0,7.0,82.341492931939,babble-reversed_n13_p307-four-p318-three-p256-eight-p284-two-p245-nine-p248-five.wav,2,RX81,3,0.0,0.0,4.0,87.57049330475355,mgb_normalisation,87.57049330475357,90.34149293193902,2,2.0,True,1.0624268054962158
,2024-07-10 16:35:22,sub_101,3,distance,cathedral,spatial_unmasking,2,68,0,0,_three_,talker-p245_sex-f_text-_three_.wav,p245,f,5,17,4.0,7.0,RX81,6,0.0,0.0,7.0,81.34149293193902,babble-reversed_n13_p318-five-p256-nine-p307-two-p245-eight-p248-one-p284-four.wav,2,RX81,3,0.0,0.0,4.0,87.57049330475357,mgb_normalisation,87.57049330475357,90.34149293193902,3,3.0,True,1.2499158382415771
,2024-07-10 16:35:26,sub_101,3,distance,cathedral,spatial_unmasking,2,69,0,0,_nine_,talker-p245_sex-f_text-_nine_.wav,p245,f,5,18,4.0,7.0,RX81,6,0.0,0.0,7.0,81.34149293193902,babble-reversed_n13_p229-five-p256-three-p318-nine-p248-two-p284-four-p268-one.wav,2,RX81,3,0.0,0.0,4.0,87.57049330475357,mgb_normalisation,87.57049330475357,90.34149293193902,9,2.0,False,1.8748729228973389
,2024-07-10 16:35:30,sub_101,3,distance,cathedral,spatial_unmasking,2,70,0,0,_eight_,talker-p245_sex-f_text-_eight_.wav,p245,f,5,19,4.0,7.0,RX81,6,0.0,0.0,7.0,82.34149293193902,babble-reversed_n13_p318-five-p256-nine-p307-eight-p248-two-p245-four-p284-three.wav,2,RX81,3,0.0,0.0,4.0,87.57049330475357,mgb_normalisation,87.57049330475357,90.34149293193902,8,2.0,False,1.1874189376831057
,2024-07-10 16:35:33,sub_101,3,distance,cathedral,spatial_unmasking,2,71,0,0,_five_,talker-p245_sex-f_text-_five_.wav,p245,f,5,20,4.0,7.0,RX81,6,0.0,0.0,7.0,83.34149293193902,babble-reversed_n13_p307-one-p318-five-p229-four-p268-eight-p284-two-p245-three.wav,2,RX81,3,0.0,0.0,4.0,87.57049330475355,mgb_normalisation,87.57049330475357,90.34149293193902,5,5.0,True,0.8124446868896484
,2024-07-10 16:35:37,sub_101,3,distance,cathedral,spatial_unmasking,2,72,0,0,_four_,talker-p245_sex-f_text-_four_.wav,p245,f,5,21,4.0,7.0,RX81,6,0.0,0.0,7.0,83.34149293193903,babble-reversed_n13_p256-five-p229-one-p318-three-p248-nine-p284-eight-p268-two.wav,2,RX81,3,0.0,0.0,4.0,87.57049330475357,mgb_normalisation,87.57049330475357,90.34149293193902,4,4.0,True,2.3123421669006348
,2024-07-10 16:35:41,sub_101,3,distance,cathedral,spatial_unmasking,2,73,0,0,_four_,talker-p245_sex-f_text-_four_.wav,p245,f,5,22,4.0,7.0,RX81,6,0.0,0.0,7.0,82.34149293193902,babble-reversed_n13_p256-three-p318-one-p307-two-p284-nine-p268-four-p245-eight.wav,2,RX81,3,0.0,0.0,4.0,87.57049330475357,mgb_normalisation,87.57049330475357,90.34149293193902,4,3.0,False,1.1874186992645264
,2024-07-10 16:35:46,sub_101,3,distance,cathedral,spatial_unmasking,2,74,0,0,_four_,talker-p245_sex-f_text-_four_.wav,p245,f,5,23,4.0,7.0,RX81,6,0.0,0.0,7.0,83.34149293193903,babble-reversed_n13_p229-one-p318-nine-p256-four-p284-eight-p268-five-p245-two.wav,2,RX81,3,0.0,0.0,4.0,87.57049330475357,mgb_normalisation,87.57049330475357,90.34149293193902,4,8.0,False,2.624821186065674
,2024-07-10 16:35:50,sub_101,3,distance,cathedral,spatial_unmasking,2,75,0,0,_four_,talker-p245_sex-f_text-_four_.wav,p245,f,5,24,4.0,7.0,RX81,6,0.0,0.0,7.0,84.34149293193903,babble-reversed_n13_p256-four-p229-two-p318-five-p268-one-p248-eight-p245-three.wav,2,RX81,3,0.0,0.0,4.0,87.57049330475355,mgb_normalisation,87.57049330475357,90.34149293193902,4,2.0,False,1.5623939037322998
,2024-07-10 16:35:55,sub_101,3,distance,cathedral,spatial_unmasking,2,76,0,0,_nine_,talker-p245_sex-f_text-_nine_.wav,p245,f,5,25,4.0,7.0,RX81,6,0.0,0.0,7.0,85.34149293193903,babble-reversed_n13_p307-nine-p229-one-p256-eight-p248-four-p284-two-p268-three.wav,2,RX81,3,0.0,0.0,4.0,87.57049330475357,mgb_normalisation,87.57049330475357,90.34149293193902,9,9.0,True,2.812308549880981
,2024-07-10 16:35:59,sub_101,3,distance,cathedral,spatial_unmasking,2,77,0,0,_nine_,talker-p245_sex-f_text-_nine_.wav,p245,f,5,26,4.0,7.0,RX81,6,0.0,0.0,7.0,85.34149293193903,babble-reversed_n13_p229-five-p256-three-p318-nine-p248-two-p284-four-p268-one.wav,2,RX81,3,0.0,0.0,4.0,87.57049330475357,mgb_normalisation,87.57049330475357,90.34149293193902,9,9.0,True,0.999931812286377
,2024-07-10 16:36:02,sub_101,3,distance,cathedral,spatial_unmasking,2,78,0,0,_three_,talker-p245_sex-f_text-_three_.wav,p245,f,5,27,4.0,7.0,RX81,6,0.0,0.0,7.0,84.34149293193903,babble-reversed_n13_p256-eight-p318-two-p307-five-p245-four-p268-nine-p284-one.wav,2,RX81,3,0.0,0.0,4.0,87.57049330475357,mgb_normalisation,87.57049330475357,90.34149293193902,3,3.0,True,1.2499146461486816
,2024-07-10 16:36:06,sub_101,3,distance,cathedral,spatial_unmasking,2,79,0,0,_two_,talker-p245_sex-f_text-_two_.wav,p245,f,5,28,4.0,7.0,RX81,6,0.0,0.0,7.0,84.341492931939,babble-reversed_n13_p256-eight-p318-five-p307-four-p245-three-p268-one-p284-nine.wav,2,RX81,3,0.0,0.0,4.0,87.57049330475355,mgb_normalisation,87.57049330475357,90.34149293193902,2,2.0,True,0.9375016689300536
,2024-07-10 16:36:10,sub_101,3,distance,cathedral,spatial_unmasking,2,80,0,0,_six_,talker-p245_sex-f_text-_six_.wav,p245,f,5,29,4.0,7.0,RX81,6,0.0,0.0,7.0,83.34149293193902,babble-reversed_n13_p229-one-p318-nine-p256-four-p284-eight-p268-five-p245-two.wav,2,RX81,3,0.0,0.0,4.0,87.57049330475357,mgb_normalisation,87.57049330475357,90.34149293193902,6,6.0,True,1.6873867511749268
,2024-07-10 16:36:16,sub_101,3,distance,cathedral,spatial_unmasking,2,81,0,0,_nine_,talker-p245_sex-f_text-_nine_.wav,p245,f,5,30,4.0,7.0,RX81,6,0.0,0.0,7.0,83.34149293193902,babble-reversed_n13_p256-three-p318-two-p229-nine-p248-four-p284-one-p268-eight.wav,2,RX81,3,0.0,0.0,4.0,87.57049330475355,mgb_normalisation,87.57049330475357,90.34149293193902,9,4.0,False,4.050684452056885
,2024-07-10 16:36:20,sub_101,3,distance,cathedral,spatial_unmasking,2,82,0,0,_eight_,talker-p245_sex-f_text-_eight_.wav,p245,f,5,31,4.0,7.0,RX81,6,0.0,0.0,7.0,84.341492931939,babble-reversed_n13_p307-two-p256-four-p318-three-p284-eight-p248-five-p245-nine.wav,2,RX81,3,0.0,0.0,4.0,87.57049330475357,mgb_normalisation,87.57049330475357,90.34149293193902,8,3.0,False,1.687385320663452
,2024-07-10 16:36:24,sub_101,3,distance,cathedral,spatial_unmasking,2,83,0,0,_four_,talker-p245_sex-f_text-_four_.wav,p245,f,5,32,4.0,7.0,RX81,6,0.0,0.0,7.0,85.34149293193903,babble-reversed_n13_p229-three-p307-one-p318-two-p245-eight-p268-five-p284-four.wav,2,RX81,3,0.0,0.0,4.0,87.57049330475357,mgb_normalisation,87.57049330475357,90.34149293193902,4,4.0,True,1.187419891357422
,2024-07-10 16:36:28,sub_101,3,distance,cathedral,spatial_unmasking,2,84,0,0,_two_,talker-p245_sex-f_text-_two_.wav,p245,f,5,33,4.0,7.0,RX81,6,0.0,0.0,7.0,85.341492931939,babble-reversed_n13_p318-three-p229-one-p256-eight-p245-five-p248-four-p284-nine.wav,2,RX81,3,0.0,0.0,4.0,87.57049330475357,mgb_normalisation,87.57049330475357,90.34149293193902,2,2.0,True,1.312410831451416
,2024-07-10 16:38:30,sub_101,3,distance,cathedral,spatial_unmasking,3,85,0,0,_five_,talker-p245_sex-f_text-_five_.wav,p245,f,5,1,10.0,7.0,RX81,6,0.0,0.0,7.0,92.34149293193902,babble-reversed_n13_p307-one-p318-five-p229-four-p268-eight-p284-two-p245-three.wav,8,RX81,9,0.0,0.0,10.0,92.0152836843556,mgb_normalisation,92.0152836843556,90.34149293193902,5,5.0,True,1.437401294708252
,2024-07-10 16:38:34,sub_101,3,distance,cathedral,spatial_unmasking,3,86,0,0,_three_,talker-p245_sex-f_text-_three_.wav,p245,f,5,2,10.0,7.0,RX81,6,0.0,0.0,7.0,88.34149293193903,babble-reversed_n13_p256-five-p307-nine-p318-three-p284-eight-p268-one-p248-two.wav,8,RX81,9,0.0,0.0,10.0,92.0152836843556,mgb_normalisation,92.0152836843556,90.34149293193902,3,3.0,True,0.9374361038208008
,2024-07-10 16:38:38,sub_101,3,distance,cathedral,spatial_unmasking,3,87,0,0,_three_,talker-p245_sex-f_text-_three_.wav,p245,f,5,3,10.0,7.0,RX81,6,0.0,0.0,7.0,84.34149293193903,babble-reversed_n13_p229-nine-p256-four-p318-three-p268-eight-p248-two-p284-five.wav,8,RX81,9,0.0,0.0,10.0,92.0152836843556,mgb_normalisation,92.0152836843556,90.34149293193902,3,3.0,True,2.2498464584350586
,2024-07-10 16:38:42,sub_101,3,distance,cathedral,spatial_unmasking,3,88,0,0,_two_,talker-p245_sex-f_text-_two_.wav,p245,f,5,4,10.0,7.0,RX81,6,0.0,0.0,7.0,80.341492931939,babble-reversed_n13_p318-three-p307-one-p256-five-p248-nine-p245-two-p284-eight.wav,8,RX81,9,0.0,0.0,10.0,92.0152836843556,mgb_normalisation,92.0152836843556,90.34149293193902,2,2.0,True,1.6248879432678225
,2024-07-10 16:38:46,sub_101,3,distance,cathedral,spatial_unmasking,3,89,0,0,_three_,talker-p245_sex-f_text-_three_.wav,p245,f,5,5,10.0,7.0,RX81,6,0.0,0.0,7.0,76.34149293193902,babble-reversed_n13_p229-nine-p318-one-p307-two-p248-eight-p245-five-p284-four.wav,8,RX81,9,0.0,0.0,10.0,92.0152836843556,mgb_normalisation,92.0152836843556,90.34149293193902,3,4.0,False,1.437401533126831
,2024-07-10 16:38:50,sub_101,3,distance,cathedral,spatial_unmasking,3,90,0,0,_four_,talker-p245_sex-f_text-_four_.wav,p245,f,5,6,10.0,7.0,RX81,6,0.0,0.0,7.0,78.34149293193902,babble-reversed_n13_p256-two-p307-five-p318-nine-p248-eight-p245-four-p284-one.wav,8,RX81,9,0.0,0.0,10.0,92.0152836843556,mgb_normalisation,92.0152836843556,90.34149293193902,4,4.0,True,1.3749058246612549
,2024-07-10 16:38:53,sub_101,3,distance,cathedral,spatial_unmasking,3,91,0,0,_six_,talker-p245_sex-f_text-_six_.wav,p245,f,5,7,10.0,7.0,RX81,6,0.0,0.0,7.0,78.34149293193902,babble-reversed_n13_p307-nine-p318-two-p256-one-p245-three-p268-four-p248-eight.wav,8,RX81,9,0.0,0.0,10.0,92.0152836843556,mgb_normalisation,92.0152836843556,90.34149293193902,6,6.0,True,1.1874196529388428
,2024-07-10 16:38:57,sub_101,3,distance,cathedral,spatial_unmasking,3,92,0,0,_three_,talker-p245_sex-f_text-_three_.wav,p245,f,5,8,10.0,7.0,RX81,6,0.0,0.0,7.0,76.34149293193902,babble-reversed_n13_p318-five-p256-nine-p307-eight-p248-two-p245-four-p284-three.wav,8,RX81,9,0.0,0.0,10.0,92.0152836843556,mgb_normalisation,92.0152836843556,90.34149293193902,3,2.0,False,1.3749067783355713
,2024-07-10 16:39:01,sub_101,3,distance,cathedral,spatial_unmasking,3,93,0,0,_one_,talker-p245_sex-f_text-_one_.wav,p245,f,5,9,10.0,7.0,RX81,6,0.0,0.0,7.0,77.341492931939,babble-reversed_n13_p256-two-p307-five-p318-nine-p248-eight-p245-four-p284-one.wav,8,RX81,9,0.0,0.0,10.0,92.0152836843556,mgb_normalisation,92.0152836843556,90.34149293193902,1,4.0,False,1.4374027252197266
,2024-07-10 16:39:05,sub_101,3,distance,cathedral,spatial_unmasking,3,94,0,0,_four_,talker-p245_sex-f_text-_four_.wav,p245,f,5,10,10.0,7.0,RX81,6,0.0,0.0,7.0,78.34149293193902,babble-reversed_n13_p318-five-p256-nine-p307-eight-p248-two-p245-four-p284-three.wav,8,RX81,9,0.0,0.0,10.0,92.0152836843556,mgb_normalisation,92.0152836843556,90.34149293193902,4,2.0,False,1.499897003173828
,2024-07-10 16:39:09,sub_101,3,distance,cathedral,spatial_unmasking,3,95,0,0,_one_,talker-p245_sex-f_text-_one_.wav,p245,f,5,11,10.0,7.0,RX81,6,0.0,0.0,7.0,79.341492931939,babble-reversed_n13_p229-one-p318-nine-p256-four-p284-eight-p268-five-p245-two.wav,8,RX81,9,0.0,0.0,10.0,92.0152836843556,mgb_normalisation,92.0152836843556,90.34149293193902,1,1.0,True,1.2499139308929443
,2024-07-10 16:39:14,sub_101,3,distance,cathedral,spatial_unmasking,3,96,0,0,_four_,talker-p245_sex-f_text-_four_.wav,p245,f,5,12,10.0,7.0,RX81,6,0.0,0.0,7.0,79.34149293193903,babble-reversed_n13_p256-three-p318-two-p229-nine-p248-four-p284-one-p268-eight.wav,8,RX81,9,0.0,0.0,10.0,92.0152836843556,mgb_normalisation,92.0152836843556,90.34149293193902,4,4.0,True,3.249722480773926
,2024-07-10 16:39:18,sub_101,3,distance,cathedral,spatial_unmasking,3,97,0,0,_one_,talker-p245_sex-f_text-_one_.wav,p245,f,5,13,10.0,7.0,RX81,6,0.0,0.0,7.0,78.341492931939,babble-reversed_n13_p307-two-p256-four-p318-three-p284-eight-p248-five-p245-nine.wav,8,RX81,9,0.0,0.0,10.0,92.0152836843556,mgb_normalisation,92.0152836843556,90.34149293193902,1,9.0,False,1.4373383522033691
,2024-07-10 16:39:21,sub_101,3,distance,cathedral,spatial_unmasking,3,98,0,0,_eight_,talker-p245_sex-f_text-_eight_.wav,p245,f,5,14,10.0,7.0,RX81,6,0.0,0.0,7.0,79.34149293193902,babble-reversed_n13_p318-nine-p256-five-p307-eight-p268-three-p248-one-p245-four.wav,8,RX81,9,0.0,0.0,10.0,92.0152836843556,mgb_normalisation,92.0152836843556,90.34149293193902,8,3.0,False,1.124922513961792
,2024-07-10 16:39:25,sub_101,3,distance,cathedral,spatial_unmasking,3,99,0,0,_one_,talker-p245_sex-f_text-_one_.wav,p245,f,5,15,10.0,7.0,RX81,6,0.0,0.0,7.0,80.341492931939,babble-reversed_n13_p229-two-p256-three-p318-eight-p284-five-p268-four-p245-one.wav,8,RX81,9,0.0,0.0,10.0,92.0152836843556,mgb_normalisation,92.0152836843556,90.34149293193902,1,1.0,True,1.4373466968536377
,2024-07-10 16:39:29,sub_101,3,distance,cathedral,spatial_unmasking,3,100,0,0,_six_,talker-p245_sex-f_text-_six_.wav,p245,f,5,16,10.0,7.0,RX81,6,0.0,0.0,7.0,80.341492931939,babble-reversed_n13_p307-two-p229-one-p256-five-p248-nine-p284-three-p268-eight.wav,8,RX81,9,0.0,0.0,10.0,92.0152836843556,mgb_normalisation,92.0152836843556,90.34149293193902,6,6.0,True,1.1874194145202637
,2024-07-10 16:39:33,sub_101,3,distance,cathedral,spatial_unmasking,3,101,0,0,_five_,talker-p245_sex-f_text-_five_.wav,p245,f,5,17,10.0,7.0,RX81,6,0.0,0.0,7.0,79.34149293193902,babble-reversed_n13_p229-two-p307-five-p318-four-p284-one-p248-nine-p268-eight.wav,8,RX81,9,0.0,0.0,10.0,92.0152836843556,mgb_normalisation,92.0152836843556,90.34149293193902,5,5.0,True,1.9373676776885984
,2024-07-10 16:39:40,sub_101,3,distance,cathedral,spatial_unmasking,3,102,0,0,_three_,talker-p245_sex-f_text-_three_.wav,p245,f,5,18,10.0,7.0,RX81,6,0.0,0.0,7.0,79.34149293193902,babble-reversed_n13_p318-five-p256-nine-p307-eight-p248-two-p245-four-p284-three.wav,8,RX81,9,0.0,0.0,10.0,92.0152836843556,mgb_normalisation,92.0152836843556,90.34149293193902,3,2.0,False,4.812172889709473
,2024-07-10 16:39:44,sub_101,3,distance,cathedral,spatial_unmasking,3,103,0,0,_nine_,talker-p245_sex-f_text-_nine_.wav,p245,f,5,19,10.0,7.0,RX81,6,0.0,0.0,7.0,80.34149293193903,babble-reversed_n13_p256-eight-p318-two-p307-five-p245-four-p268-nine-p284-one.wav,8,RX81,9,0.0,0.0,10.0,92.0152836843556,mgb_normalisation,92.0152836843556,90.34149293193902,9,9.0,True,1.1249232292175293
,2024-07-10 16:39:48,sub_101,3,distance,cathedral,spatial_unmasking,3,104,0,0,_two_,talker-p245_sex-f_text-_two_.wav,p245,f,5,20,10.0,7.0,RX81,6,0.0,0.0,7.0,80.341492931939,babble-reversed_n13_p318-five-p229-three-p256-four-p268-eight-p248-one-p245-nine.wav,8,RX81,9,0.0,0.0,10.0,92.0152836843556,mgb_normalisation,92.0152836843556,90.34149293193902,2,2.0,True,1.2499160766601562
,2024-07-10 16:39:52,sub_101,3,distance,cathedral,spatial_unmasking,3,105,0,0,_six_,talker-p245_sex-f_text-_six_.wav,p245,f,5,21,10.0,7.0,RX81,6,0.0,0.0,7.0,79.341492931939,babble-reversed_n13_p229-nine-p256-four-p318-three-p268-eight-p248-two-p284-five.wav,8,RX81,9,0.0,0.0,10.0,92.0152836843556,mgb_normalisation,92.0152836843556,90.34149293193902,6,6.0,True,1.6248893737792969
,2024-07-10 16:39:56,sub_101,3,distance,cathedral,spatial_unmasking,3,106,0,0,_one_,talker-p245_sex-f_text-_one_.wav,p245,f,5,22,10.0,7.0,RX81,6,0.0,0.0,7.0,79.341492931939,babble-reversed_n13_p256-four-p229-two-p318-five-p268-one-p248-eight-p245-three.wav,8,RX81,9,0.0,0.0,10.0,92.0152836843556,mgb_normalisation,92.0152836843556,90.34149293193902,1,4.0,False,2.437333583831787
,2024-07-10 16:40:00,sub_101,3,distance,cathedral,spatial_unmasking,3,107,0,0,_five_,talker-p245_sex-f_text-_five_.wav,p245,f,5,23,10.0,7.0,RX81,6,0.0,0.0,7.0,80.34149293193903,babble-reversed_n13_p229-five-p318-three-p307-two-p245-four-p284-nine-p248-eight.wav,8,RX81,9,0.0,0.0,10.0,92.0152836843556,mgb_normalisation,92.0152836843556,90.34149293193902,5,5.0,True,0.9999313354492188
,2024-07-10 16:40:04,sub_101,3,distance,cathedral,spatial_unmasking,3,108,0,0,_five_,talker-p245_sex-f_text-_five_.wav,p245,f,5,24,10.0,7.0,RX81,6,0.0,0.0,7.0,80.34149293193903,babble-reversed_n13_p318-three-p229-one-p256-eight-p245-five-p248-four-p284-nine.wav,8,RX81,9,0.0,0.0,10.0,92.0152836843556,mgb_normalisation,92.0152836843556,90.34149293193902,5,9.0,False,1.4374024868011477
,2024-07-10 16:40:07,sub_101,3,distance,cathedral,spatial_unmasking,3,109,0,0,_six_,talker-p245_sex-f_text-_six_.wav,p245,f,5,25,10.0,7.0,RX81,6,0.0,0.0,7.0,81.34149293193902,babble-reversed_n13_p307-two-p229-one-p256-five-p248-nine-p284-three-p268-eight.wav,8,RX81,9,0.0,0.0,10.0,92.0152836843556,mgb_normalisation,92.0152836843556,90.34149293193902,6,6.0,True,0.9373729228973388
,2024-07-10 16:40:11,sub_101,3,distance,cathedral,spatial_unmasking,3,110,0,0,_four_,talker-p245_sex-f_text-_four_.wav,p245,f,5,26,10.0,7.0,RX81,6,0.0,0.0,7.0,81.34149293193902,babble-reversed_n13_p256-four-p307-eight-p318-two-p248-three-p284-nine-p268-one.wav,8,RX81,9,0.0,0.0,10.0,92.0152836843556,mgb_normalisation,92.0152836843556,90.34149293193902,4,2.0,False,1.4374032020568848
,2024-07-10 16:40:16,sub_101,3,distance,cathedral,spatial_unmasking,3,111,0,0,_eight_,talker-p245_sex-f_text-_eight_.wav,p245,f,5,27,10.0,7.0,RX81,6,0.0,0.0,7.0,82.34149293193902,babble-reversed_n13_p307-nine-p229-one-p256-eight-p248-four-p284-two-p268-three.wav,8,RX81,9,0.0,0.0,10.0,92.0152836843556,mgb_normalisation,92.0152836843556,90.34149293193902,8,8.0,True,2.437397718429565
,2024-07-10 16:40:19,sub_101,3,distance,cathedral,spatial_unmasking,3,112,0,0,_three_,talker-p245_sex-f_text-_three_.wav,p245,f,5,28,10.0,7.0,RX81,6,0.0,0.0,7.0,82.34149293193902,babble-reversed_n13_p256-two-p307-five-p318-nine-p248-eight-p245-four-p284-one.wav,8,RX81,9,0.0,0.0,10.0,92.0152836843556,mgb_normalisation,92.0152836843556,90.34149293193902,3,3.0,True,1.0624277591705322
,2024-07-10 16:40:24,sub_101,3,distance,cathedral,spatial_unmasking,3,113,0,0,_eight_,talker-p245_sex-f_text-_eight_.wav,p245,f,5,29,10.0,7.0,RX81,6,0.0,0.0,7.0,81.34149293193902,babble-reversed_n13_p307-five-p229-three-p318-nine-p245-four-p268-eight-p284-two.wav,8,RX81,9,0.0,0.0,10.0,92.0152836843556,mgb_normalisation,92.0152836843556,90.34149293193902,8,8.0,True,2.749812364578247
,2024-07-10 16:40:28,sub_101,3,distance,cathedral,spatial_unmasking,3,114,0,0,_two_,talker-p245_sex-f_text-_two_.wav,p245,f,5,30,10.0,7.0,RX81,6,0.0,0.0,7.0,81.341492931939,babble-reversed_n13_p256-four-p229-eight-p307-five-p248-three-p245-one-p284-two.wav,8,RX81,9,0.0,0.0,10.0,92.0152836843556,mgb_normalisation,92.0152836843556,90.34149293193902,2,2.0,True,0.999931812286377
,2024-07-10 16:40:31,sub_101,3,distance,cathedral,spatial_unmasking,3,115,0,0,_six_,talker-p245_sex-f_text-_six_.wav,p245,f,5,31,10.0,7.0,RX81,6,0.0,0.0,7.0,80.341492931939,babble-reversed_n13_p229-two-p256-three-p318-eight-p284-five-p268-four-p245-one.wav,8,RX81,9,0.0,0.0,10.0,92.0152836843556,mgb_normalisation,92.0152836843556,90.34149293193902,6,6.0,True,1.3124113082885742
,2024-07-10 16:40:35,sub_101,3,distance,cathedral,spatial_unmasking,3,116,0,0,_eight_,talker-p245_sex-f_text-_eight_.wav,p245,f,5,32,10.0,7.0,RX81,6,0.0,0.0,7.0,80.34149293193903,babble-reversed_n13_p318-one-p307-two-p256-eight-p284-three-p248-five-p245-four.wav,8,RX81,9,0.0,0.0,10.0,92.0152836843556,mgb_normalisation,92.0152836843556,90.34149293193902,8,8.0,True,1.4374654293060305
,2024-07-10 16:40:40,sub_101,3,distance,cathedral,spatial_unmasking,3,117,0,0,_eight_,talker-p245_sex-f_text-_eight_.wav,p245,f,5,33,10.0,7.0,RX81,6,0.0,0.0,7.0,79.34149293193902,babble-reversed_n13_p256-eight-p318-five-p307-four-p245-three-p268-one-p284-nine.wav,8,RX81,9,0.0,0.0,10.0,92.0152836843556,mgb_normalisation,92.0152836843556,90.34149293193902,8,4.0,False,1.9373674392700195
,2024-07-10 16:40:45,sub_101,3,distance,cathedral,spatial_unmasking,3,118,0,0,_two_,talker-p245_sex-f_text-_two_.wav,p245,f,5,34,10.0,7.0,RX81,6,0.0,0.0,7.0,80.341492931939,babble-reversed_n13_p307-two-p229-one-p256-five-p248-nine-p284-three-p268-eight.wav,8,RX81,9,0.0,0.0,10.0,92.0152836843556,mgb_normalisation,92.0152836843556,90.34149293193902,2,2.0,True,3.062291145324707
,2024-07-10 16:40:49,sub_101,3,distance,cathedral,spatial_unmasking,3,119,0,0,_eight_,talker-p245_sex-f_text-_eight_.wav,p245,f,5,35,10.0,7.0,RX81,6,0.0,0.0,7.0,80.34149293193903,babble-reversed_n13_p229-three-p307-one-p318-two-p245-eight-p268-five-p284-four.wav,8,RX81,9,0.0,0.0,10.0,92.0152836843556,mgb_normalisation,92.0152836843556,90.34149293193902,8,1.0,False,1.7498812675476074
,2024-07-10 16:40:53,sub_101,3,distance,cathedral,spatial_unmasking,3,120,0,0,_nine_,talker-p245_sex-f_text-_nine_.wav,p245,f,5,36,10.0,7.0,RX81,6,0.0,0.0,7.0,81.34149293193902,babble-reversed_n13_p318-nine-p256-five-p307-eight-p268-three-p248-one-p245-four.wav,8,RX81,9,0.0,0.0,10.0,92.0152836843556,mgb_normalisation,92.0152836843556,90.34149293193902,9,9.0,True,1.2499151229858398
,2024-07-10 16:40:57,sub_101,3,distance,cathedral,spatial_unmasking,3,121,0,0,_nine_,talker-p245_sex-f_text-_nine_.wav,p245,f,5,37,10.0,7.0,RX81,6,0.0,0.0,7.0,81.34149293193902,babble-reversed_n13_p318-nine-p256-five-p307-eight-p268-three-p248-one-p245-four.wav,8,RX81,9,0.0,0.0,10.0,92.0152836843556,mgb_normalisation,92.0152836843556,90.34149293193902,9,9.0,True,1.999861478805542
,2024-07-10 16:42:17,sub_101,3,distance,cathedral,spatial_unmasking,4,122,0,0,_three_,talker-p245_sex-f_text-_three_.wav,p245,f,5,1,12.0,7.0,RX81,6,0.0,0.0,7.0,92.34149293193902,babble-reversed_n13_p229-three-p256-one-p307-two-p284-eight-p268-five-p248-nine.wav,10,RX81,11,0.0,0.0,12.0,93.00003341222718,mgb_normalisation,93.00003341222715,90.34149293193902,3,3.0,True,1.062427043914795
,2024-07-10 16:42:20,sub_101,3,distance,cathedral,spatial_unmasking,4,123,0,0,_four_,talker-p245_sex-f_text-_four_.wav,p245,f,5,2,12.0,7.0,RX81,6,0.0,0.0,7.0,88.34149293193903,babble-reversed_n13_p318-five-p256-nine-p307-two-p245-eight-p248-one-p284-four.wav,10,RX81,11,0.0,0.0,12.0,93.00003341222718,mgb_normalisation,93.00003341222715,90.34149293193902,4,4.0,True,1.3749067783355713
,2024-07-10 16:42:24,sub_101,3,distance,cathedral,spatial_unmasking,4,124,0,0,_six_,talker-p245_sex-f_text-_six_.wav,p245,f,5,3,12.0,7.0,RX81,6,0.0,0.0,7.0,84.341492931939,babble-reversed_n13_p307-nine-p229-one-p256-eight-p248-four-p284-two-p268-three.wav,10,RX81,11,0.0,0.0,12.0,93.00003341222718,mgb_normalisation,93.00003341222715,90.34149293193902,6,6.0,True,1.4373579025268557
,2024-07-10 16:42:28,sub_101,3,distance,cathedral,spatial_unmasking,4,125,0,0,_four_,talker-p245_sex-f_text-_four_.wav,p245,f,5,4,12.0,7.0,RX81,6,0.0,0.0,7.0,80.34149293193903,babble-reversed_n13_p229-one-p318-eight-p256-three-p268-nine-p248-five-p284-four.wav,10,RX81,11,0.0,0.0,12.0,93.00003341222715,mgb_normalisation,93.00003341222715,90.34149293193902,4,4.0,True,1.3748412132263184
,2024-07-10 16:42:32,sub_101,3,distance,cathedral,spatial_unmasking,4,126,0,0,_four_,talker-p245_sex-f_text-_four_.wav,p245,f,5,5,12.0,7.0,RX81,6,0.0,0.0,7.0,76.34149293193903,babble-reversed_n13_p256-four-p229-eight-p307-five-p248-three-p245-one-p284-two.wav,10,RX81,11,0.0,0.0,12.0,93.00003341222715,mgb_normalisation,93.00003341222715,90.34149293193902,4,5.0,False,1.4374041557312012
,2024-07-10 16:42:36,sub_101,3,distance,cathedral,spatial_unmasking,4,127,0,0,_one_,talker-p245_sex-f_text-_one_.wav,p245,f,5,6,12.0,7.0,RX81,6,0.0,0.0,7.0,78.341492931939,babble-reversed_n13_p318-one-p307-two-p256-eight-p284-three-p248-five-p245-four.wav,10,RX81,11,0.0,0.0,12.0,93.00003341222718,mgb_normalisation,93.00003341222715,90.34149293193902,1,8.0,False,2.062359094619751
,2024-07-10 16:42:40,sub_101,3,distance,cathedral,spatial_unmasking,4,128,0,0,_three_,talker-p245_sex-f_text-_three_.wav,p245,f,5,7,12.0,7.0,RX81,6,0.0,0.0,7.0,80.34149293193903,babble-reversed_n13_p256-eight-p318-five-p307-four-p245-three-p268-one-p284-nine.wav,10,RX81,11,0.0,0.0,12.0,93.00003341222715,mgb_normalisation,93.00003341222715,90.34149293193902,3,3.0,True,1.3124103546142578
,2024-07-10 16:42:43,sub_101,3,distance,cathedral,spatial_unmasking,4,129,0,0,_three_,talker-p245_sex-f_text-_three_.wav,p245,f,5,8,12.0,7.0,RX81,6,0.0,0.0,7.0,80.34149293193903,babble-reversed_n13_p318-nine-p256-five-p307-eight-p268-three-p248-one-p245-four.wav,10,RX81,11,0.0,0.0,12.0,93.00003341222718,mgb_normalisation,93.00003341222715,90.34149293193902,3,3.0,True,1.1248583793640137
,2024-07-10 16:42:48,sub_101,3,distance,cathedral,spatial_unmasking,4,130,0,0,_nine_,talker-p245_sex-f_text-_nine_.wav,p245,f,5,9,12.0,7.0,RX81,6,0.0,0.0,7.0,78.34149293193902,babble-reversed_n13_p256-three-p318-two-p229-nine-p248-four-p284-one-p268-eight.wav,10,RX81,11,0.0,0.0,12.0,93.00003341222715,mgb_normalisation,93.00003341222715,90.34149293193902,9,9.0,True,1.8123762607574463
,2024-07-10 16:42:52,sub_101,3,distance,cathedral,spatial_unmasking,4,131,0,0,_nine_,talker-p245_sex-f_text-_nine_.wav,p245,f,5,10,12.0,7.0,RX81,6,0.0,0.0,7.0,78.34149293193902,babble-reversed_n13_p256-four-p307-eight-p318-two-p248-three-p284-nine-p268-one.wav,10,RX81,11,0.0,0.0,12.0,93.00003341222718,mgb_normalisation,93.00003341222715,90.34149293193902,9,5.0,False,1.812377691268921
,2024-07-10 16:42:55,sub_101,3,distance,cathedral,spatial_unmasking,4,132,0,0,_two_,talker-p245_sex-f_text-_two_.wav,p245,f,5,11,12.0,7.0,RX81,6,0.0,0.0,7.0,79.341492931939,babble-reversed_n13_p229-one-p318-eight-p256-three-p268-nine-p248-five-p284-four.wav,10,RX81,11,0.0,0.0,12.0,93.00003341222715,mgb_normalisation,93.00003341222715,90.34149293193902,2,2.0,True,0.9999313354492188
,2024-07-10 16:42:59,sub_101,3,distance,cathedral,spatial_unmasking,4,133,0,0,_two_,talker-p245_sex-f_text-_two_.wav,p245,f,5,12,12.0,7.0,RX81,6,0.0,0.0,7.0,79.341492931939,babble-reversed_n13_p318-five-p229-four-p256-eight-p284-one-p245-three-p248-two.wav,10,RX81,11,0.0,0.0,12.0,93.00003341222718,mgb_normalisation,93.00003341222715,90.34149293193902,2,2.0,True,1.562394142150879
,2024-07-10 16:43:03,sub_101,3,distance,cathedral,spatial_unmasking,4,134,0,0,_six_,talker-p245_sex-f_text-_six_.wav,p245,f,5,13,12.0,7.0,RX81,6,0.0,0.0,7.0,78.34149293193902,babble-reversed_n13_p256-four-p229-two-p318-five-p268-one-p248-eight-p245-three.wav,10,RX81,11,0.0,0.0,12.0,93.00003341222715,mgb_normalisation,93.00003341222715,90.34149293193902,6,6.0,True,1.0624265670776367
,2024-07-10 16:43:07,sub_101,3,distance,cathedral,spatial_unmasking,4,135,0,0,_five_,talker-p245_sex-f_text-_five_.wav,p245,f,5,14,12.0,7.0,RX81,6,0.0,0.0,7.0,78.34149293193902,babble-reversed_n13_p318-four-p256-five-p229-three-p284-one-p245-eight-p248-nine.wav,10,RX81,11,0.0,0.0,12.0,93.00003341222718,mgb_normalisation,93.00003341222715,90.34149293193902,5,5.0,True,1.8748764991760247
,2024-07-10 16:43:11,sub_101,3,distance,cathedral,spatial_unmasking,4,136,0,0,_one_,talker-p245_sex-f_text-_one_.wav,p245,f,5,15,12.0,7.0,RX81,6,0.0,0.0,7.0,77.341492931939,babble-reversed_n13_p307-five-p229-two-p318-four-p248-three-p245-nine-p268-eight.wav,10,RX81,11,0.0,0.0,12.0,93.00003341222715,mgb_normalisation,93.00003341222715,90.34149293193902,1,8.0,False,2.1872870922088623
,2024-07-10 16:43:15,sub_101,3,distance,cathedral,spatial_unmasking,4,137,0,0,_six_,talker-p245_sex-f_text-_six_.wav,p245,f,5,16,12.0,7.0,RX81,6,0.0,0.0,7.0,78.34149293193902,babble-reversed_n13_p229-five-p318-two-p307-eight-p268-three-p248-four-p245-one.wav,10,RX81,11,0.0,0.0,12.0,93.00003341222718,mgb_normalisation,93.00003341222715,90.34149293193902,6,6.0,True,1.1874184608459473
,2024-07-10 16:43:18,sub_101,3,distance,cathedral,spatial_unmasking,4,138,0,0,_six_,talker-p245_sex-f_text-_six_.wav,p245,f,5,17,12.0,7.0,RX81,6,0.0,0.0,7.0,78.34149293193902,babble-reversed_n13_p318-five-p229-three-p256-four-p268-eight-p248-one-p245-nine.wav,10,RX81,11,0.0,0.0,12.0,93.00003341222718,mgb_normalisation,93.00003341222715,90.34149293193902,6,6.0,True,0.9999310970306396
,2024-07-10 16:43:22,sub_101,3,distance,cathedral,spatial_unmasking,4,139,0,0,_eight_,talker-p245_sex-f_text-_eight_.wav,p245,f,5,18,12.0,7.0,RX81,6,0.0,0.0,7.0,77.34149293193902,babble-reversed_n13_p256-nine-p307-four-p229-one-p284-three-p248-two-p245-five.wav,10,RX81,11,0.0,0.0,12.0,93.00003341222718,mgb_normalisation,93.00003341222715,90.34149293193902,8,8.0,True,1.2499158382415771
,2024-07-10 16:43:27,sub_101,3,distance,cathedral,spatial_unmasking,4,140,0,0,_nine_,talker-p245_sex-f_text-_nine_.wav,p245,f,5,19,12.0,7.0,RX81,6,0.0,0.0,7.0,77.34149293193902,babble-reversed_n13_p307-two-p256-four-p318-three-p284-eight-p248-five-p245-nine.wav,10,RX81,11,0.0,0.0,12.0,93.00003341222718,mgb_normalisation,93.00003341222715,90.34149293193902,9,4.0,False,2.874805212020874
,2024-07-10 16:43:31,sub_101,3,distance,cathedral,spatial_unmasking,4,141,0,0,_two_,talker-p245_sex-f_text-_two_.wav,p245,f,5,20,12.0,7.0,RX81,6,0.0,0.0,7.0,78.341492931939,babble-reversed_n13_p256-five-p307-nine-p318-three-p284-eight-p268-one-p248-two.wav,10,RX81,11,0.0,0.0,12.0,93.00003341222715,mgb_normalisation,93.00003341222715,90.34149293193902,2,2.0,True,0.8125090599060059
,2024-07-10 16:43:34,sub_101,3,distance,cathedral,spatial_unmasking,4,142,0,0,_four_,talker-p245_sex-f_text-_four_.wav,p245,f,5,21,12.0,7.0,RX81,6,0.0,0.0,7.0,78.34149293193902,babble-reversed_n13_p229-five-p318-two-p307-eight-p268-three-p248-four-p245-one.wav,10,RX81,11,0.0,0.0,12.0,93.00003341222718,mgb_normalisation,93.00003341222715,90.34149293193902,4,4.0,True,1.1249210834503174
,2024-07-10 16:43:38,sub_101,3,distance,cathedral,spatial_unmasking,4,143,0,0,_five_,talker-p245_sex-f_text-_five_.wav,p245,f,5,22,12.0,7.0,RX81,6,0.0,0.0,7.0,77.34149293193902,babble-reversed_n13_p318-nine-p307-eight-p229-two-p284-one-p248-three-p245-five.wav,10,RX81,11,0.0,0.0,12.0,93.00003341222718,mgb_normalisation,93.00003341222715,90.34149293193902,5,5.0,True,1.124922513961792
,2024-07-10 16:43:41,sub_101,3,distance,cathedral,spatial_unmasking,4,144,0,0,_two_,talker-p245_sex-f_text-_two_.wav,p245,f,5,23,12.0,7.0,RX81,6,0.0,0.0,7.0,77.341492931939,babble-reversed_n13_p256-four-p307-eight-p318-two-p248-three-p284-nine-p268-one.wav,10,RX81,11,0.0,0.0,12.0,93.00003341222718,mgb_normalisation,93.00003341222715,90.34149293193902,2,2.0,True,1.0624277591705322
,2024-07-10 16:43:45,sub_101,3,distance,cathedral,spatial_unmasking,4,145,0,0,_five_,talker-p245_sex-f_text-_five_.wav,p245,f,5,24,12.0,7.0,RX81,6,0.0,0.0,7.0,76.34149293193902,babble-reversed_n13_p229-one-p318-eight-p256-three-p268-nine-p248-five-p284-four.wav,10,RX81,11,0.0,0.0,12.0,93.00003341222715,mgb_normalisation,93.00003341222715,90.34149293193902,5,5.0,True,1.2499148845672607
,2024-07-10 16:43:48,sub_101,3,distance,cathedral,spatial_unmasking,4,146,0,0,_four_,talker-p245_sex-f_text-_four_.wav,p245,f,5,25,12.0,7.0,RX81,6,0.0,0.0,7.0,76.34149293193903,babble-reversed_n13_p318-five-p256-nine-p307-two-p245-eight-p248-one-p284-four.wav,10,RX81,11,0.0,0.0,12.0,93.00003341222718,mgb_normalisation,93.00003341222715,90.34149293193902,4,4.0,True,1.3124101161956787
,2024-07-10 16:43:52,sub_101,3,distance,cathedral,spatial_unmasking,4,147,0,0,_nine_,talker-p245_sex-f_text-_nine_.wav,p245,f,5,26,12.0,7.0,RX81,6,0.0,0.0,7.0,75.34149293193902,babble-reversed_n13_p256-five-p307-nine-p318-three-p284-eight-p268-one-p248-two.wav,10,RX81,11,0.0,0.0,12.0,93.00003341222715,mgb_normalisation,93.00003341222715,90.34149293193902,9,8.0,False,1.437401533126831
,2024-07-10 16:43:56,sub_101,3,distance,cathedral,spatial_unmasking,4,148,0,0,_three_,talker-p245_sex-f_text-_three_.wav,p245,f,5,27,12.0,7.0,RX81,6,0.0,0.0,7.0,76.34149293193902,babble-reversed_n13_p307-nine-p318-two-p256-one-p245-three-p268-four-p248-eight.wav,10,RX81,11,0.0,0.0,12.0,93.00003341222715,mgb_normalisation,93.00003341222715,90.34149293193902,3,3.0,True,1.187384843826294
,2024-07-10 16:44:00,sub_101,3,distance,cathedral,spatial_unmasking,4,149,0,0,_five_,talker-p245_sex-f_text-_five_.wav,p245,f,5,28,12.0,7.0,RX81,6,0.0,0.0,7.0,76.34149293193902,babble-reversed_n13_p256-five-p229-one-p318-three-p248-nine-p284-eight-p268-two.wav,10,RX81,11,0.0,0.0,12.0,93.00003341222718,mgb_normalisation,93.00003341222715,90.34149293193902,5,2.0,False,1.7498815059661863
,2024-07-10 16:44:03,sub_101,3,distance,cathedral,spatial_unmasking,4,150,0,0,_two_,talker-p245_sex-f_text-_two_.wav,p245,f,5,29,12.0,7.0,RX81,6,0.0,0.0,7.0,77.341492931939,babble-reversed_n13_p318-three-p307-one-p256-five-p248-nine-p245-two-p284-eight.wav,10,RX81,11,0.0,0.0,12.0,93.00003341222718,mgb_normalisation,93.00003341222715,90.34149293193902,2,2.0,True,1.18748140335083
,2024-07-10 16:44:07,sub_101,3,distance,cathedral,spatial_unmasking,4,151,0,0,_eight_,talker-p245_sex-f_text-_eight_.wav,p245,f,5,30,12.0,7.0,RX81,6,0.0,0.0,7.0,77.34149293193902,babble-reversed_n13_p229-one-p318-eight-p256-three-p268-two-p245-five-p248-nine.wav,10,RX81,11,0.0,0.0,12.0,93.00003341222715,mgb_normalisation,93.00003341222715,90.34149293193902,8,8.0,True,1.6873836517333984
,2024-07-10 16:44:12,sub_101,3,distance,cathedral,spatial_unmasking,4,152,0,0,_two_,talker-p245_sex-f_text-_two_.wav,p245,f,5,31,12.0,7.0,RX81,6,0.0,0.0,7.0,76.341492931939,babble-reversed_n13_p318-five-p256-nine-p307-two-p245-eight-p248-one-p284-four.wav,10,RX81,11,0.0,0.0,12.0,93.00003341222718,mgb_normalisation,93.00003341222715,90.34149293193902,2,3.0,False,1.624889612197876
,2024-07-10 16:44:15,sub_101,3,distance,cathedral,spatial_unmasking,4,153,0,0,_six_,talker-p245_sex-f_text-_six_.wav,p245,f,5,32,12.0,7.0,RX81,6,0.0,0.0,7.0,77.34149293193902,babble-reversed_n13_p229-five-p318-two-p307-eight-p268-three-p248-four-p245-one.wav,10,RX81,11,0.0,0.0,12.0,93.00003341222718,mgb_normalisation,93.00003341222715,90.34149293193902,6,6.0,True,1.0624282360076904
,2024-07-10 16:44:19,sub_101,3,distance,cathedral,spatial_unmasking,4,154,0,0,_three_,talker-p245_sex-f_text-_three_.wav,p245,f,5,33,12.0,7.0,RX81,6,0.0,0.0,7.0,77.34149293193903,babble-reversed_n13_p318-five-p229-four-p256-eight-p284-one-p245-three-p248-two.wav,10,RX81,11,0.0,0.0,12.0,93.00003341222718,mgb_normalisation,93.00003341222715,90.34149293193902,3,3.0,True,1.5623934268951416
,2024-07-10 16:45:45,sub_101,3,distance,cathedral,spatial_unmasking,5,155,0,0,_eight_,talker-p245_sex-f_text-_eight_.wav,p245,f,5,1,6.0,7.0,RX81,6,0.0,0.0,7.0,92.34149293193902,babble-reversed_n13_p229-nine-p256-four-p318-three-p268-eight-p248-two-p284-five.wav,4,RX81,5,0.0,0.0,6.0,89.31368318402099,mgb_normalisation,89.31368318402099,90.34149293193902,8,8.0,True,1.624830961227417
,2024-07-10 16:45:49,sub_101,3,distance,cathedral,spatial_unmasking,5,156,0,0,_one_,talker-p245_sex-f_text-_one_.wav,p245,f,5,2,6.0,7.0,RX81,6,0.0,0.0,7.0,88.34149293193902,babble-reversed_n13_p229-three-p307-one-p318-two-p245-eight-p268-five-p284-four.wav,4,RX81,5,0.0,0.0,6.0,89.31368318402099,mgb_normalisation,89.31368318402099,90.34149293193902,1,1.0,True,1.8123772144317627
,2024-07-10 16:45:53,sub_101,3,distance,cathedral,spatial_unmasking,5,157,0,0,_five_,talker-p245_sex-f_text-_five_.wav,p245,f,5,3,6.0,7.0,RX81,6,0.0,0.0,7.0,84.341492931939,babble-reversed_n13_p318-nine-p256-five-p307-eight-p268-three-p248-one-p245-four.wav,4,RX81,5,0.0,0.0,6.0,89.31368318402099,mgb_normalisation,89.31368318402099,90.34149293193902,5,5.0,True,1.3749094009399414
,2024-07-10 16:45:59,sub_101,3,distance,cathedral,spatial_unmasking,5,158,0,0,_four_,talker-p245_sex-f_text-_four_.wav,p245,f,5,4,6.0,7.0,RX81,6,0.0,0.0,7.0,80.34149293193903,babble-reversed_n13_p229-three-p256-one-p307-two-p284-eight-p268-five-p248-nine.wav,4,RX81,5,0.0,0.0,6.0,89.31368318402099,mgb_normalisation,89.31368318402099,90.34149293193902,4,1.0,False,4.312206029891968
,2024-07-10 16:46:03,sub_101,3,distance,cathedral,spatial_unmasking,5,159,0,0,_nine_,talker-p245_sex-f_text-_nine_.wav,p245,f,5,5,6.0,7.0,RX81,6,0.0,0.0,7.0,82.34149293193902,babble-reversed_n13_p318-five-p256-nine-p307-eight-p248-two-p245-four-p284-three.wav,4,RX81,5,0.0,0.0,6.0,89.31368318402099,mgb_normalisation,89.31368318402099,90.34149293193902,9,9.0,True,1.499903678894043
,2024-07-10 16:46:07,sub_101,3,distance,cathedral,spatial_unmasking,5,160,0,0,_six_,talker-p245_sex-f_text-_six_.wav,p245,f,5,6,6.0,7.0,RX81,6,0.0,0.0,7.0,82.34149293193902,babble-reversed_n13_p256-four-p229-eight-p307-five-p248-three-p245-one-p284-two.wav,4,RX81,5,0.0,0.0,6.0,89.31368318402099,mgb_normalisation,89.31368318402099,90.34149293193902,6,6.0,True,1.2499148845672607
,2024-07-10 16:46:10,sub_101,3,distance,cathedral,spatial_unmasking,5,161,0,0,_one_,talker-p245_sex-f_text-_one_.wav,p245,f,5,7,6.0,7.0,RX81,6,0.0,0.0,7.0,80.341492931939,babble-reversed_n13_p318-nine-p307-eight-p229-two-p284-one-p248-three-p245-five.wav,4,RX81,5,0.0,0.0,6.0,89.31368318402099,mgb_normalisation,89.31368318402099,90.34149293193902,1,1.0,True,1.187352418899536
,2024-07-10 16:46:15,sub_101,3,distance,cathedral,spatial_unmasking,5,162,0,0,_four_,talker-p245_sex-f_text-_four_.wav,p245,f,5,8,6.0,7.0,RX81,6,0.0,0.0,7.0,80.34149293193903,babble-reversed_n13_p229-five-p256-one-p318-three-p248-nine-p268-four-p284-eight.wav,4,RX81,5,0.0,0.0,6.0,89.31368318402099,mgb_normalisation,89.31368318402099,90.34149293193902,4,8.0,False,1.8783836364746087
,2024-07-10 16:46:18,sub_101,3,distance,cathedral,spatial_unmasking,5,163,0,0,_three_,talker-p245_sex-f_text-_three_.wav,p245,f,5,9,6.0,7.0,RX81,6,0.0,0.0,7.0,81.34149293193902,babble-reversed_n13_p229-one-p318-eight-p256-three-p268-two-p245-five-p248-nine.wav,4,RX81,5,0.0,0.0,6.0,89.31368318402099,mgb_normalisation,89.31368318402099,90.34149293193902,3,3.0,True,1.0624275207519531
,2024-07-10 16:46:22,sub_101,3,distance,cathedral,spatial_unmasking,5,164,0,0,_six_,talker-p245_sex-f_text-_six_.wav,p245,f,5,10,6.0,7.0,RX81,6,0.0,0.0,7.0,81.34149293193902,babble-reversed_n13_p256-three-p318-one-p307-two-p284-nine-p268-four-p245-eight.wav,4,RX81,5,0.0,0.0,6.0,89.31368318402099,mgb_normalisation,89.31368318402099,90.34149293193902,6,6.0,True,1.0624289512634275
,2024-07-10 16:46:25,sub_101,3,distance,cathedral,spatial_unmasking,5,165,0,0,_two_,talker-p245_sex-f_text-_two_.wav,p245,f,5,11,6.0,7.0,RX81,6,0.0,0.0,7.0,80.341492931939,babble-reversed_n13_p229-two-p318-eight-p256-three-p268-one-p248-nine-p284-five.wav,4,RX81,5,0.0,0.0,6.0,89.31368318402099,mgb_normalisation,89.31368318402099,90.34149293193902,2,2.0,True,0.9999313354492188
,2024-07-10 16:46:29,sub_101,3,distance,cathedral,spatial_unmasking,5,166,0,0,_six_,talker-p245_sex-f_text-_six_.wav,p245,f,5,12,6.0,7.0,RX81,6,0.0,0.0,7.0,80.341492931939,babble-reversed_n13_p256-four-p229-two-p318-five-p268-one-p248-eight-p245-three.wav,4,RX81,5,0.0,0.0,6.0,89.31368318402099,mgb_normalisation,89.31368318402099,90.34149293193902,6,6.0,True,1.0623648166656494
,2024-07-10 16:46:32,sub_101,3,distance,cathedral,spatial_unmasking,5,167,0,0,_four_,talker-p245_sex-f_text-_four_.wav,p245,f,5,13,6.0,7.0,RX81,6,0.0,0.0,7.0,79.34149293193903,babble-reversed_n13_p318-five-p229-four-p256-eight-p284-one-p245-three-p248-two.wav,4,RX81,5,0.0,0.0,6.0,89.31368318402099,mgb_normalisation,89.31368318402099,90.34149293193902,4,4.0,True,1.0624277591705322
,2024-07-10 16:46:36,sub_101,3,distance,cathedral,spatial_unmasking,5,168,0,0,_five_,talker-p245_sex-f_text-_five_.wav,p245,f,5,14,6.0,7.0,RX81,6,0.0,0.0,7.0,79.34149293193902,babble-reversed_n13_p307-nine-p318-two-p256-one-p245-three-p268-four-p248-eight.wav,4,RX81,5,0.0,0.0,6.0,89.31368318402099,mgb_normalisation,89.31368318402099,90.34149293193902,5,5.0,True,1.187419891357422
,2024-07-10 16:46:39,sub_101,3,distance,cathedral,spatial_unmasking,5,169,0,0,_two_,talker-p245_sex-f_text-_two_.wav,p245,f,5,15,6.0,7.0,RX81,6,0.0,0.0,7.0,78.341492931939,babble-reversed_n13_p256-three-p318-one-p307-two-p284-nine-p268-four-p245-eight.wav,4,RX81,5,0.0,0.0,6.0,89.31368318402099,mgb_normalisation,89.31368318402099,90.34149293193902,2,2.0,True,1.062427043914795
,2024-07-10 16:46:42,sub_101,3,distance,cathedral,spatial_unmasking,5,170,0,0,_one_,talker-p245_sex-f_text-_one_.wav,p245,f,5,16,6.0,7.0,RX81,6,0.0,0.0,7.0,78.341492931939,babble-reversed_n13_p229-one-p318-eight-p256-three-p268-nine-p248-five-p284-four.wav,4,RX81,5,0.0,0.0,6.0,89.31368318402099,mgb_normalisation,89.31368318402099,90.34149293193902,1,1.0,True,1.0624277591705322
,2024-07-10 16:46:47,sub_101,3,distance,cathedral,spatial_unmasking,5,171,0,0,_five_,talker-p245_sex-f_text-_five_.wav,p245,f,5,17,6.0,7.0,RX81,6,0.0,0.0,7.0,77.34149293193902,babble-reversed_n13_p307-two-p229-one-p256-five-p248-nine-p284-three-p268-eight.wav,4,RX81,5,0.0,0.0,6.0,89.313683184021,mgb_normalisation,89.31368318402099,90.34149293193902,5,3.0,False,1.749880075454712
,2024-07-10 16:46:51,sub_101,3,distance,cathedral,spatial_unmasking,5,172,0,0,_nine_,talker-p245_sex-f_text-_nine_.wav,p245,f,5,18,6.0,7.0,RX81,6,0.0,0.0,7.0,78.34149293193902,babble-reversed_n13_p229-one-p318-eight-p256-three-p268-two-p245-five-p248-nine.wav,4,RX81,5,0.0,0.0,6.0,89.31368318402099,mgb_normalisation,89.31368318402099,90.34149293193902,9,6.0,False,2.437392473220825
,2024-07-10 16:46:55,sub_101,3,distance,cathedral,spatial_unmasking,5,173,0,0,_nine_,talker-p245_sex-f_text-_nine_.wav,p245,f,5,19,6.0,7.0,RX81,6,0.0,0.0,7.0,79.34149293193902,babble-reversed_n13_p229-nine-p256-four-p318-three-p268-eight-p248-two-p284-five.wav,4,RX81,5,0.0,0.0,6.0,89.31368318402099,mgb_normalisation,89.31368318402099,90.34149293193902,9,3.0,False,1.6248221397399902
,2024-07-10 16:46:59,sub_101,3,distance,cathedral,spatial_unmasking,5,174,0,0,_six_,talker-p245_sex-f_text-_six_.wav,p245,f,5,20,6.0,7.0,RX81,6,0.0,0.0,7.0,80.341492931939,babble-reversed_n13_p256-three-p318-two-p229-nine-p248-four-p284-one-p268-eight.wav,4,RX81,5,0.0,0.0,6.0,89.31368318402099,mgb_normalisation,89.31368318402099,90.34149293193902,6,6.0,True,1.3749072551727295
,2024-07-10 16:47:03,sub_101,3,distance,cathedral,spatial_unmasking,5,175,0,0,_six_,talker-p245_sex-f_text-_six_.wav,p245,f,5,21,6.0,7.0,RX81,6,0.0,0.0,7.0,80.341492931939,babble-reversed_n13_p318-five-p256-nine-p307-eight-p248-two-p245-four-p284-three.wav,4,RX81,5,0.0,0.0,6.0,89.31368318402099,mgb_normalisation,89.31368318402099,90.34149293193902,6,6.0,True,1.0624287128448486
,2024-07-10 16:47:06,sub_101,3,distance,cathedral,spatial_unmasking,5,176,0,0,_five_,talker-p245_sex-f_text-_five_.wav,p245,f,5,22,6.0,7.0,RX81,6,0.0,0.0,7.0,79.34149293193902,babble-reversed_n13_p307-two-p256-four-p318-three-p284-eight-p248-five-p245-nine.wav,4,RX81,5,0.0,0.0,6.0,89.313683184021,mgb_normalisation,89.31368318402099,90.34149293193902,5,5.0,True,0.9374208450317384
,2024-07-10 16:47:10,sub_101,3,distance,cathedral,spatial_unmasking,5,177,0,0,_two_,talker-p245_sex-f_text-_two_.wav,p245,f,5,23,6.0,7.0,RX81,6,0.0,0.0,7.0,79.341492931939,babble-reversed_n13_p318-nine-p307-eight-p229-two-p284-one-p248-three-p245-five.wav,4,RX81,5,0.0,0.0,6.0,89.31368318402099,mgb_normalisation,89.31368318402099,90.34149293193902,2,2.0,True,1.1874191761016846
,2024-07-10 16:47:13,sub_101,3,distance,cathedral,spatial_unmasking,5,178,0,0,_one_,talker-p245_sex-f_text-_one_.wav,p245,f,5,24,6.0,7.0,RX81,6,0.0,0.0,7.0,78.341492931939,babble-reversed_n13_p307-nine-p229-one-p256-eight-p248-four-p284-two-p268-three.wav,4,RX81,5,0.0,0.0,6.0,89.31368318402099,mgb_normalisation,89.31368318402099,90.34149293193902,1,4.0,False,1.4374022483825684
,2024-07-10 16:47:17,sub_101,3,distance,cathedral,spatial_unmasking,5,179,0,0,_two_,talker-p245_sex-f_text-_two_.wav,p245,f,5,25,6.0,7.0,RX81,6,0.0,0.0,7.0,79.341492931939,babble-reversed_n13_p307-four-p318-three-p256-eight-p284-two-p245-nine-p248-five.wav,4,RX81,5,0.0,0.0,6.0,89.31368318402099,mgb_normalisation,89.31368318402099,90.34149293193902,2,2.0,True,1.0624277591705322
,2024-07-10 16:47:21,sub_101,3,distance,cathedral,spatial_unmasking,5,180,0,0,_four_,talker-p245_sex-f_text-_four_.wav,p245,f,5,26,6.0,7.0,RX81,6,0.0,0.0,7.0,79.34149293193903,babble-reversed_n13_p229-two-p307-five-p318-four-p284-one-p248-nine-p268-eight.wav,4,RX81,5,0.0,0.0,6.0,89.31368318402099,mgb_normalisation,89.31368318402099,90.34149293193902,4,8.0,False,1.749863862991333
,2024-07-10 16:47:25,sub_101,3,distance,cathedral,spatial_unmasking,5,181,0,0,_nine_,talker-p245_sex-f_text-_nine_.wav,p245,f,5,27,6.0,7.0,RX81,6,0.0,0.0,7.0,80.34149293193903,babble-reversed_n13_p307-two-p229-one-p256-five-p248-nine-p284-three-p268-eight.wav,4,RX81,5,0.0,0.0,6.0,89.313683184021,mgb_normalisation,89.31368318402099,90.34149293193902,9,3.0,False,1.624889850616455
,2024-07-10 16:47:32,sub_101,3,distance,cathedral,spatial_unmasking,5,182,0,0,_five_,talker-p245_sex-f_text-_five_.wav,p245,f,5,28,6.0,7.0,RX81,6,0.0,0.0,7.0,81.34149293193902,babble-reversed_n13_p307-five-p229-two-p318-four-p248-three-p245-nine-p268-eight.wav,4,RX81,5,0.0,0.0,6.0,89.31368318402099,mgb_normalisation,89.31368318402099,90.34149293193902,5,8.0,False,4.687179803848267
,2024-07-10 16:47:37,sub_101,3,distance,cathedral,spatial_unmasking,5,183,0,0,_four_,talker-p245_sex-f_text-_four_.wav,p245,f,5,29,6.0,7.0,RX81,6,0.0,0.0,7.0,82.34149293193902,babble-reversed_n13_p318-four-p256-five-p229-three-p284-one-p245-eight-p248-nine.wav,4,RX81,5,0.0,0.0,6.0,89.31368318402099,mgb_normalisation,89.31368318402099,90.34149293193902,4,5.0,False,2.0623602867126465
,2024-07-10 16:47:41,sub_101,3,distance,cathedral,spatial_unmasking,5,184,0,0,_nine_,talker-p245_sex-f_text-_nine_.wav,p245,f,5,30,6.0,7.0,RX81,6,0.0,0.0,7.0,83.34149293193902,babble-reversed_n13_p229-one-p318-nine-p256-four-p284-eight-p268-five-p245-two.wav,4,RX81,5,0.0,0.0,6.0,89.31368318402099,mgb_normalisation,89.31368318402099,90.34149293193902,9,9.0,True,1.562394142150879
,2024-07-10 16:47:44,sub_101,3,distance,cathedral,spatial_unmasking,5,185,0,0,_one_,talker-p245_sex-f_text-_one_.wav,p245,f,5,31,6.0,7.0,RX81,6,0.0,0.0,7.0,83.34149293193902,babble-reversed_n13_p307-nine-p229-one-p256-eight-p248-four-p284-two-p268-three.wav,4,RX81,5,0.0,0.0,6.0,89.31368318402099,mgb_normalisation,89.31368318402099,90.34149293193902,1,1.0,True,1.4374020099639893
,2024-07-10 16:47:48,sub_101,3,distance,cathedral,spatial_unmasking,5,186,0,0,_four_,talker-p245_sex-f_text-_four_.wav,p245,f,5,32,6.0,7.0,RX81,6,0.0,0.0,7.0,82.34149293193902,babble-reversed_n13_p229-five-p256-three-p318-nine-p248-two-p284-four-p268-one.wav,4,RX81,5,0.0,0.0,6.0,89.313683184021,mgb_normalisation,89.31368318402099,90.34149293193902,4,4.0,True,1.1249232292175293
,2024-07-10 16:47:52,sub_101,3,distance,cathedral,spatial_unmasking,5,187,0,0,_one_,talker-p245_sex-f_text-_one_.wav,p245,f,5,33,6.0,7.0,RX81,6,0.0,0.0,7.0,82.341492931939,babble-reversed_n13_p307-five-p229-three-p318-nine-p245-four-p268-eight-p284-two.wav,4,RX81,5,0.0,0.0,6.0,89.31368318402099,mgb_normalisation,89.31368318402099,90.34149293193902,1,1.0,True,1.374908447265625
,2024-07-10 16:47:55,sub_101,3,distance,cathedral,spatial_unmasking,5,188,0,0,_six_,talker-p245_sex-f_text-_six_.wav,p245,f,5,34,6.0,7.0,RX81,6,0.0,0.0,7.0,81.34149293193902,babble-reversed_n13_p256-eight-p318-five-p307-four-p245-three-p268-one-p284-nine.wav,4,RX81,5,0.0,0.0,6.0,89.31368318402099,mgb_normalisation,89.31368318402099,90.34149293193902,6,6.0,True,1.312410593032837
,2024-07-10 16:47:59,sub_101,3,distance,cathedral,spatial_unmasking,5,189,0,0,_six_,talker-p245_sex-f_text-_six_.wav,p245,f,5,35,6.0,7.0,RX81,6,0.0,0.0,7.0,81.34149293193902,babble-reversed_n13_p318-five-p229-four-p256-eight-p284-one-p245-three-p248-two.wav,4,RX81,5,0.0,0.0,6.0,89.31368318402099,mgb_normalisation,89.31368318402099,90.34149293193902,6,6.0,True,1.1874196529388428
,2024-07-10 16:48:03,sub_101,3,distance,cathedral,spatial_unmasking,5,190,0,0,_three_,talker-p245_sex-f_text-_three_.wav,p245,f,5,36,6.0,7.0,RX81,6,0.0,0.0,7.0,80.34149293193903,babble-reversed_n13_p318-three-p307-one-p256-five-p248-nine-p245-two-p284-eight.wav,4,RX81,5,0.0,0.0,6.0,89.31368318402099,mgb_normalisation,89.31368318402099,90.34149293193902,3,3.0,True,1.3124098777770996
,2024-07-10 16:48:07,sub_101,3,distance,cathedral,spatial_unmasking,5,191,0,0,_eight_,talker-p245_sex-f_text-_eight_.wav,p245,f,5,37,6.0,7.0,RX81,6,0.0,0.0,7.0,80.34149293193903,babble-reversed_n13_p229-five-p318-two-p307-eight-p268-three-p248-four-p245-one.wav,4,RX81,5,0.0,0.0,6.0,89.313683184021,mgb_normalisation,89.31368318402099,90.34149293193902,8,8.0,True,1.937368392944336
,2024-07-10 16:48:11,sub_101,3,distance,cathedral,spatial_unmasking,5,192,0,0,_one_,talker-p245_sex-f_text-_one_.wav,p245,f,5,38,6.0,7.0,RX81,6,0.0,0.0,7.0,79.341492931939,babble-reversed_n13_p229-five-p256-one-p318-three-p248-nine-p268-four-p284-eight.wav,4,RX81,5,0.0,0.0,6.0,89.31368318402099,mgb_normalisation,89.31368318402099,90.34149293193902,1,1.0,True,1.2499146461486816
,2024-07-10 16:48:14,sub_101,3,distance,cathedral,spatial_unmasking,5,193,0,0,_three_,talker-p245_sex-f_text-_three_.wav,p245,f,5,39,6.0,7.0,RX81,6,0.0,0.0,7.0,79.34149293193902,babble-reversed_n13_p307-nine-p229-one-p256-eight-p248-four-p284-two-p268-three.wav,4,RX81,5,0.0,0.0,6.0,89.31368318402099,mgb_normalisation,89.31368318402099,90.34149293193902,3,3.0,True,1.4998979568481443
,2024-07-10 16:48:18,sub_101,3,distance,cathedral,spatial_unmasking,5,194,0,0,_six_,talker-p245_sex-f_text-_six_.wav,p245,f,5,40,6.0,7.0,RX81,6,0.0,0.0,7.0,78.34149293193902,babble-reversed_n13_p229-one-p318-nine-p256-four-p284-eight-p268-five-p245-two.wav,4,RX81,5,0.0,0.0,6.0,89.31368318402099,mgb_normalisation,89.31368318402099,90.34149293193902,6,6.0,True,0.8749408721923828
,2024-07-10 16:48:21,sub_101,3,distance,cathedral,spatial_unmasking,5,195,0,0,_eight_,talker-p245_sex-f_text-_eight_.wav,p245,f,5,41,6.0,7.0,RX81,6,0.0,0.0,7.0,78.34149293193902,babble-reversed_n13_p229-nine-p307-five-p256-two-p248-three-p245-one-p268-eight.wav,4,RX81,5,0.0,0.0,6.0,89.31368318402099,mgb_normalisation,89.31368318402099,90.34149293193902,8,2.0,False,1.2499148845672607
,2024-07-10 16:48:26,sub_101,3,distance,cathedral,spatial_unmasking,5,196,0,0,_one_,talker-p245_sex-f_text-_one_.wav,p245,f,5,42,6.0,7.0,RX81,6,0.0,0.0,7.0,79.341492931939,babble-reversed_n13_p256-four-p229-two-p318-five-p268-one-p248-eight-p245-three.wav,4,RX81,5,0.0,0.0,6.0,89.31368318402099,mgb_normalisation,89.31368318402099,90.34149293193902,1,4.0,False,1.81243109703064
,2024-07-10 16:48:32,sub_101,3,distance,cathedral,spatial_unmasking,5,197,0,0,_five_,talker-p245_sex-f_text-_five_.wav,p245,f,5,43,6.0,7.0,RX81,6,0.0,0.0,7.0,80.34149293193903,babble-reversed_n13_p256-nine-p307-four-p229-one-p284-three-p248-two-p245-five.wav,4,RX81,5,0.0,0.0,6.0,89.31368318402099,mgb_normalisation,89.31368318402099,90.34149293193902,5,1.0,False,3.8747363090515137
,2024-07-10 16:48:35,sub_101,3,distance,cathedral,spatial_unmasking,5,198,0,0,_three_,talker-p245_sex-f_text-_three_.wav,p245,f,5,44,6.0,7.0,RX81,6,0.0,0.0,7.0,81.34149293193902,babble-reversed_n13_p256-eight-p229-three-p307-nine-p245-five-p248-four-p268-two.wav,4,RX81,5,0.0,0.0,6.0,89.31368318402099,mgb_normalisation,89.31368318402099,90.34149293193902,3,3.0,True,1.1874189376831057
,2024-07-10 16:48:39,sub_101,3,distance,cathedral,spatial_unmasking,5,199,0,0,_two_,talker-p245_sex-f_text-_two_.wav,p245,f,5,45,6.0,7.0,RX81,6,0.0,0.0,7.0,81.341492931939,babble-reversed_n13_p318-three-p307-one-p256-five-p248-nine-p245-two-p284-eight.wav,4,RX81,5,0.0,0.0,6.0,89.31368318402099,mgb_normalisation,89.31368318402099,90.34149293193902,2,2.0,True,1.4374022483825684
,2024-07-10 16:48:43,sub_101,3,distance,cathedral,spatial_unmasking,5,200,0,0,_three_,talker-p245_sex-f_text-_three_.wav,p245,f,5,46,6.0,7.0,RX81,6,0.0,0.0,7.0,80.34149293193903,babble-reversed_n13_p256-three-p318-one-p307-two-p284-nine-p268-four-p245-eight.wav,4,RX81,5,0.0,0.0,6.0,89.31368318402099,mgb_normalisation,89.31368318402099,90.34149293193902,3,9.0,False,1.1874189376831057
,2024-07-10 16:48:46,sub_101,3,distance,cathedral,spatial_unmasking,5,201,0,0,_six_,talker-p245_sex-f_text-_six_.wav,p245,f,5,47,6.0,7.0,RX81,6,0.0,0.0,7.0,81.34149293193902,babble-reversed_n13_p318-five-p256-nine-p307-two-p245-eight-p248-one-p284-four.wav,4,RX81,5,0.0,0.0,6.0,89.313683184021,mgb_normalisation,89.31368318402099,90.34149293193902,6,6.0,True,0.8748769760131836
,2024-07-10 16:48:50,sub_101,3,distance,cathedral,spatial_unmasking,5,202,0,0,_five_,talker-p245_sex-f_text-_five_.wav,p245,f,5,48,6.0,7.0,RX81,6,0.0,0.0,7.0,81.34149293193902,babble-reversed_n13_p229-two-p318-eight-p256-three-p268-one-p248-nine-p284-five.wav,4,RX81,5,0.0,0.0,6.0,89.31368318402099,mgb_normalisation,89.31368318402099,90.34149293193902,5,5.0,True,1.0624275207519531
,2024-07-10 16:49:45,sub_101,3,distance,cathedral,spatial_unmasking,6,203,0,0,_three_,talker-p245_sex-f_text-_three_.wav,p245,f,5,1,8.0,7.0,RX81,6,0.0,0.0,7.0,92.34149293193902,babble-reversed_n13_p318-five-p229-four-p256-eight-p284-one-p245-three-p248-two.wav,6,RX81,7,0.0,0.0,8.0,91.58892582949888,mgb_normalisation,91.58892582949886,90.34149293193902,3,3.0,True,1.2499146461486816
,2024-07-10 16:49:48,sub_101,3,distance,cathedral,spatial_unmasking,6,204,0,0,_six_,talker-p245_sex-f_text-_six_.wav,p245,f,5,2,8.0,7.0,RX81,6,0.0,0.0,7.0,88.34149293193902,babble-reversed_n13_p229-three-p256-nine-p318-five-p248-one-p245-eight-p284-two.wav,6,RX81,7,0.0,0.0,8.0,91.58892582949888,mgb_normalisation,91.58892582949886,90.34149293193902,6,6.0,True,0.9375004768371582
,2024-07-10 16:49:52,sub_101,3,distance,cathedral,spatial_unmasking,6,205,0,0,_one_,talker-p245_sex-f_text-_one_.wav,p245,f,5,3,8.0,7.0,RX81,6,0.0,0.0,7.0,84.341492931939,babble-reversed_n13_p307-nine-p229-one-p256-eight-p248-four-p284-two-p268-three.wav,6,RX81,7,0.0,0.0,8.0,91.58892582949888,mgb_normalisation,91.58892582949886,90.34149293193902,1,1.0,True,1.1874191761016846
,2024-07-10 16:49:56,sub_101,3,distance,cathedral,spatial_unmasking,6,206,0,0,_nine_,talker-p245_sex-f_text-_nine_.wav,p245,f,5,4,8.0,7.0,RX81,6,0.0,0.0,7.0,80.34149293193903,babble-reversed_n13_p307-two-p256-four-p318-three-p284-eight-p248-five-p245-nine.wav,6,RX81,7,0.0,0.0,8.0,91.58892582949888,mgb_normalisation,91.58892582949886,90.34149293193902,9,2.0,False,1.7498810291290283
,2024-07-10 16:49:59,sub_101,3,distance,cathedral,spatial_unmasking,6,207,0,0,_two_,talker-p245_sex-f_text-_two_.wav,p245,f,5,5,8.0,7.0,RX81,6,0.0,0.0,7.0,82.341492931939,babble-reversed_n13_p229-five-p256-one-p318-three-p248-nine-p268-four-p284-eight.wav,6,RX81,7,0.0,0.0,8.0,91.58892582949886,mgb_normalisation,91.58892582949886,90.34149293193902,2,2.0,True,1.1874196529388428
,2024-07-10 16:50:03,sub_101,3,distance,cathedral,spatial_unmasking,6,208,0,0,_four_,talker-p245_sex-f_text-_four_.wav,p245,f,5,6,8.0,7.0,RX81,6,0.0,0.0,7.0,82.34149293193902,babble-reversed_n13_p229-two-p318-eight-p256-three-p268-one-p248-nine-p284-five.wav,6,RX81,7,0.0,0.0,8.0,91.58892582949886,mgb_normalisation,91.58892582949886,90.34149293193902,4,5.0,False,1.7498812675476074
,2024-07-10 16:50:07,sub_101,3,distance,cathedral,spatial_unmasking,6,209,0,0,_eight_,talker-p245_sex-f_text-_eight_.wav,p245,f,5,7,8.0,7.0,RX81,6,0.0,0.0,7.0,84.341492931939,babble-reversed_n13_p229-five-p318-two-p307-eight-p268-three-p248-four-p245-one.wav,6,RX81,7,0.0,0.0,8.0,91.58892582949888,mgb_normalisation,91.58892582949886,90.34149293193902,8,8.0,True,1.5623929500579834
,2024-07-10 16:50:11,sub_101,3,distance,cathedral,spatial_unmasking,6,210,0,0,_five_,talker-p245_sex-f_text-_five_.wav,p245,f,5,8,8.0,7.0,RX81,6,0.0,0.0,7.0,84.341492931939,babble-reversed_n13_p318-one-p307-two-p256-eight-p284-three-p248-five-p245-four.wav,6,RX81,7,0.0,0.0,8.0,91.58892582949888,mgb_normalisation,91.58892582949886,90.34149293193902,5,5.0,True,1.4998977184295654
,2024-07-10 16:50:15,sub_101,3,distance,cathedral,spatial_unmasking,6,211,0,0,_nine_,talker-p245_sex-f_text-_nine_.wav,p245,f,5,9,8.0,7.0,RX81,6,0.0,0.0,7.0,82.34149293193902,babble-reversed_n13_p229-two-p256-three-p318-eight-p284-five-p268-four-p245-one.wav,6,RX81,7,0.0,0.0,8.0,91.58892582949888,mgb_normalisation,91.58892582949886,90.34149293193902,9,9.0,True,1.437401533126831
,2024-07-10 16:50:18,sub_101,3,distance,cathedral,spatial_unmasking,6,212,0,0,_two_,talker-p245_sex-f_text-_two_.wav,p245,f,5,10,8.0,7.0,RX81,6,0.0,0.0,7.0,82.341492931939,babble-reversed_n13_p256-four-p229-eight-p307-five-p248-three-p245-one-p284-two.wav,6,RX81,7,0.0,0.0,8.0,91.58892582949886,mgb_normalisation,91.58892582949886,90.34149293193902,2,2.0,True,0.8749387264251709
,2024-07-10 16:50:22,sub_101,3,distance,cathedral,spatial_unmasking,6,213,0,0,_two_,talker-p245_sex-f_text-_two_.wav,p245,f,5,11,8.0,7.0,RX81,6,0.0,0.0,7.0,80.341492931939,babble-reversed_n13_p229-nine-p256-four-p318-three-p268-eight-p248-two-p284-five.wav,6,RX81,7,0.0,0.0,8.0,91.58892582949888,mgb_normalisation,91.58892582949886,90.34149293193902,2,3.0,False,1.3749058246612549
,2024-07-10 16:50:29,sub_101,3,distance,cathedral,spatial_unmasking,6,214,0,0,_five_,talker-p245_sex-f_text-_five_.wav,p245,f,5,12,8.0,7.0,RX81,6,0.0,0.0,7.0,81.34149293193902,babble-reversed_n13_p307-two-p229-one-p256-five-p248-nine-p284-three-p268-eight.wav,6,RX81,7,0.0,0.0,8.0,91.58892582949888,mgb_normalisation,91.58892582949886,90.34149293193902,5,5.0,True,4.562194108963013
,2024-07-10 16:50:34,sub_101,3,distance,cathedral,spatial_unmasking,6,215,0,0,_six_,talker-p245_sex-f_text-_six_.wav,p245,f,5,13,8.0,7.0,RX81,6,0.0,0.0,7.0,81.34149293193902,babble-reversed_n13_p256-eight-p229-three-p307-nine-p245-five-p248-four-p268-two.wav,6,RX81,7,0.0,0.0,8.0,91.58892582949886,mgb_normalisation,91.58892582949886,90.34149293193902,6,6.0,True,2.374779224395752
,2024-07-10 16:50:38,sub_101,3,distance,cathedral,spatial_unmasking,6,216,0,0,_eight_,talker-p245_sex-f_text-_eight_.wav,p245,f,5,14,8.0,7.0,RX81,6,0.0,0.0,7.0,80.34149293193903,babble-reversed_n13_p256-four-p229-eight-p307-five-p248-three-p245-one-p284-two.wav,6,RX81,7,0.0,0.0,8.0,91.58892582949886,mgb_normalisation,91.58892582949886,90.34149293193902,8,3.0,False,1.8748729228973389
,2024-07-10 16:50:42,sub_101,3,distance,cathedral,spatial_unmasking,6,217,0,0,_nine_,talker-p245_sex-f_text-_nine_.wav,p245,f,5,15,8.0,7.0,RX81,6,0.0,0.0,7.0,81.34149293193902,babble-reversed_n13_p229-five-p256-three-p318-nine-p248-two-p284-four-p268-one.wav,6,RX81,7,0.0,0.0,8.0,91.58892582949888,mgb_normalisation,91.58892582949886,90.34149293193902,9,9.0,True,1.4998981952667236
,2024-07-10 16:50:49,sub_101,3,distance,cathedral,spatial_unmasking,6,218,0,0,_nine_,talker-p245_sex-f_text-_nine_.wav,p245,f,5,16,8.0,7.0,RX81,6,0.0,0.0,7.0,81.34149293193902,babble-reversed_n13_p229-three-p256-nine-p318-five-p248-one-p245-eight-p284-two.wav,6,RX81,7,0.0,0.0,8.0,91.58892582949888,mgb_normalisation,91.58892582949886,90.34149293193902,9,5.0,False,4.874661922454834
,2024-07-10 16:50:53,sub_101,3,distance,cathedral,spatial_unmasking,6,219,0,0,_eight_,talker-p245_sex-f_text-_eight_.wav,p245,f,5,17,8.0,7.0,RX81,6,0.0,0.0,7.0,82.34149293193902,babble-reversed_n13_p256-five-p307-nine-p318-three-p284-eight-p268-one-p248-two.wav,6,RX81,7,0.0,0.0,8.0,91.58892582949886,mgb_normalisation,91.58892582949886,90.34149293193902,8,8.0,True,1.749826431274414
,2024-07-10 16:50:57,sub_101,3,distance,cathedral,spatial_unmasking,6,220,0,0,_eight_,talker-p245_sex-f_text-_eight_.wav,p245,f,5,18,8.0,7.0,RX81,6,0.0,0.0,7.0,82.34149293193902,babble-reversed_n13_p229-two-p256-three-p318-eight-p284-five-p268-four-p245-one.wav,6,RX81,7,0.0,0.0,8.0,91.58892582949888,mgb_normalisation,91.58892582949886,90.34149293193902,8,8.0,True,1.74988055229187
,2024-07-10 16:51:01,sub_101,3,distance,cathedral,spatial_unmasking,6,221,0,0,_nine_,talker-p245_sex-f_text-_nine_.wav,p245,f,5,19,8.0,7.0,RX81,6,0.0,0.0,7.0,81.34149293193902,babble-reversed_n13_p256-four-p229-eight-p307-five-p248-three-p245-one-p284-two.wav,6,RX81,7,0.0,0.0,8.0,91.58892582949886,mgb_normalisation,91.58892582949886,90.34149293193902,9,9.0,True,1.312410593032837
,2024-07-10 16:51:06,sub_101,3,distance,cathedral,spatial_unmasking,6,222,0,0,_five_,talker-p245_sex-f_text-_five_.wav,p245,f,5,20,8.0,7.0,RX81,6,0.0,0.0,7.0,81.34149293193902,babble-reversed_n13_p229-five-p256-three-p318-nine-p248-two-p284-four-p268-one.wav,6,RX81,7,0.0,0.0,8.0,91.58892582949888,mgb_normalisation,91.58892582949886,90.34149293193902,5,5.0,True,1.812376976013184
,2024-07-10 16:51:09,sub_101,3,distance,cathedral,spatial_unmasking,6,223,0,0,_six_,talker-p245_sex-f_text-_six_.wav,p245,f,5,21,8.0,7.0,RX81,6,0.0,0.0,7.0,80.341492931939,babble-reversed_n13_p229-one-p318-eight-p256-three-p268-nine-p248-five-p284-four.wav,6,RX81,7,0.0,0.0,8.0,91.58892582949886,mgb_normalisation,91.58892582949886,90.34149293193902,6,6.0,True,1.249915361404419
,2024-07-10 16:51:13,sub_101,3,distance,cathedral,spatial_unmasking,6,224,0,0,_three_,talker-p245_sex-f_text-_three_.wav,p245,f,5,22,8.0,7.0,RX81,6,0.0,0.0,7.0,80.34149293193903,babble-reversed_n13_p256-two-p307-five-p318-nine-p248-eight-p245-four-p284-one.wav,6,RX81,7,0.0,0.0,8.0,91.58892582949888,mgb_normalisation,91.58892582949886,90.34149293193902,3,3.0,True,1.3749065399169922
,2024-07-10 16:51:17,sub_101,3,distance,cathedral,spatial_unmasking,6,225,0,0,_four_,talker-p245_sex-f_text-_four_.wav,p245,f,5,23,8.0,7.0,RX81,6,0.0,0.0,7.0,79.34149293193903,babble-reversed_n13_p229-one-p318-eight-p256-three-p268-nine-p248-five-p284-four.wav,6,RX81,7,0.0,0.0,8.0,91.58892582949886,mgb_normalisation,91.58892582949886,90.34149293193902,4,4.0,True,1.3124101161956787
,2024-07-10 16:51:21,sub_101,3,distance,cathedral,spatial_unmasking,6,226,0,0,_five_,talker-p245_sex-f_text-_five_.wav,p245,f,5,24,8.0,7.0,RX81,6,0.0,0.0,7.0,79.34149293193902,babble-reversed_n13_p307-five-p229-two-p318-four-p248-three-p245-nine-p268-eight.wav,6,RX81,7,0.0,0.0,8.0,91.58892582949886,mgb_normalisation,91.58892582949886,90.34149293193902,5,8.0,False,1.8123767375946045
,2024-07-10 16:51:25,sub_101,3,distance,cathedral,spatial_unmasking,6,227,0,0,_five_,talker-p245_sex-f_text-_five_.wav,p245,f,5,25,8.0,7.0,RX81,6,0.0,0.0,7.0,80.34149293193903,babble-reversed_n13_p307-five-p229-three-p318-nine-p245-four-p268-eight-p284-two.wav,6,RX81,7,0.0,0.0,8.0,91.58892582949886,mgb_normalisation,91.58892582949886,90.34149293193902,5,2.0,False,1.999864101409912
,2024-07-10 16:51:29,sub_101,3,distance,cathedral,spatial_unmasking,6,228,0,0,_nine_,talker-p245_sex-f_text-_nine_.wav,p245,f,5,26,8.0,7.0,RX81,6,0.0,0.0,7.0,81.34149293193902,babble-reversed_n13_p307-four-p318-three-p256-eight-p284-two-p245-nine-p248-five.wav,6,RX81,7,0.0,0.0,8.0,91.58892582949886,mgb_normalisation,91.58892582949886,90.34149293193902,9,8.0,False,1.6248877048492432
,2024-07-10 16:51:33,sub_101,3,distance,cathedral,spatial_unmasking,6,229,0,0,_three_,talker-p245_sex-f_text-_three_.wav,p245,f,5,27,8.0,7.0,RX81,6,0.0,0.0,7.0,82.34149293193902,babble-reversed_n13_p229-nine-p307-five-p256-two-p248-three-p245-one-p268-eight.wav,6,RX81,7,0.0,0.0,8.0,91.58892582949886,mgb_normalisation,91.58892582949886,90.34149293193902,3,3.0,True,1.2499148845672607
,2024-07-10 16:51:37,sub_101,3,distance,cathedral,spatial_unmasking,6,230,0,0,_two_,talker-p245_sex-f_text-_two_.wav,p245,f,5,28,8.0,7.0,RX81,6,0.0,0.0,7.0,82.341492931939,babble-reversed_n13_p256-five-p229-one-p318-three-p248-nine-p284-eight-p268-two.wav,6,RX81,7,0.0,0.0,8.0,91.58892582949888,mgb_normalisation,91.58892582949886,90.34149293193902,2,2.0,True,1.2499139308929443
,2024-07-10 16:51:40,sub_101,3,distance,cathedral,spatial_unmasking,6,231,0,0,_three_,talker-p245_sex-f_text-_three_.wav,p245,f,5,29,8.0,7.0,RX81,6,0.0,0.0,7.0,81.34149293193902,babble-reversed_n13_p229-nine-p256-four-p318-three-p268-eight-p248-two-p284-five.wav,6,RX81,7,0.0,0.0,8.0,91.58892582949888,mgb_normalisation,91.58892582949886,90.34149293193902,3,3.0,True,1.1874189376831057
,2024-07-10 16:51:44,sub_101,3,distance,cathedral,spatial_unmasking,6,232,0,0,_two_,talker-p245_sex-f_text-_two_.wav,p245,f,5,30,8.0,7.0,RX81,6,0.0,0.0,7.0,81.341492931939,babble-reversed_n13_p229-eight-p256-nine-p318-four-p245-three-p268-five-p284-two.wav,6,RX81,7,0.0,0.0,8.0,91.58892582949886,mgb_normalisation,91.58892582949886,90.34149293193902,2,2.0,True,1.5623931884765625
,2024-07-10 16:51:48,sub_101,3,distance,cathedral,spatial_unmasking,6,233,0,0,_five_,talker-p245_sex-f_text-_five_.wav,p245,f,5,31,8.0,7.0,RX81,6,0.0,0.0,7.0,80.34149293193903,babble-reversed_n13_p318-five-p256-nine-p307-two-p245-eight-p248-one-p284-four.wav,6,RX81,7,0.0,0.0,8.0,91.58892582949888,mgb_normalisation,91.58892582949886,90.34149293193902,5,5.0,True,1.8123767375946045
,2024-07-10 16:51:56,sub_101,3,distance,cathedral,spatial_unmasking,6,234,0,0,_one_,talker-p245_sex-f_text-_one_.wav,p245,f,5,32,8.0,7.0,RX81,6,0.0,0.0,7.0,80.341492931939,babble-reversed_n13_p229-nine-p318-one-p307-two-p248-eight-p245-five-p284-four.wav,6,RX81,7,0.0,0.0,8.0,91.58892582949886,mgb_normalisation,91.58892582949886,90.34149293193902,1,1.0,True,5.31213903427124
,2024-07-10 16:52:00,sub_101,3,distance,cathedral,spatial_unmasking,6,235,0,0,_five_,talker-p245_sex-f_text-_five_.wav,p245,f,5,33,8.0,7.0,RX81,6,0.0,0.0,7.0,79.34149293193902,babble-reversed_n13_p307-five-p229-three-p318-nine-p245-four-p268-eight-p284-two.wav,6,RX81,7,0.0,0.0,8.0,91.58892582949886,mgb_normalisation,91.58892582949886,90.34149293193902,5,2.0,False,1.874871015548706
,2024-07-10 16:52:04,sub_101,3,distance,cathedral,spatial_unmasking,6,236,0,0,_three_,talker-p245_sex-f_text-_three_.wav,p245,f,5,34,8.0,7.0,RX81,6,0.0,0.0,7.0,80.34149293193903,babble-reversed_n13_p229-five-p318-two-p307-eight-p268-three-p248-four-p245-one.wav,6,RX81,7,0.0,0.0,8.0,91.58892582949888,mgb_normalisation,91.58892582949886,90.34149293193902,3,3.0,True,1.124919891357422
,2024-07-10 16:52:08,sub_101,3,distance,cathedral,spatial_unmasking,6,237,0,0,_five_,talker-p245_sex-f_text-_five_.wav,p245,f,5,35,8.0,7.0,RX81,6,0.0,0.0,7.0,80.34149293193903,babble-reversed_n13_p229-three-p307-one-p318-two-p245-eight-p268-five-p284-four.wav,6,RX81,7,0.0,0.0,8.0,91.58892582949888,mgb_normalisation,91.58892582949886,90.34149293193902,5,5.0,True,1.3123462200164795
,2024-07-10 16:52:13,sub_101,3,distance,cathedral,spatial_unmasking,6,238,0,0,_eight_,talker-p245_sex-f_text-_eight_.wav,p245,f,5,36,8.0,7.0,RX81,6,0.0,0.0,7.0,79.34149293193902,babble-reversed_n13_p318-five-p256-nine-p307-two-p245-eight-p248-one-p284-four.wav,6,RX81,7,0.0,0.0,8.0,91.58892582949888,mgb_normalisation,91.58892582949886,90.34149293193902,8,2.0,False,2.874805450439453
,2024-07-10 16:52:16,sub_101,3,distance,cathedral,spatial_unmasking,6,239,0,0,_two_,talker-p245_sex-f_text-_two_.wav,p245,f,5,37,8.0,7.0,RX81,6,0.0,0.0,7.0,80.341492931939,babble-reversed_n13_p229-three-p256-one-p307-two-p284-eight-p268-five-p248-nine.wav,6,RX81,7,0.0,0.0,8.0,91.58892582949888,mgb_normalisation,91.58892582949886,90.34149293193902,2,2.0,True,1.0624268054962158
,2024-07-10 16:52:20,sub_101,3,distance,cathedral,spatial_unmasking,6,240,0,0,_three_,talker-p245_sex-f_text-_three_.wav,p245,f,5,38,8.0,7.0,RX81,6,0.0,0.0,7.0,80.34149293193903,babble-reversed_n13_p307-two-p229-one-p256-five-p248-nine-p284-three-p268-eight.wav,6,RX81,7,0.0,0.0,8.0,91.58892582949888,mgb_normalisation,91.58892582949886,90.34149293193902,3,3.0,True,1.2499146461486816
,2024-07-10 16:53:28,sub_101,3,distance,cathedral,spatial_unmasking,7,241,0,0,_four_,talker-p245_sex-f_text-_four_.wav,p245,f,5,1,7.0,7.0,RX81,6,0.0,0.0,7.0,92.34149293193904,babble-reversed_n13_p229-nine-p256-four-p318-three-p268-eight-p248-two-p284-five.wav,5,RX81,6,0.0,0.0,7.0,90.34149293193904,mgb_normalisation,90.34149293193902,90.34149293193902,4,4.0,True,1.3124103546142578
,2024-07-10 16:53:33,sub_101,3,distance,cathedral,spatial_unmasking,7,242,0,0,_four_,talker-p245_sex-f_text-_four_.wav,p245,f,5,2,7.0,7.0,RX81,6,0.0,0.0,7.0,88.34149293193903,babble-reversed_n13_p229-two-p318-eight-p256-three-p268-one-p248-nine-p284-five.wav,5,RX81,6,0.0,0.0,7.0,90.341492931939,mgb_normalisation,90.34149293193902,90.34149293193902,4,4.0,True,2.0623598098754883
,2024-07-10 16:53:37,sub_101,3,distance,cathedral,spatial_unmasking,7,243,0,0,_nine_,talker-p245_sex-f_text-_nine_.wav,p245,f,5,3,7.0,7.0,RX81,6,0.0,0.0,7.0,84.341492931939,babble-reversed_n13_p256-eight-p229-three-p307-nine-p245-five-p248-four-p268-two.wav,5,RX81,6,0.0,0.0,7.0,90.341492931939,mgb_normalisation,90.34149293193902,90.34149293193902,9,9.0,True,1.8123760223388672
,2024-07-10 16:53:40,sub_101,3,distance,cathedral,spatial_unmasking,7,244,0,0,_one_,talker-p245_sex-f_text-_one_.wav,p245,f,5,4,7.0,7.0,RX81,6,0.0,0.0,7.0,80.341492931939,babble-reversed_n13_p256-four-p229-eight-p307-five-p248-three-p245-one-p284-two.wav,5,RX81,6,0.0,0.0,7.0,90.341492931939,mgb_normalisation,90.34149293193902,90.34149293193902,1,2.0,False,1.374906063079834
,2024-07-10 16:53:44,sub_101,3,distance,cathedral,spatial_unmasking,7,245,0,0,_eight_,talker-p245_sex-f_text-_eight_.wav,p245,f,5,5,7.0,7.0,RX81,6,0.0,0.0,7.0,82.34149293193902,babble-reversed_n13_p229-five-p318-three-p307-two-p245-four-p284-nine-p248-eight.wav,5,RX81,6,0.0,0.0,7.0,90.34149293193904,mgb_normalisation,90.34149293193902,90.34149293193902,8,8.0,True,1.437401533126831
,2024-07-10 16:53:49,sub_101,3,distance,cathedral,spatial_unmasking,7,246,0,0,_eight_,talker-p245_sex-f_text-_eight_.wav,p245,f,5,6,7.0,7.0,RX81,6,0.0,0.0,7.0,82.34149293193902,babble-reversed_n13_p318-one-p307-two-p256-eight-p284-three-p248-five-p245-four.wav,5,RX81,6,0.0,0.0,7.0,90.34149293193904,mgb_normalisation,90.34149293193902,90.34149293193902,8,8.0,True,2.4373366832733154
,2024-07-10 16:53:53,sub_101,3,distance,cathedral,spatial_unmasking,7,247,0,0,_one_,talker-p245_sex-f_text-_one_.wav,p245,f,5,7,7.0,7.0,RX81,6,0.0,0.0,7.0,80.341492931939,babble-reversed_n13_p256-four-p307-eight-p318-two-p248-three-p284-nine-p268-one.wav,5,RX81,6,0.0,0.0,7.0,90.34149293193904,mgb_normalisation,90.34149293193902,90.34149293193902,1,4.0,False,1.937368392944336
,2024-07-10 16:53:58,sub_101,3,distance,cathedral,spatial_unmasking,7,248,0,0,_two_,talker-p245_sex-f_text-_two_.wav,p245,f,5,8,7.0,7.0,RX81,6,0.0,0.0,7.0,81.341492931939,babble-reversed_n13_p307-two-p256-four-p318-three-p284-eight-p248-five-p245-nine.wav,5,RX81,6,0.0,0.0,7.0,90.34149293193904,mgb_normalisation,90.34149293193902,90.34149293193902,2,2.0,True,2.2498464584350586
,2024-07-10 16:54:02,sub_101,3,distance,cathedral,spatial_unmasking,7,249,0,0,_eight_,talker-p245_sex-f_text-_eight_.wav,p245,f,5,9,7.0,7.0,RX81,6,0.0,0.0,7.0,81.34149293193902,babble-reversed_n13_p318-five-p256-nine-p307-two-p245-eight-p248-one-p284-four.wav,5,RX81,6,0.0,0.0,7.0,90.34149293193904,mgb_normalisation,90.34149293193902,90.34149293193902,8,8.0,True,1.8123679161071773
,2024-07-10 16:54:06,sub_101,3,distance,cathedral,spatial_unmasking,7,250,0,0,_five_,talker-p245_sex-f_text-_five_.wav,p245,f,5,10,7.0,7.0,RX81,6,0.0,0.0,7.0,80.34149293193903,babble-reversed_n13_p229-three-p256-one-p307-two-p284-eight-p268-five-p248-nine.wav,5,RX81,6,0.0,0.0,7.0,90.34149293193904,mgb_normalisation,90.34149293193902,90.34149293193902,5,5.0,True,1.5624020099639893
,2024-07-10 16:54:10,sub_101,3,distance,cathedral,spatial_unmasking,7,251,0,0,_eight_,talker-p245_sex-f_text-_eight_.wav,p245,f,5,11,7.0,7.0,RX81,6,0.0,0.0,7.0,80.34149293193903,babble-reversed_n13_p318-nine-p256-five-p307-eight-p268-three-p248-one-p245-four.wav,5,RX81,6,0.0,0.0,7.0,90.34149293193904,mgb_normalisation,90.34149293193902,90.34149293193902,8,2.0,False,2.4998250007629395
,2024-07-10 16:54:15,sub_101,3,distance,cathedral,spatial_unmasking,7,252,0,0,_two_,talker-p245_sex-f_text-_two_.wav,p245,f,5,12,7.0,7.0,RX81,6,0.0,0.0,7.0,81.341492931939,babble-reversed_n13_p229-one-p318-eight-p256-three-p268-nine-p248-five-p284-four.wav,5,RX81,6,0.0,0.0,7.0,90.341492931939,mgb_normalisation,90.34149293193902,90.34149293193902,2,2.0,True,2.687375068664551
,2024-07-10 16:54:20,sub_101,3,distance,cathedral,spatial_unmasking,7,253,0,0,_five_,talker-p245_sex-f_text-_five_.wav,p245,f,5,13,7.0,7.0,RX81,6,0.0,0.0,7.0,81.34149293193902,babble-reversed_n13_p229-two-p256-three-p318-eight-p284-five-p268-four-p245-one.wav,5,RX81,6,0.0,0.0,7.0,90.34149293193904,mgb_normalisation,90.34149293193902,90.34149293193902,5,5.0,True,1.8124349117279053
,2024-07-10 16:54:25,sub_101,3,distance,cathedral,spatial_unmasking,7,254,0,0,_five_,talker-p245_sex-f_text-_five_.wav,p245,f,5,14,7.0,7.0,RX81,6,0.0,0.0,7.0,80.34149293193903,babble-reversed_n13_p256-four-p229-two-p318-five-p268-one-p248-eight-p245-three.wav,5,RX81,6,0.0,0.0,7.0,90.341492931939,mgb_normalisation,90.34149293193902,90.34149293193902,5,5.0,True,2.6873114109039307
,2024-07-10 16:54:28,sub_101,3,distance,cathedral,spatial_unmasking,7,255,0,0,_two_,talker-p245_sex-f_text-_two_.wav,p245,f,5,15,7.0,7.0,RX81,6,0.0,0.0,7.0,80.341492931939,babble-reversed_n13_p256-five-p307-nine-p318-three-p284-eight-p268-one-p248-two.wav,5,RX81,6,0.0,0.0,7.0,90.34149293193904,mgb_normalisation,90.34149293193902,90.34149293193902,2,2.0,True,0.999932050704956
,2024-07-10 16:54:31,sub_101,3,distance,cathedral,spatial_unmasking,7,256,0,0,_nine_,talker-p245_sex-f_text-_nine_.wav,p245,f,5,16,7.0,7.0,RX81,6,0.0,0.0,7.0,79.34149293193902,babble-reversed_n13_p256-five-p307-nine-p318-three-p284-eight-p268-one-p248-two.wav,5,RX81,6,0.0,0.0,7.0,90.34149293193904,mgb_normalisation,90.34149293193902,90.34149293193902,9,9.0,True,0.999932050704956
,2024-07-10 16:54:36,sub_101,3,distance,cathedral,spatial_unmasking,7,257,0,0,_two_,talker-p245_sex-f_text-_two_.wav,p245,f,5,17,7.0,7.0,RX81,6,0.0,0.0,7.0,79.341492931939,babble-reversed_n13_p229-nine-p256-four-p318-three-p268-eight-p248-two-p284-five.wav,5,RX81,6,0.0,0.0,7.0,90.34149293193904,mgb_normalisation,90.34149293193902,90.34149293193902,2,3.0,False,2.187350034713745
,2024-07-10 16:54:39,sub_101,3,distance,cathedral,spatial_unmasking,7,258,0,0,_five_,talker-p245_sex-f_text-_five_.wav,p245,f,5,18,7.0,7.0,RX81,6,0.0,0.0,7.0,80.34149293193903,babble-reversed_n13_p256-three-p318-two-p229-nine-p248-four-p284-one-p268-eight.wav,5,RX81,6,0.0,0.0,7.0,90.341492931939,mgb_normalisation,90.34149293193902,90.34149293193902,5,9.0,False,1.4998986721038818
,2024-07-10 16:54:43,sub_101,3,distance,cathedral,spatial_unmasking,7,259,0,0,_six_,talker-p245_sex-f_text-_six_.wav,p245,f,5,19,7.0,7.0,RX81,6,0.0,0.0,7.0,81.34149293193902,babble-reversed_n13_p229-one-p318-eight-p256-three-p268-two-p245-five-p248-nine.wav,5,RX81,6,0.0,0.0,7.0,90.341492931939,mgb_normalisation,90.34149293193902,90.34149293193902,6,6.0,True,1.3749058246612549
