event_id,timestamp,subject_id,session_index,plane,setup,task,block,trial_index,headpose_offset_azi,headpose_offset_ele,target_number,target_filename,target_talker,target_sex,target_speaker_id,step_number:,distance_masker,distance_target,target_speaker_proc,target_speaker_chan,target_speaker_azi,target_speaker_ele,target_speaker_dist,target_stim_level,masker_filename,masker_speaker_id,masker_speaker_proc,masker_speaker_chan,masker_speaker_azi,masker_speaker_ele,masker_speaker_dist,masker_stim_level,normalisation_method,normalisation_level_masker,normalisation_level_target,played_number,resp_number,is_correct,reaction_time
,2024-07-15 11:21:13,sub_106,3,distance,cathedral,spatial_unmasking,1,0,0,0,_nine_,talker-p268_sex-f_text-_nine_.wav,p268,f,5,1,8.0,7.0,RX81,6,0.0,0.0,7.0,92.34149293193902,babble-reversed_n13_p318-four-p256-five-p229-three-p284-one-p245-eight-p248-nine.wav,6,RX81,7,0.0,0.0,8.0,91.58892582949888,mgb_normalisation,91.58892582949886,90.34149293193902,9,9.0,True,1.4359707832336426
,2024-07-15 11:21:17,sub_106,3,distance,cathedral,spatial_unmasking,1,1,0,0,_eight_,talker-p268_sex-f_text-_eight_.wav,p268,f,5,2,8.0,7.0,RX81,6,0.0,0.0,7.0,88.34149293193903,babble-reversed_n13_p318-four-p256-five-p229-three-p284-one-p245-eight-p248-nine.wav,6,RX81,7,0.0,0.0,8.0,91.58892582949888,mgb_normalisation,91.58892582949886,90.34149293193902,8,8.0,True,1.2499125003814695
,2024-07-15 11:21:22,sub_106,3,distance,cathedral,spatial_unmasking,1,2,0,0,_nine_,talker-p268_sex-f_text-_nine_.wav,p268,f,5,3,8.0,7.0,RX81,6,0.0,0.0,7.0,84.341492931939,babble-reversed_n13_p256-eight-p318-two-p307-five-p245-four-p268-nine-p284-one.wav,6,RX81,7,0.0,0.0,8.0,91.58892582949888,mgb_normalisation,91.58892582949886,90.34149293193902,9,5.0,False,3.002565383911133
,2024-07-15 11:21:27,sub_106,3,distance,cathedral,spatial_unmasking,1,3,0,0,_four_,talker-p268_sex-f_text-_four_.wav,p268,f,5,4,8.0,7.0,RX81,6,0.0,0.0,7.0,86.341492931939,babble-reversed_n13_p229-one-p318-eight-p256-three-p268-nine-p248-five-p284-four.wav,6,RX81,7,0.0,0.0,8.0,91.58892582949886,mgb_normalisation,91.58892582949886,90.34149293193902,4,2.0,False,2.12485146522522
,2024-07-15 11:21:32,sub_106,3,distance,cathedral,spatial_unmasking,1,4,0,0,_one_,talker-p268_sex-f_text-_one_.wav,p268,f,5,5,8.0,7.0,RX81,6,0.0,0.0,7.0,88.34149293193902,babble-reversed_n13_p256-three-p318-one-p307-two-p284-nine-p268-four-p245-eight.wav,6,RX81,7,0.0,0.0,8.0,91.58892582949888,mgb_normalisation,91.58892582949886,90.34149293193902,1,4.0,False,2.749807596206665
,2024-07-15 11:21:37,sub_106,3,distance,cathedral,spatial_unmasking,1,5,0,0,_four_,talker-p268_sex-f_text-_four_.wav,p268,f,5,6,8.0,7.0,RX81,6,0.0,0.0,7.0,90.341492931939,babble-reversed_n13_p318-three-p229-one-p256-eight-p245-five-p248-four-p284-nine.wav,6,RX81,7,0.0,0.0,8.0,91.58892582949888,mgb_normalisation,91.58892582949886,90.34149293193902,4,4.0,True,2.6873128414154053
,2024-07-15 11:21:41,sub_106,3,distance,cathedral,spatial_unmasking,1,6,0,0,_three_,talker-p268_sex-f_text-_three_.wav,p268,f,5,7,8.0,7.0,RX81,6,0.0,0.0,7.0,90.341492931939,babble-reversed_n13_p229-nine-p307-five-p256-two-p248-three-p245-one-p268-eight.wav,6,RX81,7,0.0,0.0,8.0,91.58892582949886,mgb_normalisation,91.58892582949886,90.34149293193902,3,3.0,True,0.9374322891235352
,2024-07-15 11:21:44,sub_106,3,distance,cathedral,spatial_unmasking,1,7,0,0,_one_,talker-p268_sex-f_text-_one_.wav,p268,f,5,8,8.0,7.0,RX81,6,0.0,0.0,7.0,88.34149293193902,babble-reversed_n13_p229-five-p256-one-p318-three-p248-nine-p268-four-p284-eight.wav,6,RX81,7,0.0,0.0,8.0,91.58892582949886,mgb_normalisation,91.58892582949886,90.34149293193902,1,1.0,True,0.9935970306396484
,2024-07-15 11:21:48,sub_106,3,distance,cathedral,spatial_unmasking,1,8,0,0,_six_,talker-p268_sex-f_text-_six_.wav,p268,f,5,9,8.0,7.0,RX81,6,0.0,0.0,7.0,88.34149293193902,babble-reversed_n13_p256-four-p307-eight-p318-two-p248-three-p284-nine-p268-one.wav,6,RX81,7,0.0,0.0,8.0,91.58892582949888,mgb_normalisation,91.58892582949886,90.34149293193902,6,6.0,True,1.251553297042847
,2024-07-15 11:21:51,sub_106,3,distance,cathedral,spatial_unmasking,1,9,0,0,_three_,talker-p268_sex-f_text-_three_.wav,p268,f,5,10,8.0,7.0,RX81,6,0.0,0.0,7.0,86.34149293193902,babble-reversed_n13_p307-nine-p229-one-p256-eight-p248-four-p284-two-p268-three.wav,6,RX81,7,0.0,0.0,8.0,91.58892582949888,mgb_normalisation,91.58892582949886,90.34149293193902,3,3.0,True,1.374842643737793
,2024-07-15 11:21:57,sub_106,3,distance,cathedral,spatial_unmasking,1,10,0,0,_eight_,talker-p268_sex-f_text-_eight_.wav,p268,f,5,11,8.0,7.0,RX81,6,0.0,0.0,7.0,86.34149293193902,babble-reversed_n13_p229-eight-p256-nine-p318-four-p245-three-p268-five-p284-two.wav,6,RX81,7,0.0,0.0,8.0,91.58892582949886,mgb_normalisation,91.58892582949886,90.34149293193902,8,4.0,False,3.374764442443848
,2024-07-15 11:22:00,sub_106,3,distance,cathedral,spatial_unmasking,1,11,0,0,_nine_,talker-p268_sex-f_text-_nine_.wav,p268,f,5,12,8.0,7.0,RX81,6,0.0,0.0,7.0,87.34149293193902,babble-reversed_n13_p256-four-p229-eight-p307-five-p248-three-p245-one-p284-two.wav,6,RX81,7,0.0,0.0,8.0,91.58892582949886,mgb_normalisation,91.58892582949886,90.34149293193902,9,9.0,True,0.9374358654022216
,2024-07-15 11:22:06,sub_106,3,distance,cathedral,spatial_unmasking,1,12,0,0,_eight_,talker-p268_sex-f_text-_eight_.wav,p268,f,5,13,8.0,7.0,RX81,6,0.0,0.0,7.0,87.34149293193902,babble-reversed_n13_p318-five-p229-three-p256-four-p268-eight-p248-one-p245-nine.wav,6,RX81,7,0.0,0.0,8.0,91.58892582949888,mgb_normalisation,91.58892582949886,90.34149293193902,8,6.0,False,2.753745555877685
,2024-07-15 11:22:09,sub_106,3,distance,cathedral,spatial_unmasking,1,13,0,0,_one_,talker-p268_sex-f_text-_one_.wav,p268,f,5,14,8.0,7.0,RX81,6,0.0,0.0,7.0,88.34149293193902,babble-reversed_n13_p307-two-p256-four-p318-three-p284-eight-p248-five-p245-nine.wav,6,RX81,7,0.0,0.0,8.0,91.58892582949888,mgb_normalisation,91.58892582949886,90.34149293193902,1,1.0,True,1.1264050006866455
,2024-07-15 11:22:13,sub_106,3,distance,cathedral,spatial_unmasking,1,14,0,0,_five_,talker-p268_sex-f_text-_five_.wav,p268,f,5,15,8.0,7.0,RX81,6,0.0,0.0,7.0,88.34149293193902,babble-reversed_n13_p229-five-p256-three-p318-nine-p248-two-p284-four-p268-one.wav,6,RX81,7,0.0,0.0,8.0,91.58892582949888,mgb_normalisation,91.58892582949886,90.34149293193902,5,5.0,True,1.1299479007720947
,2024-07-15 11:22:16,sub_106,3,distance,cathedral,spatial_unmasking,1,15,0,0,_six_,talker-p268_sex-f_text-_six_.wav,p268,f,5,16,8.0,7.0,RX81,6,0.0,0.0,7.0,87.34149293193902,babble-reversed_n13_p229-five-p256-three-p318-nine-p248-two-p284-four-p268-one.wav,6,RX81,7,0.0,0.0,8.0,91.58892582949888,mgb_normalisation,91.58892582949886,90.34149293193902,6,6.0,True,1.062422752380371
,2024-07-15 11:22:20,sub_106,3,distance,cathedral,spatial_unmasking,1,16,0,0,_eight_,talker-p268_sex-f_text-_eight_.wav,p268,f,5,17,8.0,7.0,RX81,6,0.0,0.0,7.0,87.34149293193902,babble-reversed_n13_p229-one-p318-nine-p256-four-p284-eight-p268-five-p245-two.wav,6,RX81,7,0.0,0.0,8.0,91.58892582949886,mgb_normalisation,91.58892582949886,90.34149293193902,8,8.0,True,1.6873822212219238
,2024-07-15 11:22:26,sub_106,3,distance,cathedral,spatial_unmasking,1,17,0,0,_nine_,talker-p268_sex-f_text-_nine_.wav,p268,f,5,18,8.0,7.0,RX81,6,0.0,0.0,7.0,86.34149293193902,babble-reversed_n13_p256-four-p307-eight-p318-two-p248-three-p284-nine-p268-one.wav,6,RX81,7,0.0,0.0,8.0,91.58892582949888,mgb_normalisation,91.58892582949886,90.34149293193902,9,9.0,True,3.1257593631744385
,2024-07-15 11:22:29,sub_106,3,distance,cathedral,spatial_unmasking,1,18,0,0,_three_,talker-p268_sex-f_text-_three_.wav,p268,f,5,19,8.0,7.0,RX81,6,0.0,0.0,7.0,86.34149293193902,babble-reversed_n13_p318-three-p307-one-p256-five-p248-nine-p245-two-p284-eight.wav,6,RX81,7,0.0,0.0,8.0,91.58892582949888,mgb_normalisation,91.58892582949886,90.34149293193902,3,3.0,True,1.0650207996368408
,2024-07-15 11:22:33,sub_106,3,distance,cathedral,spatial_unmasking,1,19,0,0,_nine_,talker-p268_sex-f_text-_nine_.wav,p268,f,5,20,8.0,7.0,RX81,6,0.0,0.0,7.0,85.341492931939,babble-reversed_n13_p318-four-p256-five-p229-three-p284-one-p245-eight-p248-nine.wav,6,RX81,7,0.0,0.0,8.0,91.58892582949888,mgb_normalisation,91.58892582949886,90.34149293193902,9,9.0,True,1.2501370906829834
,2024-07-15 11:22:40,sub_106,3,distance,cathedral,spatial_unmasking,1,20,0,0,_two_,talker-p268_sex-f_text-_two_.wav,p268,f,5,21,8.0,7.0,RX81,6,0.0,0.0,7.0,85.34149293193903,babble-reversed_n13_p256-four-p229-eight-p307-five-p248-three-p245-one-p284-two.wav,6,RX81,7,0.0,0.0,8.0,91.58892582949886,mgb_normalisation,91.58892582949886,90.34149293193902,2,6.0,False,4.547508239746094
,2024-07-15 11:22:45,sub_106,3,distance,cathedral,spatial_unmasking,1,21,0,0,_four_,talker-p268_sex-f_text-_four_.wav,p268,f,5,22,8.0,7.0,RX81,6,0.0,0.0,7.0,86.341492931939,babble-reversed_n13_p229-five-p318-three-p307-two-p245-four-p284-nine-p248-eight.wav,6,RX81,7,0.0,0.0,8.0,91.58892582949886,mgb_normalisation,91.58892582949886,90.34149293193902,4,8.0,False,2.875082015991211
,2024-07-15 11:22:48,sub_106,3,distance,cathedral,spatial_unmasking,1,22,0,0,_two_,talker-p268_sex-f_text-_two_.wav,p268,f,5,23,8.0,7.0,RX81,6,0.0,0.0,7.0,87.34149293193902,babble-reversed_n13_p256-eight-p318-five-p307-four-p245-three-p268-one-p284-nine.wav,6,RX81,7,0.0,0.0,8.0,91.58892582949886,mgb_normalisation,91.58892582949886,90.34149293193902,2,2.0,True,0.9968957901000975
,2024-07-15 11:22:52,sub_106,3,distance,cathedral,spatial_unmasking,1,23,0,0,_five_,talker-p268_sex-f_text-_five_.wav,p268,f,5,24,8.0,7.0,RX81,6,0.0,0.0,7.0,87.34149293193902,babble-reversed_n13_p307-nine-p229-one-p256-eight-p248-four-p284-two-p268-three.wav,6,RX81,7,0.0,0.0,8.0,91.58892582949888,mgb_normalisation,91.58892582949886,90.34149293193902,5,5.0,True,1.062424659729004
,2024-07-15 11:22:59,sub_106,3,distance,cathedral,spatial_unmasking,1,24,0,0,_eight_,talker-p268_sex-f_text-_eight_.wav,p268,f,5,25,8.0,7.0,RX81,6,0.0,0.0,7.0,86.34149293193902,babble-reversed_n13_p307-nine-p229-one-p256-eight-p248-four-p284-two-p268-three.wav,6,RX81,7,0.0,0.0,8.0,91.58892582949888,mgb_normalisation,91.58892582949886,90.34149293193902,8,4.0,False,5.062291860580444
,2024-07-15 11:23:03,sub_106,3,distance,cathedral,spatial_unmasking,1,25,0,0,_one_,talker-p268_sex-f_text-_one_.wav,p268,f,5,26,8.0,7.0,RX81,6,0.0,0.0,7.0,87.34149293193902,babble-reversed_n13_p318-five-p229-four-p256-eight-p284-one-p245-three-p248-two.wav,6,RX81,7,0.0,0.0,8.0,91.58892582949888,mgb_normalisation,91.58892582949886,90.34149293193902,1,1.0,True,0.9978864192962646
,2024-07-15 11:23:06,sub_106,3,distance,cathedral,spatial_unmasking,1,26,0,0,_eight_,talker-p268_sex-f_text-_eight_.wav,p268,f,5,27,8.0,7.0,RX81,6,0.0,0.0,7.0,87.34149293193902,babble-reversed_n13_p318-nine-p256-five-p307-eight-p268-three-p248-one-p245-four.wav,6,RX81,7,0.0,0.0,8.0,91.58892582949888,mgb_normalisation,91.58892582949886,90.34149293193902,8,2.0,False,1.249913215637207
,2024-07-15 11:23:10,sub_106,3,distance,cathedral,spatial_unmasking,1,27,0,0,_one_,talker-p268_sex-f_text-_one_.wav,p268,f,5,28,8.0,7.0,RX81,6,0.0,0.0,7.0,88.34149293193902,babble-reversed_n13_p229-two-p256-three-p318-eight-p284-five-p268-four-p245-one.wav,6,RX81,7,0.0,0.0,8.0,91.58892582949888,mgb_normalisation,91.58892582949886,90.34149293193902,1,1.0,True,0.9999308586120604
,2024-07-15 11:23:13,sub_106,3,distance,cathedral,spatial_unmasking,1,28,0,0,_six_,talker-p268_sex-f_text-_six_.wav,p268,f,5,29,8.0,7.0,RX81,6,0.0,0.0,7.0,88.34149293193902,babble-reversed_n13_p256-four-p307-eight-p318-two-p248-three-p284-nine-p268-one.wav,6,RX81,7,0.0,0.0,8.0,91.58892582949888,mgb_normalisation,91.58892582949886,90.34149293193902,6,6.0,True,1.124100923538208
,2024-07-15 11:23:17,sub_106,3,distance,cathedral,spatial_unmasking,1,29,0,0,_five_,talker-p268_sex-f_text-_five_.wav,p268,f,5,30,8.0,7.0,RX81,6,0.0,0.0,7.0,87.34149293193902,babble-reversed_n13_p318-three-p229-one-p256-eight-p245-five-p248-four-p284-nine.wav,6,RX81,7,0.0,0.0,8.0,91.58892582949888,mgb_normalisation,91.58892582949886,90.34149293193902,5,5.0,True,0.9999301433563232
,2024-07-15 11:23:20,sub_106,3,distance,cathedral,spatial_unmasking,1,30,0,0,_five_,talker-p268_sex-f_text-_five_.wav,p268,f,5,31,8.0,7.0,RX81,6,0.0,0.0,7.0,87.34149293193902,babble-reversed_n13_p256-eight-p318-five-p307-four-p245-three-p268-one-p284-nine.wav,6,RX81,7,0.0,0.0,8.0,91.58892582949886,mgb_normalisation,91.58892582949886,90.34149293193902,5,5.0,True,0.9999308586120604
,2024-07-15 11:23:24,sub_106,3,distance,cathedral,spatial_unmasking,1,31,0,0,_one_,talker-p268_sex-f_text-_one_.wav,p268,f,5,32,8.0,7.0,RX81,6,0.0,0.0,7.0,86.34149293193902,babble-reversed_n13_p256-eight-p229-three-p307-nine-p245-five-p248-four-p268-two.wav,6,RX81,7,0.0,0.0,8.0,91.58892582949886,mgb_normalisation,91.58892582949886,90.34149293193902,1,1.0,True,1.060621738433838
,2024-07-15 11:23:27,sub_106,3,distance,cathedral,spatial_unmasking,1,32,0,0,_six_,talker-p268_sex-f_text-_six_.wav,p268,f,5,33,8.0,7.0,RX81,6,0.0,0.0,7.0,86.341492931939,babble-reversed_n13_p256-five-p307-nine-p318-three-p284-eight-p268-one-p248-two.wav,6,RX81,7,0.0,0.0,8.0,91.58892582949886,mgb_normalisation,91.58892582949886,90.34149293193902,6,6.0,True,0.87493896484375
,2024-07-15 11:23:30,sub_106,3,distance,cathedral,spatial_unmasking,1,33,0,0,_two_,talker-p268_sex-f_text-_two_.wav,p268,f,5,34,8.0,7.0,RX81,6,0.0,0.0,7.0,85.34149293193903,babble-reversed_n13_p318-five-p229-three-p256-four-p268-eight-p248-one-p245-nine.wav,6,RX81,7,0.0,0.0,8.0,91.58892582949888,mgb_normalisation,91.58892582949886,90.34149293193902,2,2.0,True,1.0624260902404783
,2024-07-15 11:23:34,sub_106,3,distance,cathedral,spatial_unmasking,1,34,0,0,_three_,talker-p268_sex-f_text-_three_.wav,p268,f,5,35,8.0,7.0,RX81,6,0.0,0.0,7.0,85.341492931939,babble-reversed_n13_p229-five-p256-one-p318-three-p248-nine-p268-four-p284-eight.wav,6,RX81,7,0.0,0.0,8.0,91.58892582949886,mgb_normalisation,91.58892582949886,90.34149293193902,3,3.0,True,1.0018250942230225
,2024-07-15 11:23:41,sub_106,3,distance,cathedral,spatial_unmasking,1,35,0,0,_three_,talker-p268_sex-f_text-_three_.wav,p268,f,5,36,8.0,7.0,RX81,6,0.0,0.0,7.0,84.341492931939,babble-reversed_n13_p229-three-p256-one-p307-two-p284-eight-p268-five-p248-nine.wav,6,RX81,7,0.0,0.0,8.0,91.58892582949888,mgb_normalisation,91.58892582949886,90.34149293193902,3,5.0,False,4.625640392303467
,2024-07-15 11:23:47,sub_106,3,distance,cathedral,spatial_unmasking,1,36,0,0,_four_,talker-p268_sex-f_text-_four_.wav,p268,f,5,37,8.0,7.0,RX81,6,0.0,0.0,7.0,85.341492931939,babble-reversed_n13_p307-five-p229-two-p318-four-p248-three-p245-nine-p268-eight.wav,6,RX81,7,0.0,0.0,8.0,91.58892582949886,mgb_normalisation,91.58892582949886,90.34149293193902,4,6.0,False,3.436887264251709
,2024-07-15 11:23:51,sub_106,3,distance,cathedral,spatial_unmasking,1,37,0,0,_one_,talker-p268_sex-f_text-_one_.wav,p268,f,5,38,8.0,7.0,RX81,6,0.0,0.0,7.0,86.34149293193902,babble-reversed_n13_p229-five-p318-two-p307-eight-p268-three-p248-four-p245-one.wav,6,RX81,7,0.0,0.0,8.0,91.58892582949888,mgb_normalisation,91.58892582949886,90.34149293193902,1,1.0,True,2.1873486042022705
,2024-07-15 11:23:55,sub_106,3,distance,cathedral,spatial_unmasking,1,38,0,0,_one_,talker-p268_sex-f_text-_one_.wav,p268,f,5,39,8.0,7.0,RX81,6,0.0,0.0,7.0,86.34149293193902,babble-reversed_n13_p307-five-p229-two-p318-four-p248-three-p245-nine-p268-eight.wav,6,RX81,7,0.0,0.0,8.0,91.58892582949886,mgb_normalisation,91.58892582949886,90.34149293193902,1,1.0,True,1.0624613761901855
,2024-07-15 11:23:58,sub_106,3,distance,cathedral,spatial_unmasking,1,39,0,0,_six_,talker-p268_sex-f_text-_six_.wav,p268,f,5,40,8.0,7.0,RX81,6,0.0,0.0,7.0,85.341492931939,babble-reversed_n13_p229-nine-p256-four-p318-three-p268-eight-p248-two-p284-five.wav,6,RX81,7,0.0,0.0,8.0,91.58892582949888,mgb_normalisation,91.58892582949886,90.34149293193902,6,6.0,True,1.0599215030670166
,2024-07-15 11:24:02,sub_106,3,distance,cathedral,spatial_unmasking,1,40,0,0,_four_,talker-p268_sex-f_text-_four_.wav,p268,f,5,41,8.0,7.0,RX81,6,0.0,0.0,7.0,85.341492931939,babble-reversed_n13_p229-five-p256-one-p318-three-p248-nine-p268-four-p284-eight.wav,6,RX81,7,0.0,0.0,8.0,91.58892582949886,mgb_normalisation,91.58892582949886,90.34149293193902,4,8.0,False,1.8748693466186523
,2024-07-15 11:24:08,sub_106,3,distance,cathedral,spatial_unmasking,1,41,0,0,_eight_,talker-p268_sex-f_text-_eight_.wav,p268,f,5,42,8.0,7.0,RX81,6,0.0,0.0,7.0,86.34149293193902,babble-reversed_n13_p229-five-p318-two-p307-eight-p268-three-p248-four-p245-one.wav,6,RX81,7,0.0,0.0,8.0,91.58892582949888,mgb_normalisation,91.58892582949886,90.34149293193902,8,8.0,True,2.999553918838501
,2024-07-15 11:24:13,sub_106,3,distance,cathedral,spatial_unmasking,1,42,0,0,_four_,talker-p268_sex-f_text-_four_.wav,p268,f,5,43,8.0,7.0,RX81,6,0.0,0.0,7.0,86.341492931939,babble-reversed_n13_p256-three-p318-one-p307-two-p284-nine-p268-four-p245-eight.wav,6,RX81,7,0.0,0.0,8.0,91.58892582949888,mgb_normalisation,91.58892582949886,90.34149293193902,4,9.0,False,3.37204909324646
,2024-07-15 11:24:17,sub_106,3,distance,cathedral,spatial_unmasking,1,43,0,0,_three_,talker-p268_sex-f_text-_three_.wav,p268,f,5,44,8.0,7.0,RX81,6,0.0,0.0,7.0,87.34149293193902,babble-reversed_n13_p229-five-p318-two-p307-eight-p268-three-p248-four-p245-one.wav,6,RX81,7,0.0,0.0,8.0,91.58892582949888,mgb_normalisation,91.58892582949886,90.34149293193902,3,3.0,True,1.062453031539917
,2024-07-15 11:24:22,sub_106,3,distance,cathedral,spatial_unmasking,1,44,0,0,_eight_,talker-p268_sex-f_text-_eight_.wav,p268,f,5,45,8.0,7.0,RX81,6,0.0,0.0,7.0,87.34149293193902,babble-reversed_n13_p307-one-p318-five-p229-four-p268-eight-p284-two-p245-three.wav,6,RX81,7,0.0,0.0,8.0,91.58892582949886,mgb_normalisation,91.58892582949886,90.34149293193902,8,3.0,False,2.937298059463501
,2024-07-15 11:24:26,sub_106,3,distance,cathedral,spatial_unmasking,1,45,0,0,_one_,talker-p268_sex-f_text-_one_.wav,p268,f,5,46,8.0,7.0,RX81,6,0.0,0.0,7.0,88.34149293193902,babble-reversed_n13_p229-five-p318-three-p307-two-p245-four-p284-nine-p248-eight.wav,6,RX81,7,0.0,0.0,8.0,91.58892582949886,mgb_normalisation,91.58892582949886,90.34149293193902,1,1.0,True,1.062382459640503
,2024-07-15 11:24:29,sub_106,3,distance,cathedral,spatial_unmasking,1,46,0,0,_three_,talker-p268_sex-f_text-_three_.wav,p268,f,5,47,8.0,7.0,RX81,6,0.0,0.0,7.0,88.34149293193902,babble-reversed_n13_p307-two-p256-four-p318-three-p284-eight-p248-five-p245-nine.wav,6,RX81,7,0.0,0.0,8.0,91.58892582949888,mgb_normalisation,91.58892582949886,90.34149293193902,3,3.0,True,1.0051658153533936
,2024-07-15 11:26:53,sub_106,3,distance,cathedral,spatial_unmasking,2,47,0,0,_eight_,talker-p268_sex-f_text-_eight_.wav,p268,f,5,1,12.0,7.0,RX81,6,0.0,0.0,7.0,92.34149293193902,babble-reversed_n13_p256-eight-p318-five-p307-four-p245-three-p268-one-p284-nine.wav,10,RX81,11,0.0,0.0,12.0,93.00003341222715,mgb_normalisation,93.00003341222715,90.34149293193902,8,8.0,True,3.8744397163391113
,2024-07-15 11:26:57,sub_106,3,distance,cathedral,spatial_unmasking,2,48,0,0,_six_,talker-p268_sex-f_text-_six_.wav,p268,f,5,2,12.0,7.0,RX81,6,0.0,0.0,7.0,88.34149293193902,babble-reversed_n13_p318-five-p256-nine-p307-two-p245-eight-p248-one-p284-four.wav,10,RX81,11,0.0,0.0,12.0,93.00003341222718,mgb_normalisation,93.00003341222715,90.34149293193902,6,6.0,True,1.5623915195465088
,2024-07-15 11:27:01,sub_106,3,distance,cathedral,spatial_unmasking,2,49,0,0,_six_,talker-p268_sex-f_text-_six_.wav,p268,f,5,3,12.0,7.0,RX81,6,0.0,0.0,7.0,84.341492931939,babble-reversed_n13_p307-two-p256-four-p318-three-p284-eight-p248-five-p245-nine.wav,10,RX81,11,0.0,0.0,12.0,93.00003341222718,mgb_normalisation,93.00003341222715,90.34149293193902,6,6.0,True,1.812373161315918
,2024-07-15 11:27:09,sub_106,3,distance,cathedral,spatial_unmasking,2,50,0,0,_four_,talker-p268_sex-f_text-_four_.wav,p268,f,5,4,12.0,7.0,RX81,6,0.0,0.0,7.0,80.341492931939,babble-reversed_n13_p229-two-p307-five-p318-four-p284-one-p248-nine-p268-eight.wav,10,RX81,11,0.0,0.0,12.0,93.00003341222718,mgb_normalisation,93.00003341222715,90.34149293193902,4,3.0,False,4.999995231628418
,2024-07-15 11:27:12,sub_106,3,distance,cathedral,spatial_unmasking,2,51,0,0,_six_,talker-p268_sex-f_text-_six_.wav,p268,f,5,5,12.0,7.0,RX81,6,0.0,0.0,7.0,82.34149293193902,babble-reversed_n13_p229-three-p256-one-p307-two-p284-eight-p268-five-p248-nine.wav,10,RX81,11,0.0,0.0,12.0,93.00003341222718,mgb_normalisation,93.00003341222715,90.34149293193902,6,6.0,True,1.062489032745361
,2024-07-15 11:27:16,sub_106,3,distance,cathedral,spatial_unmasking,2,52,0,0,_four_,talker-p268_sex-f_text-_four_.wav,p268,f,5,6,12.0,7.0,RX81,6,0.0,0.0,7.0,82.34149293193902,babble-reversed_n13_p318-nine-p307-eight-p229-two-p284-one-p248-three-p245-five.wav,10,RX81,11,0.0,0.0,12.0,93.00003341222718,mgb_normalisation,93.00003341222715,90.34149293193902,4,1.0,False,1.937359094619751
,2024-07-15 11:27:24,sub_106,3,distance,cathedral,spatial_unmasking,2,53,0,0,_four_,talker-p268_sex-f_text-_four_.wav,p268,f,5,7,12.0,7.0,RX81,6,0.0,0.0,7.0,84.341492931939,babble-reversed_n13_p256-three-p318-one-p307-two-p284-nine-p268-four-p245-eight.wav,10,RX81,11,0.0,0.0,12.0,93.00003341222718,mgb_normalisation,93.00003341222715,90.34149293193902,4,3.0,False,5.440209627151489
,2024-07-15 11:27:28,sub_106,3,distance,cathedral,spatial_unmasking,2,54,0,0,_two_,talker-p268_sex-f_text-_two_.wav,p268,f,5,8,12.0,7.0,RX81,6,0.0,0.0,7.0,86.34149293193902,babble-reversed_n13_p229-five-p318-three-p307-two-p245-four-p284-nine-p248-eight.wav,10,RX81,11,0.0,0.0,12.0,93.00003341222715,mgb_normalisation,93.00003341222715,90.34149293193902,2,2.0,True,1.1874163150787354
,2024-07-15 11:27:31,sub_106,3,distance,cathedral,spatial_unmasking,2,55,0,0,_five_,talker-p268_sex-f_text-_five_.wav,p268,f,5,9,12.0,7.0,RX81,6,0.0,0.0,7.0,86.34149293193902,babble-reversed_n13_p229-nine-p318-one-p307-two-p248-eight-p245-five-p284-four.wav,10,RX81,11,0.0,0.0,12.0,93.00003341222718,mgb_normalisation,93.00003341222715,90.34149293193902,5,5.0,True,1.2499117851257324
,2024-07-15 11:27:35,sub_106,3,distance,cathedral,spatial_unmasking,2,56,0,0,_three_,talker-p268_sex-f_text-_three_.wav,p268,f,5,10,12.0,7.0,RX81,6,0.0,0.0,7.0,84.341492931939,babble-reversed_n13_p318-five-p256-nine-p307-eight-p248-two-p245-four-p284-three.wav,10,RX81,11,0.0,0.0,12.0,93.00003341222718,mgb_normalisation,93.00003341222715,90.34149293193902,3,3.0,True,1.1895315647125244
,2024-07-15 11:27:39,sub_106,3,distance,cathedral,spatial_unmasking,2,57,0,0,_six_,talker-p268_sex-f_text-_six_.wav,p268,f,5,11,12.0,7.0,RX81,6,0.0,0.0,7.0,84.341492931939,babble-reversed_n13_p307-two-p229-one-p256-five-p248-nine-p284-three-p268-eight.wav,10,RX81,11,0.0,0.0,12.0,93.00003341222718,mgb_normalisation,93.00003341222715,90.34149293193902,6,6.0,True,1.2506394386291504
,2024-07-15 11:27:46,sub_106,3,distance,cathedral,spatial_unmasking,2,58,0,0,_nine_,talker-p268_sex-f_text-_nine_.wav,p268,f,5,12,12.0,7.0,RX81,6,0.0,0.0,7.0,82.34149293193902,babble-reversed_n13_p318-one-p307-two-p256-eight-p284-three-p248-five-p245-four.wav,10,RX81,11,0.0,0.0,12.0,93.00003341222718,mgb_normalisation,93.00003341222715,90.34149293193902,9,5.0,False,4.625528812408447
,2024-07-15 11:27:49,sub_106,3,distance,cathedral,spatial_unmasking,2,59,0,0,_six_,talker-p268_sex-f_text-_six_.wav,p268,f,5,13,12.0,7.0,RX81,6,0.0,0.0,7.0,83.34149293193902,babble-reversed_n13_p256-two-p307-five-p318-nine-p248-eight-p245-four-p284-one.wav,10,RX81,11,0.0,0.0,12.0,93.00003341222718,mgb_normalisation,93.00003341222715,90.34149293193902,6,6.0,True,0.997366428375244
,2024-07-15 11:27:53,sub_106,3,distance,cathedral,spatial_unmasking,2,60,0,0,_one_,talker-p268_sex-f_text-_one_.wav,p268,f,5,14,12.0,7.0,RX81,6,0.0,0.0,7.0,83.34149293193902,babble-reversed_n13_p318-five-p256-nine-p307-two-p245-eight-p248-one-p284-four.wav,10,RX81,11,0.0,0.0,12.0,93.00003341222718,mgb_normalisation,93.00003341222715,90.34149293193902,1,1.0,True,1.187443494796753
,2024-07-15 11:27:56,sub_106,3,distance,cathedral,spatial_unmasking,2,61,0,0,_two_,talker-p268_sex-f_text-_two_.wav,p268,f,5,15,12.0,7.0,RX81,6,0.0,0.0,7.0,82.34149293193902,babble-reversed_n13_p229-nine-p256-four-p318-three-p268-eight-p248-two-p284-five.wav,10,RX81,11,0.0,0.0,12.0,93.00003341222718,mgb_normalisation,93.00003341222715,90.34149293193902,2,2.0,True,0.9999301433563232
,2024-07-15 11:28:00,sub_106,3,distance,cathedral,spatial_unmasking,2,62,0,0,_three_,talker-p268_sex-f_text-_three_.wav,p268,f,5,16,12.0,7.0,RX81,6,0.0,0.0,7.0,82.34149293193902,babble-reversed_n13_p229-two-p256-three-p318-eight-p284-five-p268-four-p245-one.wav,10,RX81,11,0.0,0.0,12.0,93.00003341222718,mgb_normalisation,93.00003341222715,90.34149293193902,3,3.0,True,1.30818772315979
,2024-07-15 11:28:03,sub_106,3,distance,cathedral,spatial_unmasking,2,63,0,0,_six_,talker-p268_sex-f_text-_six_.wav,p268,f,5,17,12.0,7.0,RX81,6,0.0,0.0,7.0,81.341492931939,babble-reversed_n13_p229-one-p318-eight-p256-three-p268-nine-p248-five-p284-four.wav,10,RX81,11,0.0,0.0,12.0,93.00003341222715,mgb_normalisation,93.00003341222715,90.34149293193902,6,6.0,True,1.0593805313110352
,2024-07-15 11:28:09,sub_106,3,distance,cathedral,spatial_unmasking,2,64,0,0,_one_,talker-p268_sex-f_text-_one_.wav,p268,f,5,18,12.0,7.0,RX81,6,0.0,0.0,7.0,81.34149293193902,babble-reversed_n13_p256-three-p318-two-p229-nine-p248-four-p284-one-p268-eight.wav,10,RX81,11,0.0,0.0,12.0,93.00003341222715,mgb_normalisation,93.00003341222715,90.34149293193902,1,5.0,False,3.6243958473205566
,2024-07-15 11:28:15,sub_106,3,distance,cathedral,spatial_unmasking,2,65,0,0,_four_,talker-p268_sex-f_text-_four_.wav,p268,f,5,19,12.0,7.0,RX81,6,0.0,0.0,7.0,82.34149293193902,babble-reversed_n13_p307-two-p229-one-p256-five-p248-nine-p284-three-p268-eight.wav,10,RX81,11,0.0,0.0,12.0,93.00003341222718,mgb_normalisation,93.00003341222715,90.34149293193902,4,3.0,False,3.3758366107940674
,2024-07-15 11:28:21,sub_106,3,distance,cathedral,spatial_unmasking,2,66,0,0,_eight_,talker-p268_sex-f_text-_eight_.wav,p268,f,5,20,12.0,7.0,RX81,6,0.0,0.0,7.0,83.34149293193903,babble-reversed_n13_p318-three-p229-one-p256-eight-p245-five-p248-four-p284-nine.wav,10,RX81,11,0.0,0.0,12.0,93.00003341222718,mgb_normalisation,93.00003341222715,90.34149293193902,8,4.0,False,3.625588417053223
,2024-07-15 11:28:25,sub_106,3,distance,cathedral,spatial_unmasking,2,67,0,0,_four_,talker-p268_sex-f_text-_four_.wav,p268,f,5,21,12.0,7.0,RX81,6,0.0,0.0,7.0,84.341492931939,babble-reversed_n13_p229-five-p318-three-p307-two-p245-four-p284-nine-p248-eight.wav,10,RX81,11,0.0,0.0,12.0,93.00003341222715,mgb_normalisation,93.00003341222715,90.34149293193902,4,4.0,True,1.9247403144836424
,2024-07-15 11:28:29,sub_106,3,distance,cathedral,spatial_unmasking,2,68,0,0,_four_,talker-p268_sex-f_text-_four_.wav,p268,f,5,22,12.0,7.0,RX81,6,0.0,0.0,7.0,84.341492931939,babble-reversed_n13_p307-one-p318-five-p229-four-p268-eight-p284-two-p245-three.wav,10,RX81,11,0.0,0.0,12.0,93.00003341222715,mgb_normalisation,93.00003341222715,90.34149293193902,4,3.0,False,1.311967372894287
,2024-07-15 11:28:34,sub_106,3,distance,cathedral,spatial_unmasking,2,69,0,0,_four_,talker-p268_sex-f_text-_four_.wav,p268,f,5,23,12.0,7.0,RX81,6,0.0,0.0,7.0,85.341492931939,babble-reversed_n13_p229-five-p318-three-p307-two-p245-four-p284-nine-p248-eight.wav,10,RX81,11,0.0,0.0,12.0,93.00003341222715,mgb_normalisation,93.00003341222715,90.34149293193902,4,1.0,False,2.059498786926269
,2024-07-15 11:28:37,sub_106,3,distance,cathedral,spatial_unmasking,2,70,0,0,_nine_,talker-p268_sex-f_text-_nine_.wav,p268,f,5,24,12.0,7.0,RX81,6,0.0,0.0,7.0,86.34149293193902,babble-reversed_n13_p318-five-p229-four-p256-eight-p284-one-p245-three-p248-two.wav,10,RX81,11,0.0,0.0,12.0,93.00003341222718,mgb_normalisation,93.00003341222715,90.34149293193902,9,5.0,False,0.999929428100586
,2024-07-15 11:28:44,sub_106,3,distance,cathedral,spatial_unmasking,2,71,0,0,_four_,talker-p268_sex-f_text-_four_.wav,p268,f,5,25,12.0,7.0,RX81,6,0.0,0.0,7.0,87.34149293193902,babble-reversed_n13_p256-eight-p229-three-p307-nine-p245-five-p248-four-p268-two.wav,10,RX81,11,0.0,0.0,12.0,93.00003341222715,mgb_normalisation,93.00003341222715,90.34149293193902,4,4.0,True,4.559440612792969
,2024-07-15 11:28:47,sub_106,3,distance,cathedral,spatial_unmasking,2,72,0,0,_three_,talker-p268_sex-f_text-_three_.wav,p268,f,5,26,12.0,7.0,RX81,6,0.0,0.0,7.0,87.34149293193902,babble-reversed_n13_p318-five-p229-three-p256-four-p268-eight-p248-one-p245-nine.wav,10,RX81,11,0.0,0.0,12.0,93.00003341222718,mgb_normalisation,93.00003341222715,90.34149293193902,3,3.0,True,1.187417984008789
,2024-07-15 11:28:51,sub_106,3,distance,cathedral,spatial_unmasking,2,73,0,0,_four_,talker-p268_sex-f_text-_four_.wav,p268,f,5,27,12.0,7.0,RX81,6,0.0,0.0,7.0,86.341492931939,babble-reversed_n13_p318-one-p307-two-p256-eight-p284-three-p248-five-p245-four.wav,10,RX81,11,0.0,0.0,12.0,93.00003341222718,mgb_normalisation,93.00003341222715,90.34149293193902,4,4.0,True,1.5623912811279297
,2024-07-15 11:28:55,sub_106,3,distance,cathedral,spatial_unmasking,2,74,0,0,_six_,talker-p268_sex-f_text-_six_.wav,p268,f,5,28,12.0,7.0,RX81,6,0.0,0.0,7.0,86.341492931939,babble-reversed_n13_p229-one-p318-nine-p256-four-p284-eight-p268-five-p245-two.wav,10,RX81,11,0.0,0.0,12.0,93.00003341222715,mgb_normalisation,93.00003341222715,90.34149293193902,6,6.0,True,1.3114264011383057
,2024-07-15 11:28:59,sub_106,3,distance,cathedral,spatial_unmasking,2,75,0,0,_two_,talker-p268_sex-f_text-_two_.wav,p268,f,5,29,12.0,7.0,RX81,6,0.0,0.0,7.0,85.34149293193903,babble-reversed_n13_p229-one-p318-eight-p256-three-p268-nine-p248-five-p284-four.wav,10,RX81,11,0.0,0.0,12.0,93.00003341222715,mgb_normalisation,93.00003341222715,90.34149293193902,2,2.0,True,1.123493194580078
,2024-07-15 11:29:03,sub_106,3,distance,cathedral,spatial_unmasking,2,76,0,0,_two_,talker-p268_sex-f_text-_two_.wav,p268,f,5,30,12.0,7.0,RX81,6,0.0,0.0,7.0,85.34149293193903,babble-reversed_n13_p229-one-p318-eight-p256-three-p268-two-p245-five-p248-nine.wav,10,RX81,11,0.0,0.0,12.0,93.00003341222715,mgb_normalisation,93.00003341222715,90.34149293193902,2,2.0,True,1.6248855590820312
,2024-07-15 11:29:06,sub_106,3,distance,cathedral,spatial_unmasking,2,77,0,0,_nine_,talker-p268_sex-f_text-_nine_.wav,p268,f,5,31,12.0,7.0,RX81,6,0.0,0.0,7.0,84.341492931939,babble-reversed_n13_p307-two-p256-four-p318-three-p284-eight-p248-five-p245-nine.wav,10,RX81,11,0.0,0.0,12.0,93.00003341222718,mgb_normalisation,93.00003341222715,90.34149293193902,9,3.0,False,1.3749032020568848
,2024-07-15 11:29:10,sub_106,3,distance,cathedral,spatial_unmasking,2,78,0,0,_one_,talker-p268_sex-f_text-_one_.wav,p268,f,5,32,12.0,7.0,RX81,6,0.0,0.0,7.0,85.34149293193903,babble-reversed_n13_p318-five-p256-nine-p307-two-p245-eight-p248-one-p284-four.wav,10,RX81,11,0.0,0.0,12.0,93.00003341222718,mgb_normalisation,93.00003341222715,90.34149293193902,1,1.0,True,1.2372360229492188
,2024-07-15 11:29:17,sub_106,3,distance,cathedral,spatial_unmasking,2,79,0,0,_eight_,talker-p268_sex-f_text-_eight_.wav,p268,f,5,33,12.0,7.0,RX81,6,0.0,0.0,7.0,85.34149293193903,babble-reversed_n13_p256-eight-p318-two-p307-five-p245-four-p268-nine-p284-one.wav,10,RX81,11,0.0,0.0,12.0,93.00003341222718,mgb_normalisation,93.00003341222715,90.34149293193902,8,4.0,False,4.374747753143311
,2024-07-15 11:29:21,sub_106,3,distance,cathedral,spatial_unmasking,2,80,0,0,_four_,talker-p268_sex-f_text-_four_.wav,p268,f,5,34,12.0,7.0,RX81,6,0.0,0.0,7.0,86.341492931939,babble-reversed_n13_p256-eight-p318-five-p307-four-p245-three-p268-one-p284-nine.wav,10,RX81,11,0.0,0.0,12.0,93.00003341222715,mgb_normalisation,93.00003341222715,90.34149293193902,4,4.0,True,1.815502882003784
,2024-07-15 11:29:25,sub_106,3,distance,cathedral,spatial_unmasking,2,81,0,0,_six_,talker-p268_sex-f_text-_six_.wav,p268,f,5,35,12.0,7.0,RX81,6,0.0,0.0,7.0,86.341492931939,babble-reversed_n13_p256-three-p318-two-p229-nine-p248-four-p284-one-p268-eight.wav,10,RX81,11,0.0,0.0,12.0,93.00003341222715,mgb_normalisation,93.00003341222715,90.34149293193902,6,6.0,True,1.5001859664916992
,2024-07-15 11:29:28,sub_106,3,distance,cathedral,spatial_unmasking,2,82,0,0,_one_,talker-p268_sex-f_text-_one_.wav,p268,f,5,36,12.0,7.0,RX81,6,0.0,0.0,7.0,85.34149293193903,babble-reversed_n13_p307-two-p229-one-p256-five-p248-nine-p284-three-p268-eight.wav,10,RX81,11,0.0,0.0,12.0,93.00003341222718,mgb_normalisation,93.00003341222715,90.34149293193902,1,5.0,False,1.18459153175354
,2024-07-15 11:29:33,sub_106,3,distance,cathedral,spatial_unmasking,2,83,0,0,_eight_,talker-p268_sex-f_text-_eight_.wav,p268,f,5,37,12.0,7.0,RX81,6,0.0,0.0,7.0,86.34149293193902,babble-reversed_n13_p256-eight-p229-three-p307-nine-p245-five-p248-four-p268-two.wav,10,RX81,11,0.0,0.0,12.0,93.00003341222715,mgb_normalisation,93.00003341222715,90.34149293193902,8,3.0,False,2.062354564666748
,2024-07-15 11:29:36,sub_106,3,distance,cathedral,spatial_unmasking,2,84,0,0,_five_,talker-p268_sex-f_text-_five_.wav,p268,f,5,38,12.0,7.0,RX81,6,0.0,0.0,7.0,87.34149293193902,babble-reversed_n13_p318-nine-p256-five-p307-eight-p268-three-p248-one-p245-four.wav,10,RX81,11,0.0,0.0,12.0,93.00003341222718,mgb_normalisation,93.00003341222715,90.34149293193902,5,5.0,True,1.1249210834503174
,2024-07-15 11:29:40,sub_106,3,distance,cathedral,spatial_unmasking,2,85,0,0,_two_,talker-p268_sex-f_text-_two_.wav,p268,f,5,39,12.0,7.0,RX81,6,0.0,0.0,7.0,87.34149293193902,babble-reversed_n13_p256-four-p307-eight-p318-two-p248-three-p284-nine-p268-one.wav,10,RX81,11,0.0,0.0,12.0,93.00003341222718,mgb_normalisation,93.00003341222715,90.34149293193902,2,2.0,True,1.563882827758789
,2024-07-15 11:29:44,sub_106,3,distance,cathedral,spatial_unmasking,2,86,0,0,_two_,talker-p268_sex-f_text-_two_.wav,p268,f,5,40,12.0,7.0,RX81,6,0.0,0.0,7.0,86.34149293193902,babble-reversed_n13_p307-one-p318-five-p229-four-p268-eight-p284-two-p245-three.wav,10,RX81,11,0.0,0.0,12.0,93.00003341222715,mgb_normalisation,93.00003341222715,90.34149293193902,2,2.0,True,0.8710987567901611
,2024-07-15 11:29:47,sub_106,3,distance,cathedral,spatial_unmasking,2,87,0,0,_nine_,talker-p268_sex-f_text-_nine_.wav,p268,f,5,41,12.0,7.0,RX81,6,0.0,0.0,7.0,86.34149293193902,babble-reversed_n13_p307-four-p318-three-p256-eight-p284-two-p245-nine-p248-five.wav,10,RX81,11,0.0,0.0,12.0,93.00003341222715,mgb_normalisation,93.00003341222715,90.34149293193902,9,5.0,False,1.3124079704284668
,2024-07-15 11:29:53,sub_106,3,distance,cathedral,spatial_unmasking,2,88,0,0,_four_,talker-p268_sex-f_text-_four_.wav,p268,f,5,42,12.0,7.0,RX81,6,0.0,0.0,7.0,87.34149293193902,babble-reversed_n13_p229-two-p318-eight-p256-three-p268-one-p248-nine-p284-five.wav,10,RX81,11,0.0,0.0,12.0,93.00003341222715,mgb_normalisation,93.00003341222715,90.34149293193902,4,8.0,False,3.7472410202026367
,2024-07-15 11:29:58,sub_106,3,distance,cathedral,spatial_unmasking,2,89,0,0,_eight_,talker-p268_sex-f_text-_eight_.wav,p268,f,5,43,12.0,7.0,RX81,6,0.0,0.0,7.0,88.34149293193903,babble-reversed_n13_p229-nine-p256-four-p318-three-p268-eight-p248-two-p284-five.wav,10,RX81,11,0.0,0.0,12.0,93.00003341222718,mgb_normalisation,93.00003341222715,90.34149293193902,8,8.0,True,1.8748691082000728
,2024-07-15 11:30:01,sub_106,3,distance,cathedral,spatial_unmasking,2,90,0,0,_one_,talker-p268_sex-f_text-_one_.wav,p268,f,5,44,12.0,7.0,RX81,6,0.0,0.0,7.0,88.34149293193902,babble-reversed_n13_p229-two-p256-three-p318-eight-p284-five-p268-four-p245-one.wav,10,RX81,11,0.0,0.0,12.0,93.00003341222718,mgb_normalisation,93.00003341222715,90.34149293193902,1,1.0,True,1.1874170303344729
,2024-07-15 11:32:44,sub_106,3,distance,cathedral,spatial_unmasking,3,91,0,0,_six_,talker-p268_sex-f_text-_six_.wav,p268,f,5,1,10.0,7.0,RX81,6,0.0,0.0,7.0,92.34149293193902,babble-reversed_n13_p307-nine-p318-two-p256-one-p245-three-p268-four-p248-eight.wav,8,RX81,9,0.0,0.0,10.0,92.0152836843556,mgb_normalisation,92.0152836843556,90.34149293193902,6,6.0,True,1.121870994567871
,2024-07-15 11:32:47,sub_106,3,distance,cathedral,spatial_unmasking,3,92,0,0,_three_,talker-p268_sex-f_text-_three_.wav,p268,f,5,2,10.0,7.0,RX81,6,0.0,0.0,7.0,88.34149293193902,babble-reversed_n13_p229-five-p256-three-p318-nine-p248-two-p284-four-p268-one.wav,8,RX81,9,0.0,0.0,10.0,92.0152836843556,mgb_normalisation,92.0152836843556,90.34149293193902,3,3.0,True,0.999929666519165
,2024-07-15 11:32:51,sub_106,3,distance,cathedral,spatial_unmasking,3,93,0,0,_nine_,talker-p268_sex-f_text-_nine_.wav,p268,f,5,3,10.0,7.0,RX81,6,0.0,0.0,7.0,84.341492931939,babble-reversed_n13_p229-five-p318-two-p307-eight-p268-three-p248-four-p245-one.wav,8,RX81,9,0.0,0.0,10.0,92.0152836843556,mgb_normalisation,92.0152836843556,90.34149293193902,9,9.0,True,1.1147089004516602
,2024-07-15 11:32:54,sub_106,3,distance,cathedral,spatial_unmasking,3,94,0,0,_three_,talker-p268_sex-f_text-_three_.wav,p268,f,5,4,10.0,7.0,RX81,6,0.0,0.0,7.0,80.341492931939,babble-reversed_n13_p307-nine-p229-one-p256-eight-p248-four-p284-two-p268-three.wav,8,RX81,9,0.0,0.0,10.0,92.0152836843556,mgb_normalisation,92.0152836843556,90.34149293193902,3,3.0,True,0.8735754489898682
,2024-07-15 11:32:58,sub_106,3,distance,cathedral,spatial_unmasking,3,95,0,0,_four_,talker-p268_sex-f_text-_four_.wav,p268,f,5,5,10.0,7.0,RX81,6,0.0,0.0,7.0,76.34149293193902,babble-reversed_n13_p229-one-p318-nine-p256-four-p284-eight-p268-five-p245-two.wav,8,RX81,9,0.0,0.0,10.0,92.0152836843556,mgb_normalisation,92.0152836843556,90.34149293193902,4,4.0,True,1.9373910427093504
,2024-07-15 11:33:04,sub_106,3,distance,cathedral,spatial_unmasking,3,96,0,0,_two_,talker-p268_sex-f_text-_two_.wav,p268,f,5,6,10.0,7.0,RX81,6,0.0,0.0,7.0,72.34149293193903,babble-reversed_n13_p229-five-p318-three-p307-two-p245-four-p284-nine-p248-eight.wav,8,RX81,9,0.0,0.0,10.0,92.0152836843556,mgb_normalisation,92.0152836843556,90.34149293193902,2,5.0,False,2.93726658821106
,2024-07-15 11:33:07,sub_106,3,distance,cathedral,spatial_unmasking,3,97,0,0,_two_,talker-p268_sex-f_text-_two_.wav,p268,f,5,7,10.0,7.0,RX81,6,0.0,0.0,7.0,74.34149293193902,babble-reversed_n13_p318-five-p256-nine-p307-two-p245-eight-p248-one-p284-four.wav,8,RX81,9,0.0,0.0,10.0,92.0152836843556,mgb_normalisation,92.0152836843556,90.34149293193902,2,3.0,False,0.999929904937744
,2024-07-15 11:33:12,sub_106,3,distance,cathedral,spatial_unmasking,3,98,0,0,_nine_,talker-p268_sex-f_text-_nine_.wav,p268,f,5,8,10.0,7.0,RX81,6,0.0,0.0,7.0,76.34149293193902,babble-reversed_n13_p229-one-p318-nine-p256-four-p284-eight-p268-five-p245-two.wav,8,RX81,9,0.0,0.0,10.0,92.0152836843556,mgb_normalisation,92.0152836843556,90.34149293193902,9,3.0,False,2.498868942260742
,2024-07-15 11:33:16,sub_106,3,distance,cathedral,spatial_unmasking,3,99,0,0,_six_,talker-p268_sex-f_text-_six_.wav,p268,f,5,9,10.0,7.0,RX81,6,0.0,0.0,7.0,78.34149293193902,babble-reversed_n13_p256-eight-p229-three-p307-nine-p245-five-p248-four-p268-two.wav,8,RX81,9,0.0,0.0,10.0,92.0152836843556,mgb_normalisation,92.0152836843556,90.34149293193902,6,6.0,True,1.8637709617614744
,2024-07-15 11:33:24,sub_106,3,distance,cathedral,spatial_unmasking,3,100,0,0,_four_,talker-p268_sex-f_text-_four_.wav,p268,f,5,10,10.0,7.0,RX81,6,0.0,0.0,7.0,78.34149293193902,babble-reversed_n13_p318-five-p256-nine-p307-eight-p248-two-p245-four-p284-three.wav,8,RX81,9,0.0,0.0,10.0,92.0152836843556,mgb_normalisation,92.0152836843556,90.34149293193902,4,5.0,False,5.249445199966431
,2024-07-15 11:33:29,sub_106,3,distance,cathedral,spatial_unmasking,3,101,0,0,_five_,talker-p268_sex-f_text-_five_.wav,p268,f,5,11,10.0,7.0,RX81,6,0.0,0.0,7.0,80.34149293193903,babble-reversed_n13_p256-four-p229-two-p318-five-p268-one-p248-eight-p245-three.wav,8,RX81,9,0.0,0.0,10.0,92.0152836843556,mgb_normalisation,92.0152836843556,90.34149293193902,5,5.0,True,3.254135608673096
,2024-07-15 11:33:35,sub_106,3,distance,cathedral,spatial_unmasking,3,102,0,0,_eight_,talker-p268_sex-f_text-_eight_.wav,p268,f,5,12,10.0,7.0,RX81,6,0.0,0.0,7.0,80.34149293193903,babble-reversed_n13_p229-two-p307-five-p318-four-p284-one-p248-nine-p268-eight.wav,8,RX81,9,0.0,0.0,10.0,92.0152836843556,mgb_normalisation,92.0152836843556,90.34149293193902,8,8.0,True,3.110102415084839
,2024-07-15 11:33:38,sub_106,3,distance,cathedral,spatial_unmasking,3,103,0,0,_two_,talker-p268_sex-f_text-_two_.wav,p268,f,5,13,10.0,7.0,RX81,6,0.0,0.0,7.0,78.34149293193902,babble-reversed_n13_p307-five-p229-three-p318-nine-p245-four-p268-eight-p284-two.wav,8,RX81,9,0.0,0.0,10.0,92.0152836843556,mgb_normalisation,92.0152836843556,90.34149293193902,2,2.0,True,0.9374346733093262
,2024-07-15 11:33:43,sub_106,3,distance,cathedral,spatial_unmasking,3,104,0,0,_three_,talker-p268_sex-f_text-_three_.wav,p268,f,5,14,10.0,7.0,RX81,6,0.0,0.0,7.0,78.34149293193902,babble-reversed_n13_p229-five-p318-three-p307-two-p245-four-p284-nine-p248-eight.wav,8,RX81,9,0.0,0.0,10.0,92.0152836843556,mgb_normalisation,92.0152836843556,90.34149293193902,3,3.0,True,2.0623559951782227
,2024-07-15 11:33:48,sub_106,3,distance,cathedral,spatial_unmasking,3,105,0,0,_five_,talker-p268_sex-f_text-_five_.wav,p268,f,5,15,10.0,7.0,RX81,6,0.0,0.0,7.0,76.34149293193902,babble-reversed_n13_p229-nine-p307-five-p256-two-p248-three-p245-one-p268-eight.wav,8,RX81,9,0.0,0.0,10.0,92.0152836843556,mgb_normalisation,92.0152836843556,90.34149293193902,5,5.0,True,3.062258243560791
,2024-07-15 11:33:52,sub_106,3,distance,cathedral,spatial_unmasking,3,106,0,0,_two_,talker-p268_sex-f_text-_two_.wav,p268,f,5,16,10.0,7.0,RX81,6,0.0,0.0,7.0,76.34149293193902,babble-reversed_n13_p256-nine-p307-four-p229-one-p284-three-p248-two-p245-five.wav,8,RX81,9,0.0,0.0,10.0,92.0152836843556,mgb_normalisation,92.0152836843556,90.34149293193902,2,9.0,False,1.6873810291290283
,2024-07-15 11:33:57,sub_106,3,distance,cathedral,spatial_unmasking,3,107,0,0,_four_,talker-p268_sex-f_text-_four_.wav,p268,f,5,17,10.0,7.0,RX81,6,0.0,0.0,7.0,77.341492931939,babble-reversed_n13_p318-nine-p307-eight-p229-two-p284-one-p248-three-p245-five.wav,8,RX81,9,0.0,0.0,10.0,92.0152836843556,mgb_normalisation,92.0152836843556,90.34149293193902,4,8.0,False,2.0624146461486816
,2024-07-15 11:34:00,sub_106,3,distance,cathedral,spatial_unmasking,3,108,0,0,_two_,talker-p268_sex-f_text-_two_.wav,p268,f,5,18,10.0,7.0,RX81,6,0.0,0.0,7.0,78.34149293193902,babble-reversed_n13_p307-five-p229-three-p318-nine-p245-four-p268-eight-p284-two.wav,8,RX81,9,0.0,0.0,10.0,92.0152836843556,mgb_normalisation,92.0152836843556,90.34149293193902,2,3.0,False,0.986785888671875
,2024-07-15 11:34:04,sub_106,3,distance,cathedral,spatial_unmasking,3,109,0,0,_six_,talker-p268_sex-f_text-_six_.wav,p268,f,5,19,10.0,7.0,RX81,6,0.0,0.0,7.0,79.341492931939,babble-reversed_n13_p256-eight-p318-five-p307-four-p245-three-p268-one-p284-nine.wav,8,RX81,9,0.0,0.0,10.0,92.0152836843556,mgb_normalisation,92.0152836843556,90.34149293193902,6,6.0,True,1.0624256134033203
,2024-07-15 11:34:09,sub_106,3,distance,cathedral,spatial_unmasking,3,110,0,0,_six_,talker-p268_sex-f_text-_six_.wav,p268,f,5,20,10.0,7.0,RX81,6,0.0,0.0,7.0,79.341492931939,babble-reversed_n13_p229-nine-p307-five-p256-two-p248-three-p245-one-p268-eight.wav,8,RX81,9,0.0,0.0,10.0,92.0152836843556,mgb_normalisation,92.0152836843556,90.34149293193902,6,4.0,False,2.624818086624145
,2024-07-15 11:34:11,sub_106,3,distance,cathedral,spatial_unmasking,3,111,0,0,_one_,talker-p268_sex-f_text-_one_.wav,p268,f,5,21,10.0,7.0,RX81,6,0.0,0.0,7.0,80.34149293193903,babble-reversed_n13_p229-one-p318-nine-p256-four-p284-eight-p268-five-p245-two.wav,8,RX81,9,0.0,0.0,10.0,92.0152836843556,mgb_normalisation,92.0152836843556,90.34149293193902,1,5.0,False,0.0624957084655761
,2024-07-15 11:34:17,sub_106,3,distance,cathedral,spatial_unmasking,3,112,0,0,_four_,talker-p268_sex-f_text-_four_.wav,p268,f,5,22,10.0,7.0,RX81,6,0.0,0.0,7.0,81.341492931939,babble-reversed_n13_p256-three-p318-one-p307-two-p284-nine-p268-four-p245-eight.wav,8,RX81,9,0.0,0.0,10.0,92.0152836843556,mgb_normalisation,92.0152836843556,90.34149293193902,4,6.0,False,3.563025951385498
,2024-07-15 11:34:21,sub_106,3,distance,cathedral,spatial_unmasking,3,113,0,0,_two_,talker-p268_sex-f_text-_two_.wav,p268,f,5,23,10.0,7.0,RX81,6,0.0,0.0,7.0,82.34149293193902,babble-reversed_n13_p318-five-p256-nine-p307-two-p245-eight-p248-one-p284-four.wav,8,RX81,9,0.0,0.0,10.0,92.0152836843556,mgb_normalisation,92.0152836843556,90.34149293193902,2,2.0,True,1.113814115524292
,2024-07-15 11:34:26,sub_106,3,distance,cathedral,spatial_unmasking,3,114,0,0,_eight_,talker-p268_sex-f_text-_eight_.wav,p268,f,5,24,10.0,7.0,RX81,6,0.0,0.0,7.0,82.34149293193902,babble-reversed_n13_p229-three-p307-one-p318-two-p245-eight-p268-five-p284-four.wav,8,RX81,9,0.0,0.0,10.0,92.0152836843556,mgb_normalisation,92.0152836843556,90.34149293193902,8,4.0,False,3.1720733642578125
,2024-07-15 11:34:30,sub_106,3,distance,cathedral,spatial_unmasking,3,115,0,0,_one_,talker-p268_sex-f_text-_one_.wav,p268,f,5,25,10.0,7.0,RX81,6,0.0,0.0,7.0,83.34149293193902,babble-reversed_n13_p318-five-p256-nine-p307-two-p245-eight-p248-one-p284-four.wav,8,RX81,9,0.0,0.0,10.0,92.0152836843556,mgb_normalisation,92.0152836843556,90.34149293193902,1,1.0,True,1.062687873840332
,2024-07-15 11:34:34,sub_106,3,distance,cathedral,spatial_unmasking,3,116,0,0,_four_,talker-p268_sex-f_text-_four_.wav,p268,f,5,26,10.0,7.0,RX81,6,0.0,0.0,7.0,83.34149293193902,babble-reversed_n13_p318-nine-p307-eight-p229-two-p284-one-p248-three-p245-five.wav,8,RX81,9,0.0,0.0,10.0,92.0152836843556,mgb_normalisation,92.0152836843556,90.34149293193902,4,4.0,True,1.627443790435791
,2024-07-15 11:34:37,sub_106,3,distance,cathedral,spatial_unmasking,3,117,0,0,_two_,talker-p268_sex-f_text-_two_.wav,p268,f,5,27,10.0,7.0,RX81,6,0.0,0.0,7.0,82.34149293193902,babble-reversed_n13_p256-three-p318-one-p307-two-p284-nine-p268-four-p245-eight.wav,8,RX81,9,0.0,0.0,10.0,92.0152836843556,mgb_normalisation,92.0152836843556,90.34149293193902,2,2.0,True,1.062453269958496
,2024-07-15 11:34:41,sub_106,3,distance,cathedral,spatial_unmasking,3,118,0,0,_one_,talker-p268_sex-f_text-_one_.wav,p268,f,5,28,10.0,7.0,RX81,6,0.0,0.0,7.0,82.34149293193902,babble-reversed_n13_p229-three-p256-nine-p318-five-p248-one-p245-eight-p284-two.wav,8,RX81,9,0.0,0.0,10.0,92.0152836843556,mgb_normalisation,92.0152836843556,90.34149293193902,1,9.0,False,1.30100417137146
,2024-07-15 11:34:45,sub_106,3,distance,cathedral,spatial_unmasking,3,119,0,0,_four_,talker-p268_sex-f_text-_four_.wav,p268,f,5,29,10.0,7.0,RX81,6,0.0,0.0,7.0,83.34149293193902,babble-reversed_n13_p229-eight-p256-nine-p318-four-p245-three-p268-five-p284-two.wav,8,RX81,9,0.0,0.0,10.0,92.0152836843556,mgb_normalisation,92.0152836843556,90.34149293193902,4,4.0,True,1.497589349746704
,2024-07-15 11:34:48,sub_106,3,distance,cathedral,spatial_unmasking,3,120,0,0,_nine_,talker-p268_sex-f_text-_nine_.wav,p268,f,5,30,10.0,7.0,RX81,6,0.0,0.0,7.0,83.34149293193902,babble-reversed_n13_p229-nine-p307-five-p256-two-p248-three-p245-one-p268-eight.wav,8,RX81,9,0.0,0.0,10.0,92.0152836843556,mgb_normalisation,92.0152836843556,90.34149293193902,9,3.0,False,1.124921798706055
,2024-07-15 11:34:52,sub_106,3,distance,cathedral,spatial_unmasking,3,121,0,0,_six_,talker-p268_sex-f_text-_six_.wav,p268,f,5,31,10.0,7.0,RX81,6,0.0,0.0,7.0,84.341492931939,babble-reversed_n13_p256-four-p229-eight-p307-five-p248-three-p245-one-p284-two.wav,8,RX81,9,0.0,0.0,10.0,92.0152836843556,mgb_normalisation,92.0152836843556,90.34149293193902,6,6.0,True,0.9374339580535888
,2024-07-15 11:34:55,sub_106,3,distance,cathedral,spatial_unmasking,3,122,0,0,_one_,talker-p268_sex-f_text-_one_.wav,p268,f,5,32,10.0,7.0,RX81,6,0.0,0.0,7.0,84.341492931939,babble-reversed_n13_p229-two-p256-three-p318-eight-p284-five-p268-four-p245-one.wav,8,RX81,9,0.0,0.0,10.0,92.0152836843556,mgb_normalisation,92.0152836843556,90.34149293193902,1,1.0,True,0.9375646114349364
,2024-07-15 11:34:59,sub_106,3,distance,cathedral,spatial_unmasking,3,123,0,0,_four_,talker-p268_sex-f_text-_four_.wav,p268,f,5,33,10.0,7.0,RX81,6,0.0,0.0,7.0,83.34149293193902,babble-reversed_n13_p229-one-p318-nine-p256-four-p284-eight-p268-five-p245-two.wav,8,RX81,9,0.0,0.0,10.0,92.0152836843556,mgb_normalisation,92.0152836843556,90.34149293193902,4,4.0,True,1.999955177307129
,2024-07-15 11:35:06,sub_106,3,distance,cathedral,spatial_unmasking,3,124,0,0,_eight_,talker-p268_sex-f_text-_eight_.wav,p268,f,5,34,10.0,7.0,RX81,6,0.0,0.0,7.0,83.34149293193903,babble-reversed_n13_p307-five-p229-three-p318-nine-p245-four-p268-eight-p284-two.wav,8,RX81,9,0.0,0.0,10.0,92.0152836843556,mgb_normalisation,92.0152836843556,90.34149293193902,8,5.0,False,4.436626195907593
,2024-07-15 11:35:10,sub_106,3,distance,cathedral,spatial_unmasking,3,125,0,0,_six_,talker-p268_sex-f_text-_six_.wav,p268,f,5,35,10.0,7.0,RX81,6,0.0,0.0,7.0,84.341492931939,babble-reversed_n13_p256-four-p307-eight-p318-two-p248-three-p284-nine-p268-one.wav,8,RX81,9,0.0,0.0,10.0,92.0152836843556,mgb_normalisation,92.0152836843556,90.34149293193902,6,6.0,True,1.183746337890625
,2024-07-15 11:35:13,sub_106,3,distance,cathedral,spatial_unmasking,3,126,0,0,_eight_,talker-p268_sex-f_text-_eight_.wav,p268,f,5,36,10.0,7.0,RX81,6,0.0,0.0,7.0,84.34149293193903,babble-reversed_n13_p256-eight-p318-two-p307-five-p245-four-p268-nine-p284-one.wav,8,RX81,9,0.0,0.0,10.0,92.0152836843556,mgb_normalisation,92.0152836843556,90.34149293193902,8,3.0,False,1.4373993873596191
,2024-07-15 11:35:17,sub_106,3,distance,cathedral,spatial_unmasking,3,127,0,0,_nine_,talker-p268_sex-f_text-_nine_.wav,p268,f,5,37,10.0,7.0,RX81,6,0.0,0.0,7.0,85.341492931939,babble-reversed_n13_p256-eight-p318-five-p307-four-p245-three-p268-one-p284-nine.wav,8,RX81,9,0.0,0.0,10.0,92.0152836843556,mgb_normalisation,92.0152836843556,90.34149293193902,9,9.0,True,0.9374346733093262
,2024-07-15 11:35:21,sub_106,3,distance,cathedral,spatial_unmasking,3,128,0,0,_eight_,talker-p268_sex-f_text-_eight_.wav,p268,f,5,38,10.0,7.0,RX81,6,0.0,0.0,7.0,85.34149293193903,babble-reversed_n13_p256-four-p229-two-p318-five-p268-one-p248-eight-p245-three.wav,8,RX81,9,0.0,0.0,10.0,92.0152836843556,mgb_normalisation,92.0152836843556,90.34149293193902,8,8.0,True,1.936821460723877
,2024-07-15 11:35:25,sub_106,3,distance,cathedral,spatial_unmasking,3,129,0,0,_four_,talker-p268_sex-f_text-_four_.wav,p268,f,5,39,10.0,7.0,RX81,6,0.0,0.0,7.0,84.341492931939,babble-reversed_n13_p318-five-p229-four-p256-eight-p284-one-p245-three-p248-two.wav,8,RX81,9,0.0,0.0,10.0,92.0152836843556,mgb_normalisation,92.0152836843556,90.34149293193902,4,4.0,True,1.5477561950683594
,2024-07-15 11:35:31,sub_106,3,distance,cathedral,spatial_unmasking,3,130,0,0,_eight_,talker-p268_sex-f_text-_eight_.wav,p268,f,5,40,10.0,7.0,RX81,6,0.0,0.0,7.0,84.34149293193903,babble-reversed_n13_p229-three-p256-one-p307-two-p284-eight-p268-five-p248-nine.wav,8,RX81,9,0.0,0.0,10.0,92.0152836843556,mgb_normalisation,92.0152836843556,90.34149293193902,8,6.0,False,3.12498426437378
,2024-07-15 11:35:34,sub_106,3,distance,cathedral,spatial_unmasking,3,131,0,0,_two_,talker-p268_sex-f_text-_two_.wav,p268,f,5,41,10.0,7.0,RX81,6,0.0,0.0,7.0,85.34149293193903,babble-reversed_n13_p229-three-p307-one-p318-two-p245-eight-p268-five-p284-four.wav,8,RX81,9,0.0,0.0,10.0,92.0152836843556,mgb_normalisation,92.0152836843556,90.34149293193902,2,2.0,True,1.060683012008667
,2024-07-15 11:35:37,sub_106,3,distance,cathedral,spatial_unmasking,3,132,0,0,_two_,talker-p268_sex-f_text-_two_.wav,p268,f,5,42,10.0,7.0,RX81,6,0.0,0.0,7.0,85.34149293193903,babble-reversed_n13_p229-five-p318-two-p307-eight-p268-three-p248-four-p245-one.wav,8,RX81,9,0.0,0.0,10.0,92.0152836843556,mgb_normalisation,92.0152836843556,90.34149293193902,2,2.0,True,0.9999301433563232
,2024-07-15 11:35:41,sub_106,3,distance,cathedral,spatial_unmasking,3,133,0,0,_two_,talker-p268_sex-f_text-_two_.wav,p268,f,5,43,10.0,7.0,RX81,6,0.0,0.0,7.0,84.34149293193903,babble-reversed_n13_p229-one-p318-nine-p256-four-p284-eight-p268-five-p245-two.wav,8,RX81,9,0.0,0.0,10.0,92.0152836843556,mgb_normalisation,92.0152836843556,90.34149293193902,2,2.0,True,0.9999499320983888
,2024-07-15 11:35:45,sub_106,3,distance,cathedral,spatial_unmasking,3,134,0,0,_one_,talker-p268_sex-f_text-_one_.wav,p268,f,5,44,10.0,7.0,RX81,6,0.0,0.0,7.0,84.341492931939,babble-reversed_n13_p318-three-p229-one-p256-eight-p245-five-p248-four-p284-nine.wav,8,RX81,9,0.0,0.0,10.0,92.0152836843556,mgb_normalisation,92.0152836843556,90.34149293193902,1,1.0,True,1.249394178390503
,2024-07-15 11:35:52,sub_106,3,distance,cathedral,spatial_unmasking,3,135,0,0,_nine_,talker-p268_sex-f_text-_nine_.wav,p268,f,5,45,10.0,7.0,RX81,6,0.0,0.0,7.0,83.34149293193902,babble-reversed_n13_p229-three-p307-one-p318-two-p245-eight-p268-five-p284-four.wav,8,RX81,9,0.0,0.0,10.0,92.0152836843556,mgb_normalisation,92.0152836843556,90.34149293193902,9,4.0,False,4.936875104904175
,2024-07-15 11:35:55,sub_106,3,distance,cathedral,spatial_unmasking,3,136,0,0,_three_,talker-p268_sex-f_text-_three_.wav,p268,f,5,46,10.0,7.0,RX81,6,0.0,0.0,7.0,84.341492931939,babble-reversed_n13_p307-one-p318-five-p229-four-p268-eight-p284-two-p245-three.wav,8,RX81,9,0.0,0.0,10.0,92.0152836843556,mgb_normalisation,92.0152836843556,90.34149293193902,3,3.0,True,1.1245958805084229
,2024-07-15 11:35:59,sub_106,3,distance,cathedral,spatial_unmasking,3,137,0,0,_five_,talker-p268_sex-f_text-_five_.wav,p268,f,5,47,10.0,7.0,RX81,6,0.0,0.0,7.0,84.341492931939,babble-reversed_n13_p229-nine-p256-four-p318-three-p268-eight-p248-two-p284-five.wav,8,RX81,9,0.0,0.0,10.0,92.0152836843556,mgb_normalisation,92.0152836843556,90.34149293193902,5,5.0,True,1.124920129776001
,2024-07-15 11:38:18,sub_106,3,distance,cathedral,spatial_unmasking,4,138,0,0,_five_,talker-p268_sex-f_text-_five_.wav,p268,f,5,1,4.0,7.0,RX81,6,0.0,0.0,7.0,92.34149293193902,babble-reversed_n13_p318-five-p256-nine-p307-eight-p248-two-p245-four-p284-three.wav,2,RX81,3,0.0,0.0,4.0,87.57049330475357,mgb_normalisation,87.57049330475357,90.34149293193902,5,5.0,True,1.249912977218628
,2024-07-15 11:38:22,sub_106,3,distance,cathedral,spatial_unmasking,4,139,0,0,_nine_,talker-p268_sex-f_text-_nine_.wav,p268,f,5,2,4.0,7.0,RX81,6,0.0,0.0,7.0,88.34149293193902,babble-reversed_n13_p256-five-p307-nine-p318-three-p284-eight-p268-one-p248-two.wav,2,RX81,3,0.0,0.0,4.0,87.57049330475357,mgb_normalisation,87.57049330475357,90.34149293193902,9,9.0,True,1.249915361404419
,2024-07-15 11:38:25,sub_106,3,distance,cathedral,spatial_unmasking,4,140,0,0,_five_,talker-p268_sex-f_text-_five_.wav,p268,f,5,3,4.0,7.0,RX81,6,0.0,0.0,7.0,84.341492931939,babble-reversed_n13_p318-nine-p256-five-p307-eight-p268-three-p248-one-p245-four.wav,2,RX81,3,0.0,0.0,4.0,87.57049330475357,mgb_normalisation,87.57049330475357,90.34149293193902,5,5.0,True,1.050487756729126
,2024-07-15 11:38:30,sub_106,3,distance,cathedral,spatial_unmasking,4,141,0,0,_eight_,talker-p268_sex-f_text-_eight_.wav,p268,f,5,4,4.0,7.0,RX81,6,0.0,0.0,7.0,80.34149293193903,babble-reversed_n13_p318-one-p307-two-p256-eight-p284-three-p248-five-p245-four.wav,2,RX81,3,0.0,0.0,4.0,87.57049330475357,mgb_normalisation,87.57049330475357,90.34149293193902,8,3.0,False,2.117848873138428
,2024-07-15 11:38:34,sub_106,3,distance,cathedral,spatial_unmasking,4,142,0,0,_four_,talker-p268_sex-f_text-_four_.wav,p268,f,5,5,4.0,7.0,RX81,6,0.0,0.0,7.0,82.34149293193902,babble-reversed_n13_p229-five-p256-three-p318-nine-p248-two-p284-four-p268-one.wav,2,RX81,3,0.0,0.0,4.0,87.57049330475357,mgb_normalisation,87.57049330475357,90.34149293193902,4,1.0,False,1.6248862743377686
,2024-07-15 11:38:37,sub_106,3,distance,cathedral,spatial_unmasking,4,143,0,0,_one_,talker-p268_sex-f_text-_one_.wav,p268,f,5,6,4.0,7.0,RX81,6,0.0,0.0,7.0,84.341492931939,babble-reversed_n13_p229-one-p318-eight-p256-three-p268-nine-p248-five-p284-four.wav,2,RX81,3,0.0,0.0,4.0,87.57049330475357,mgb_normalisation,87.57049330475357,90.34149293193902,1,1.0,True,0.9374344348907472
,2024-07-15 11:38:41,sub_106,3,distance,cathedral,spatial_unmasking,4,144,0,0,_six_,talker-p268_sex-f_text-_six_.wav,p268,f,5,7,4.0,7.0,RX81,6,0.0,0.0,7.0,84.341492931939,babble-reversed_n13_p229-five-p318-three-p307-two-p245-four-p284-nine-p248-eight.wav,2,RX81,3,0.0,0.0,4.0,87.57049330475357,mgb_normalisation,87.57049330475357,90.34149293193902,6,6.0,True,1.049056053161621
,2024-07-15 11:38:45,sub_106,3,distance,cathedral,spatial_unmasking,4,145,0,0,_four_,talker-p268_sex-f_text-_four_.wav,p268,f,5,8,4.0,7.0,RX81,6,0.0,0.0,7.0,82.34149293193902,babble-reversed_n13_p256-four-p229-two-p318-five-p268-one-p248-eight-p245-three.wav,2,RX81,3,0.0,0.0,4.0,87.57049330475355,mgb_normalisation,87.57049330475357,90.34149293193902,4,8.0,False,1.6894071102142334
,2024-07-15 11:38:49,sub_106,3,distance,cathedral,spatial_unmasking,4,146,0,0,_nine_,talker-p268_sex-f_text-_nine_.wav,p268,f,5,9,4.0,7.0,RX81,6,0.0,0.0,7.0,83.34149293193902,babble-reversed_n13_p229-nine-p307-five-p256-two-p248-three-p245-one-p268-eight.wav,2,RX81,3,0.0,0.0,4.0,87.57049330475357,mgb_normalisation,87.57049330475357,90.34149293193902,9,9.0,True,1.6873817443847656
,2024-07-15 11:38:54,sub_106,3,distance,cathedral,spatial_unmasking,4,147,0,0,_three_,talker-p268_sex-f_text-_three_.wav,p268,f,5,10,4.0,7.0,RX81,6,0.0,0.0,7.0,83.34149293193902,babble-reversed_n13_p318-nine-p307-eight-p229-two-p284-one-p248-three-p245-five.wav,2,RX81,3,0.0,0.0,4.0,87.57049330475357,mgb_normalisation,87.57049330475357,90.34149293193902,3,3.0,True,2.374833345413208
,2024-07-15 11:38:57,sub_106,3,distance,cathedral,spatial_unmasking,4,148,0,0,_nine_,talker-p268_sex-f_text-_nine_.wav,p268,f,5,11,4.0,7.0,RX81,6,0.0,0.0,7.0,82.34149293193902,babble-reversed_n13_p256-eight-p318-five-p307-four-p245-three-p268-one-p284-nine.wav,2,RX81,3,0.0,0.0,4.0,87.57049330475355,mgb_normalisation,87.57049330475357,90.34149293193902,9,9.0,True,0.9374356269836426
,2024-07-15 11:39:02,sub_106,3,distance,cathedral,spatial_unmasking,4,149,0,0,_two_,talker-p268_sex-f_text-_two_.wav,p268,f,5,12,4.0,7.0,RX81,6,0.0,0.0,7.0,82.34149293193902,babble-reversed_n13_p318-three-p307-one-p256-five-p248-nine-p245-two-p284-eight.wav,2,RX81,3,0.0,0.0,4.0,87.57049330475357,mgb_normalisation,87.57049330475357,90.34149293193902,2,6.0,False,2.1277401447296143
,2024-07-15 11:39:05,sub_106,3,distance,cathedral,spatial_unmasking,4,150,0,0,_four_,talker-p268_sex-f_text-_four_.wav,p268,f,5,13,4.0,7.0,RX81,6,0.0,0.0,7.0,83.34149293193902,babble-reversed_n13_p318-five-p229-four-p256-eight-p284-one-p245-three-p248-two.wav,2,RX81,3,0.0,0.0,4.0,87.57049330475357,mgb_normalisation,87.57049330475357,90.34149293193902,4,4.0,True,1.2480854988098145
,2024-07-15 11:39:09,sub_106,3,distance,cathedral,spatial_unmasking,4,151,0,0,_six_,talker-p268_sex-f_text-_six_.wav,p268,f,5,14,4.0,7.0,RX81,6,0.0,0.0,7.0,83.34149293193902,babble-reversed_n13_p256-eight-p318-five-p307-four-p245-three-p268-one-p284-nine.wav,2,RX81,3,0.0,0.0,4.0,87.57049330475355,mgb_normalisation,87.57049330475357,90.34149293193902,6,6.0,True,1.1874167919158936
,2024-07-15 11:39:13,sub_106,3,distance,cathedral,spatial_unmasking,4,152,0,0,_nine_,talker-p268_sex-f_text-_nine_.wav,p268,f,5,15,4.0,7.0,RX81,6,0.0,0.0,7.0,82.34149293193902,babble-reversed_n13_p229-two-p307-five-p318-four-p284-one-p248-nine-p268-eight.wav,2,RX81,3,0.0,0.0,4.0,87.57049330475357,mgb_normalisation,87.57049330475357,90.34149293193902,9,3.0,False,1.5623273849487305
,2024-07-15 11:39:16,sub_106,3,distance,cathedral,spatial_unmasking,4,153,0,0,_five_,talker-p268_sex-f_text-_five_.wav,p268,f,5,16,4.0,7.0,RX81,6,0.0,0.0,7.0,83.34149293193902,babble-reversed_n13_p256-five-p307-nine-p318-three-p284-eight-p268-one-p248-two.wav,2,RX81,3,0.0,0.0,4.0,87.57049330475357,mgb_normalisation,87.57049330475357,90.34149293193902,5,5.0,True,1.188467502593994
,2024-07-15 11:39:22,sub_106,3,distance,cathedral,spatial_unmasking,4,154,0,0,_four_,talker-p268_sex-f_text-_four_.wav,p268,f,5,17,4.0,7.0,RX81,6,0.0,0.0,7.0,83.34149293193902,babble-reversed_n13_p318-three-p307-one-p256-five-p248-nine-p245-two-p284-eight.wav,2,RX81,3,0.0,0.0,4.0,87.57049330475357,mgb_normalisation,87.57049330475357,90.34149293193902,4,4.0,True,2.749534845352173
,2024-07-15 11:39:25,sub_106,3,distance,cathedral,spatial_unmasking,4,155,0,0,_three_,talker-p268_sex-f_text-_three_.wav,p268,f,5,18,4.0,7.0,RX81,6,0.0,0.0,7.0,82.34149293193902,babble-reversed_n13_p307-five-p229-two-p318-four-p248-three-p245-nine-p268-eight.wav,2,RX81,3,0.0,0.0,4.0,87.57049330475355,mgb_normalisation,87.57049330475357,90.34149293193902,3,3.0,True,1.126560926437378
,2024-07-15 11:39:29,sub_106,3,distance,cathedral,spatial_unmasking,4,156,0,0,_nine_,talker-p268_sex-f_text-_nine_.wav,p268,f,5,19,4.0,7.0,RX81,6,0.0,0.0,7.0,82.34149293193902,babble-reversed_n13_p229-two-p256-three-p318-eight-p284-five-p268-four-p245-one.wav,2,RX81,3,0.0,0.0,4.0,87.57049330475357,mgb_normalisation,87.57049330475357,90.34149293193902,9,3.0,False,1.0624804496765137
,2024-07-15 11:39:32,sub_106,3,distance,cathedral,spatial_unmasking,4,157,0,0,_three_,talker-p268_sex-f_text-_three_.wav,p268,f,5,20,4.0,7.0,RX81,6,0.0,0.0,7.0,83.34149293193902,babble-reversed_n13_p256-four-p229-two-p318-five-p268-one-p248-eight-p245-three.wav,2,RX81,3,0.0,0.0,4.0,87.57049330475355,mgb_normalisation,87.57049330475357,90.34149293193902,3,3.0,True,0.999929904937744
,2024-07-15 11:39:36,sub_106,3,distance,cathedral,spatial_unmasking,4,158,0,0,_eight_,talker-p268_sex-f_text-_eight_.wav,p268,f,5,21,4.0,7.0,RX81,6,0.0,0.0,7.0,83.34149293193903,babble-reversed_n13_p256-nine-p307-four-p229-one-p284-three-p248-two-p245-five.wav,2,RX81,3,0.0,0.0,4.0,87.57049330475357,mgb_normalisation,87.57049330475357,90.34149293193902,8,8.0,True,1.6252546310424805
,2024-07-15 11:39:39,sub_106,3,distance,cathedral,spatial_unmasking,4,159,0,0,_nine_,talker-p268_sex-f_text-_nine_.wav,p268,f,5,22,4.0,7.0,RX81,6,0.0,0.0,7.0,82.34149293193902,babble-reversed_n13_p229-one-p318-eight-p256-three-p268-nine-p248-five-p284-four.wav,2,RX81,3,0.0,0.0,4.0,87.57049330475357,mgb_normalisation,87.57049330475357,90.34149293193902,9,9.0,True,0.8749382495880127
,2024-07-15 11:39:43,sub_106,3,distance,cathedral,spatial_unmasking,4,160,0,0,_six_,talker-p268_sex-f_text-_six_.wav,p268,f,5,23,4.0,7.0,RX81,6,0.0,0.0,7.0,82.34149293193902,babble-reversed_n13_p229-five-p318-two-p307-eight-p268-three-p248-four-p245-one.wav,2,RX81,3,0.0,0.0,4.0,87.57049330475357,mgb_normalisation,87.57049330475357,90.34149293193902,6,6.0,True,1.0624256134033203
,2024-07-15 11:39:49,sub_106,3,distance,cathedral,spatial_unmasking,4,161,0,0,_five_,talker-p268_sex-f_text-_five_.wav,p268,f,5,24,4.0,7.0,RX81,6,0.0,0.0,7.0,81.34149293193902,babble-reversed_n13_p229-one-p318-eight-p256-three-p268-two-p245-five-p248-nine.wav,2,RX81,3,0.0,0.0,4.0,87.57049330475355,mgb_normalisation,87.57049330475357,90.34149293193902,5,3.0,False,3.689631462097168
,2024-07-15 11:39:53,sub_106,3,distance,cathedral,spatial_unmasking,4,162,0,0,_two_,talker-p268_sex-f_text-_two_.wav,p268,f,5,25,4.0,7.0,RX81,6,0.0,0.0,7.0,82.34149293193902,babble-reversed_n13_p318-three-p229-one-p256-eight-p245-five-p248-four-p284-nine.wav,2,RX81,3,0.0,0.0,4.0,87.57049330475357,mgb_normalisation,87.57049330475357,90.34149293193902,2,2.0,True,1.6873815059661863
,2024-07-15 11:39:57,sub_106,3,distance,cathedral,spatial_unmasking,4,163,0,0,_five_,talker-p268_sex-f_text-_five_.wav,p268,f,5,26,4.0,7.0,RX81,6,0.0,0.0,7.0,82.34149293193902,babble-reversed_n13_p256-three-p318-two-p229-nine-p248-four-p284-one-p268-eight.wav,2,RX81,3,0.0,0.0,4.0,87.57049330475355,mgb_normalisation,87.57049330475357,90.34149293193902,5,9.0,False,1.5507190227508545
,2024-07-15 11:40:01,sub_106,3,distance,cathedral,spatial_unmasking,4,164,0,0,_one_,talker-p268_sex-f_text-_one_.wav,p268,f,5,27,4.0,7.0,RX81,6,0.0,0.0,7.0,83.34149293193902,babble-reversed_n13_p307-nine-p229-one-p256-eight-p248-four-p284-two-p268-three.wav,2,RX81,3,0.0,0.0,4.0,87.57049330475357,mgb_normalisation,87.57049330475357,90.34149293193902,1,1.0,True,1.4232134819030762
,2024-07-15 11:40:05,sub_106,3,distance,cathedral,spatial_unmasking,4,165,0,0,_two_,talker-p268_sex-f_text-_two_.wav,p268,f,5,28,4.0,7.0,RX81,6,0.0,0.0,7.0,83.34149293193903,babble-reversed_n13_p229-five-p318-three-p307-two-p245-four-p284-nine-p248-eight.wav,2,RX81,3,0.0,0.0,4.0,87.57049330475357,mgb_normalisation,87.57049330475357,90.34149293193902,2,2.0,True,1.8094208240509035
,2024-07-15 11:42:00,sub_106,3,distance,cathedral,spatial_unmasking,5,166,0,0,_one_,talker-p268_sex-f_text-_one_.wav,p268,f,5,1,6.0,7.0,RX81,6,0.0,0.0,7.0,92.34149293193902,babble-reversed_n13_p229-five-p318-two-p307-eight-p268-three-p248-four-p245-one.wav,4,RX81,5,0.0,0.0,6.0,89.313683184021,mgb_normalisation,89.31368318402099,90.34149293193902,1,1.0,True,1.0619220733642578
,2024-07-15 11:42:04,sub_106,3,distance,cathedral,spatial_unmasking,5,167,0,0,_five_,talker-p268_sex-f_text-_five_.wav,p268,f,5,2,6.0,7.0,RX81,6,0.0,0.0,7.0,88.34149293193902,babble-reversed_n13_p307-nine-p229-one-p256-eight-p248-four-p284-two-p268-three.wav,4,RX81,5,0.0,0.0,6.0,89.31368318402099,mgb_normalisation,89.31368318402099,90.34149293193902,5,5.0,True,1.1874172687530518
,2024-07-15 11:42:07,sub_106,3,distance,cathedral,spatial_unmasking,5,168,0,0,_nine_,talker-p268_sex-f_text-_nine_.wav,p268,f,5,3,6.0,7.0,RX81,6,0.0,0.0,7.0,84.341492931939,babble-reversed_n13_p256-three-p318-one-p307-two-p284-nine-p268-four-p245-eight.wav,4,RX81,5,0.0,0.0,6.0,89.31368318402099,mgb_normalisation,89.31368318402099,90.34149293193902,9,9.0,True,1.0624258518218994
,2024-07-15 11:42:11,sub_106,3,distance,cathedral,spatial_unmasking,5,169,0,0,_nine_,talker-p268_sex-f_text-_nine_.wav,p268,f,5,4,6.0,7.0,RX81,6,0.0,0.0,7.0,80.341492931939,babble-reversed_n13_p256-five-p307-nine-p318-three-p284-eight-p268-one-p248-two.wav,4,RX81,5,0.0,0.0,6.0,89.31368318402099,mgb_normalisation,89.31368318402099,90.34149293193902,9,9.0,True,1.1714332103729248
,2024-07-15 11:42:16,sub_106,3,distance,cathedral,spatial_unmasking,5,170,0,0,_one_,talker-p268_sex-f_text-_one_.wav,p268,f,5,5,6.0,7.0,RX81,6,0.0,0.0,7.0,76.34149293193902,babble-reversed_n13_p229-two-p307-five-p318-four-p284-one-p248-nine-p268-eight.wav,4,RX81,5,0.0,0.0,6.0,89.31368318402099,mgb_normalisation,89.31368318402099,90.34149293193902,1,8.0,False,2.7507903575897217
,2024-07-15 11:42:21,sub_106,3,distance,cathedral,spatial_unmasking,5,171,0,0,_nine_,talker-p268_sex-f_text-_nine_.wav,p268,f,5,6,6.0,7.0,RX81,6,0.0,0.0,7.0,78.34149293193902,babble-reversed_n13_p307-one-p318-five-p229-four-p268-eight-p284-two-p245-three.wav,4,RX81,5,0.0,0.0,6.0,89.31368318402099,mgb_normalisation,89.31368318402099,90.34149293193902,9,8.0,False,2.3121280670166016
,2024-07-15 11:42:25,sub_106,3,distance,cathedral,spatial_unmasking,5,172,0,0,_nine_,talker-p268_sex-f_text-_nine_.wav,p268,f,5,7,6.0,7.0,RX81,6,0.0,0.0,7.0,80.341492931939,babble-reversed_n13_p229-nine-p307-five-p256-two-p248-three-p245-one-p268-eight.wav,4,RX81,5,0.0,0.0,6.0,89.31368318402099,mgb_normalisation,89.31368318402099,90.34149293193902,9,9.0,True,1.81209397315979
,2024-07-15 11:42:30,sub_106,3,distance,cathedral,spatial_unmasking,5,173,0,0,_eight_,talker-p268_sex-f_text-_eight_.wav,p268,f,5,8,6.0,7.0,RX81,6,0.0,0.0,7.0,80.34149293193903,babble-reversed_n13_p318-five-p229-four-p256-eight-p284-one-p245-three-p248-two.wav,4,RX81,5,0.0,0.0,6.0,89.31368318402099,mgb_normalisation,89.31368318402099,90.34149293193902,8,5.0,False,3.0570476055145264
,2024-07-15 11:42:35,sub_106,3,distance,cathedral,spatial_unmasking,5,174,0,0,_two_,talker-p268_sex-f_text-_two_.wav,p268,f,5,9,6.0,7.0,RX81,6,0.0,0.0,7.0,82.34149293193902,babble-reversed_n13_p318-three-p307-one-p256-five-p248-nine-p245-two-p284-eight.wav,4,RX81,5,0.0,0.0,6.0,89.31368318402099,mgb_normalisation,89.31368318402099,90.34149293193902,2,3.0,False,1.812316656112671
,2024-07-15 11:42:41,sub_106,3,distance,cathedral,spatial_unmasking,5,175,0,0,_six_,talker-p268_sex-f_text-_six_.wav,p268,f,5,10,6.0,7.0,RX81,6,0.0,0.0,7.0,84.341492931939,babble-reversed_n13_p229-three-p307-one-p318-two-p245-eight-p268-five-p284-four.wav,4,RX81,5,0.0,0.0,6.0,89.31368318402099,mgb_normalisation,89.31368318402099,90.34149293193902,6,3.0,False,3.812092065811157
,2024-07-15 11:42:44,sub_106,3,distance,cathedral,spatial_unmasking,5,176,0,0,_three_,talker-p268_sex-f_text-_three_.wav,p268,f,5,11,6.0,7.0,RX81,6,0.0,0.0,7.0,86.34149293193902,babble-reversed_n13_p256-three-p318-two-p229-nine-p248-four-p284-one-p268-eight.wav,4,RX81,5,0.0,0.0,6.0,89.31368318402099,mgb_normalisation,89.31368318402099,90.34149293193902,3,3.0,True,1.0624256134033203
,2024-07-15 11:42:48,sub_106,3,distance,cathedral,spatial_unmasking,5,177,0,0,_eight_,talker-p268_sex-f_text-_eight_.wav,p268,f,5,12,6.0,7.0,RX81,6,0.0,0.0,7.0,86.34149293193902,babble-reversed_n13_p229-five-p318-three-p307-two-p245-four-p284-nine-p248-eight.wav,4,RX81,5,0.0,0.0,6.0,89.31368318402099,mgb_normalisation,89.31368318402099,90.34149293193902,8,8.0,True,1.3124079704284668
,2024-07-15 11:42:51,sub_106,3,distance,cathedral,spatial_unmasking,5,178,0,0,_six_,talker-p268_sex-f_text-_six_.wav,p268,f,5,13,6.0,7.0,RX81,6,0.0,0.0,7.0,84.341492931939,babble-reversed_n13_p229-five-p318-two-p307-eight-p268-three-p248-four-p245-one.wav,4,RX81,5,0.0,0.0,6.0,89.313683184021,mgb_normalisation,89.31368318402099,90.34149293193902,6,6.0,True,0.996518850326538
,2024-07-15 11:42:55,sub_106,3,distance,cathedral,spatial_unmasking,5,179,0,0,_five_,talker-p268_sex-f_text-_five_.wav,p268,f,5,14,6.0,7.0,RX81,6,0.0,0.0,7.0,84.341492931939,babble-reversed_n13_p256-eight-p318-two-p307-five-p245-four-p268-nine-p284-one.wav,4,RX81,5,0.0,0.0,6.0,89.31368318402099,mgb_normalisation,89.31368318402099,90.34149293193902,5,5.0,True,1.3117105960845947
,2024-07-15 11:42:58,sub_106,3,distance,cathedral,spatial_unmasking,5,180,0,0,_nine_,talker-p268_sex-f_text-_nine_.wav,p268,f,5,15,6.0,7.0,RX81,6,0.0,0.0,7.0,82.34149293193902,babble-reversed_n13_p256-four-p229-eight-p307-five-p248-three-p245-one-p284-two.wav,4,RX81,5,0.0,0.0,6.0,89.31368318402099,mgb_normalisation,89.31368318402099,90.34149293193902,9,9.0,True,0.9374344348907472
,2024-07-15 11:43:02,sub_106,3,distance,cathedral,spatial_unmasking,5,181,0,0,_six_,talker-p268_sex-f_text-_six_.wav,p268,f,5,16,6.0,7.0,RX81,6,0.0,0.0,7.0,82.34149293193902,babble-reversed_n13_p256-five-p229-one-p318-three-p248-nine-p284-eight-p268-two.wav,4,RX81,5,0.0,0.0,6.0,89.31368318402099,mgb_normalisation,89.31368318402099,90.34149293193902,6,6.0,True,1.1249213218688965
,2024-07-15 11:43:06,sub_106,3,distance,cathedral,spatial_unmasking,5,182,0,0,_two_,talker-p268_sex-f_text-_two_.wav,p268,f,5,17,6.0,7.0,RX81,6,0.0,0.0,7.0,80.34149293193903,babble-reversed_n13_p318-three-p307-one-p256-five-p248-nine-p245-two-p284-eight.wav,4,RX81,5,0.0,0.0,6.0,89.31368318402099,mgb_normalisation,89.31368318402099,90.34149293193902,2,3.0,False,1.3601384162902832
,2024-07-15 11:43:10,sub_106,3,distance,cathedral,spatial_unmasking,5,183,0,0,_three_,talker-p268_sex-f_text-_three_.wav,p268,f,5,18,6.0,7.0,RX81,6,0.0,0.0,7.0,81.34149293193902,babble-reversed_n13_p318-one-p307-two-p256-eight-p284-three-p248-five-p245-four.wav,4,RX81,5,0.0,0.0,6.0,89.313683184021,mgb_normalisation,89.31368318402099,90.34149293193902,3,8.0,False,1.562391996383667
,2024-07-15 11:43:14,sub_106,3,distance,cathedral,spatial_unmasking,5,184,0,0,_four_,talker-p268_sex-f_text-_four_.wav,p268,f,5,19,6.0,7.0,RX81,6,0.0,0.0,7.0,82.34149293193902,babble-reversed_n13_p256-two-p307-five-p318-nine-p248-eight-p245-four-p284-one.wav,4,RX81,5,0.0,0.0,6.0,89.31368318402099,mgb_normalisation,89.31368318402099,90.34149293193902,4,9.0,False,2.312337875366211
,2024-07-15 11:44:24,sub_106,3,distance,cathedral,spatial_unmasking,5,185,0,0,_nine_,talker-p268_sex-f_text-_nine_.wav,p268,f,5,20,6.0,7.0,RX81,6,0.0,0.0,7.0,83.34149293193902,babble-reversed_n13_p307-five-p229-three-p318-nine-p245-four-p268-eight-p284-two.wav,4,RX81,5,0.0,0.0,6.0,89.31368318402099,mgb_normalisation,89.31368318402099,90.34149293193902,9,8.0,False,66.9472005367279
,2024-07-15 11:44:38,sub_106,3,distance,cathedral,spatial_unmasking,5,186,0,0,_eight_,talker-p268_sex-f_text-_eight_.wav,p268,f,5,21,6.0,7.0,RX81,6,0.0,0.0,7.0,84.34149293193903,babble-reversed_n13_p229-two-p307-five-p318-four-p284-one-p248-nine-p268-eight.wav,4,RX81,5,0.0,0.0,6.0,89.31368318402099,mgb_normalisation,89.31368318402099,90.34149293193902,8,5.0,False,12.037134647369385
,2024-07-15 11:44:42,sub_106,3,distance,cathedral,spatial_unmasking,5,187,0,0,_nine_,talker-p268_sex-f_text-_nine_.wav,p268,f,5,22,6.0,7.0,RX81,6,0.0,0.0,7.0,85.341492931939,babble-reversed_n13_p229-nine-p307-five-p256-two-p248-three-p245-one-p268-eight.wav,4,RX81,5,0.0,0.0,6.0,89.31368318402099,mgb_normalisation,89.31368318402099,90.34149293193902,9,9.0,True,1.1841802597045898
,2024-07-15 11:44:45,sub_106,3,distance,cathedral,spatial_unmasking,5,188,0,0,_six_,talker-p268_sex-f_text-_six_.wav,p268,f,5,23,6.0,7.0,RX81,6,0.0,0.0,7.0,85.341492931939,babble-reversed_n13_p229-five-p318-two-p307-eight-p268-three-p248-four-p245-one.wav,4,RX81,5,0.0,0.0,6.0,89.313683184021,mgb_normalisation,89.31368318402099,90.34149293193902,6,6.0,True,1.1249210834503174
,2024-07-15 11:44:51,sub_106,3,distance,cathedral,spatial_unmasking,5,189,0,0,_four_,talker-p268_sex-f_text-_four_.wav,p268,f,5,24,6.0,7.0,RX81,6,0.0,0.0,7.0,84.341492931939,babble-reversed_n13_p229-two-p256-three-p318-eight-p284-five-p268-four-p245-one.wav,4,RX81,5,0.0,0.0,6.0,89.31368318402099,mgb_normalisation,89.31368318402099,90.34149293193902,4,8.0,False,3.4974188804626465
,2024-07-15 11:44:55,sub_106,3,distance,cathedral,spatial_unmasking,5,190,0,0,_three_,talker-p268_sex-f_text-_three_.wav,p268,f,5,25,6.0,7.0,RX81,6,0.0,0.0,7.0,85.341492931939,babble-reversed_n13_p318-five-p229-three-p256-four-p268-eight-p248-one-p245-nine.wav,4,RX81,5,0.0,0.0,6.0,89.31368318402099,mgb_normalisation,89.31368318402099,90.34149293193902,3,3.0,True,1.0624263286590576
,2024-07-15 11:44:58,sub_106,3,distance,cathedral,spatial_unmasking,5,191,0,0,_two_,talker-p268_sex-f_text-_two_.wav,p268,f,5,26,6.0,7.0,RX81,6,0.0,0.0,7.0,85.34149293193903,babble-reversed_n13_p256-two-p307-five-p318-nine-p248-eight-p245-four-p284-one.wav,4,RX81,5,0.0,0.0,6.0,89.31368318402099,mgb_normalisation,89.31368318402099,90.34149293193902,2,2.0,True,1.0624022483825684
,2024-07-15 11:45:01,sub_106,3,distance,cathedral,spatial_unmasking,5,192,0,0,_two_,talker-p268_sex-f_text-_two_.wav,p268,f,5,27,6.0,7.0,RX81,6,0.0,0.0,7.0,84.34149293193903,babble-reversed_n13_p256-four-p307-eight-p318-two-p248-three-p284-nine-p268-one.wav,4,RX81,5,0.0,0.0,6.0,89.313683184021,mgb_normalisation,89.31368318402099,90.34149293193902,2,2.0,True,0.9362010955810548
,2024-07-15 11:45:08,sub_106,3,distance,cathedral,spatial_unmasking,5,193,0,0,_four_,talker-p268_sex-f_text-_four_.wav,p268,f,5,28,6.0,7.0,RX81,6,0.0,0.0,7.0,84.341492931939,babble-reversed_n13_p256-four-p229-two-p318-five-p268-one-p248-eight-p245-three.wav,4,RX81,5,0.0,0.0,6.0,89.31368318402099,mgb_normalisation,89.31368318402099,90.34149293193902,4,8.0,False,4.3133745193481445
,2024-07-15 11:45:11,sub_106,3,distance,cathedral,spatial_unmasking,5,194,0,0,_six_,talker-p268_sex-f_text-_six_.wav,p268,f,5,29,6.0,7.0,RX81,6,0.0,0.0,7.0,85.341492931939,babble-reversed_n13_p318-one-p307-two-p256-eight-p284-three-p248-five-p245-four.wav,4,RX81,5,0.0,0.0,6.0,89.313683184021,mgb_normalisation,89.31368318402099,90.34149293193902,6,6.0,True,1.0004818439483645
,2024-07-15 11:45:15,sub_106,3,distance,cathedral,spatial_unmasking,5,195,0,0,_one_,talker-p268_sex-f_text-_one_.wav,p268,f,5,30,6.0,7.0,RX81,6,0.0,0.0,7.0,85.34149293193903,babble-reversed_n13_p229-one-p318-nine-p256-four-p284-eight-p268-five-p245-two.wav,4,RX81,5,0.0,0.0,6.0,89.31368318402099,mgb_normalisation,89.31368318402099,90.34149293193902,1,1.0,True,0.9374344348907472
,2024-07-15 11:45:18,sub_106,3,distance,cathedral,spatial_unmasking,5,196,0,0,_two_,talker-p268_sex-f_text-_two_.wav,p268,f,5,31,6.0,7.0,RX81,6,0.0,0.0,7.0,84.34149293193903,babble-reversed_n13_p318-one-p307-two-p256-eight-p284-three-p248-five-p245-four.wav,4,RX81,5,0.0,0.0,6.0,89.313683184021,mgb_normalisation,89.31368318402099,90.34149293193902,2,2.0,True,0.999929904937744
,2024-07-15 11:45:22,sub_106,3,distance,cathedral,spatial_unmasking,5,197,0,0,_nine_,talker-p268_sex-f_text-_nine_.wav,p268,f,5,32,6.0,7.0,RX81,6,0.0,0.0,7.0,84.341492931939,babble-reversed_n13_p318-one-p307-two-p256-eight-p284-three-p248-five-p245-four.wav,4,RX81,5,0.0,0.0,6.0,89.313683184021,mgb_normalisation,89.31368318402099,90.34149293193902,9,9.0,True,1.376235008239746
,2024-07-15 11:45:26,sub_106,3,distance,cathedral,spatial_unmasking,5,198,0,0,_four_,talker-p268_sex-f_text-_four_.wav,p268,f,5,33,6.0,7.0,RX81,6,0.0,0.0,7.0,83.34149293193902,babble-reversed_n13_p256-two-p307-five-p318-nine-p248-eight-p245-four-p284-one.wav,4,RX81,5,0.0,0.0,6.0,89.31368318402099,mgb_normalisation,89.31368318402099,90.34149293193902,4,8.0,False,1.9346923828125
,2024-07-15 11:45:31,sub_106,3,distance,cathedral,spatial_unmasking,5,199,0,0,_nine_,talker-p268_sex-f_text-_nine_.wav,p268,f,5,34,6.0,7.0,RX81,6,0.0,0.0,7.0,84.341492931939,babble-reversed_n13_p256-three-p318-two-p229-nine-p248-four-p284-one-p268-eight.wav,4,RX81,5,0.0,0.0,6.0,89.31368318402099,mgb_normalisation,89.31368318402099,90.34149293193902,9,9.0,True,2.437807321548462
,2024-07-15 11:45:37,sub_106,3,distance,cathedral,spatial_unmasking,5,200,0,0,_eight_,talker-p268_sex-f_text-_eight_.wav,p268,f,5,35,6.0,7.0,RX81,6,0.0,0.0,7.0,84.34149293193903,babble-reversed_n13_p318-one-p307-two-p256-eight-p284-three-p248-five-p245-four.wav,4,RX81,5,0.0,0.0,6.0,89.313683184021,mgb_normalisation,89.31368318402099,90.34149293193902,8,8.0,True,3.3128695487976074
,2024-07-15 11:45:42,sub_106,3,distance,cathedral,spatial_unmasking,5,201,0,0,_eight_,talker-p268_sex-f_text-_eight_.wav,p268,f,5,36,6.0,7.0,RX81,6,0.0,0.0,7.0,83.34149293193903,babble-reversed_n13_p229-two-p307-five-p318-four-p284-one-p248-nine-p268-eight.wav,4,RX81,5,0.0,0.0,6.0,89.31368318402099,mgb_normalisation,89.31368318402099,90.34149293193902,8,6.0,False,2.672586679458618
,2024-07-15 11:45:45,sub_106,3,distance,cathedral,spatial_unmasking,5,202,0,0,_six_,talker-p268_sex-f_text-_six_.wav,p268,f,5,37,6.0,7.0,RX81,6,0.0,0.0,7.0,84.341492931939,babble-reversed_n13_p229-eight-p256-nine-p318-four-p245-three-p268-five-p284-two.wav,4,RX81,5,0.0,0.0,6.0,89.31368318402099,mgb_normalisation,89.31368318402099,90.34149293193902,6,6.0,True,0.9999303817749025
,2024-07-15 11:45:49,sub_106,3,distance,cathedral,spatial_unmasking,5,203,0,0,_four_,talker-p268_sex-f_text-_four_.wav,p268,f,5,38,6.0,7.0,RX81,6,0.0,0.0,7.0,84.341492931939,babble-reversed_n13_p318-five-p229-four-p256-eight-p284-one-p245-three-p248-two.wav,4,RX81,5,0.0,0.0,6.0,89.31368318402099,mgb_normalisation,89.31368318402099,90.34149293193902,4,4.0,True,1.3749046325683594
,2024-07-15 11:46:26,sub_106,3,distance,cathedral,spatial_unmasking,6,204,0,0,_four_,talker-p268_sex-f_text-_four_.wav,p268,f,5,1,2.0,7.0,RX81,6,0.0,0.0,7.0,92.34149293193902,babble-reversed_n13_p229-nine-p256-four-p318-three-p268-eight-p248-two-p284-five.wav,0,RX81,1,0.0,0.0,2.0,84.40078082039426,mgb_normalisation,84.40078082039426,90.34149293193902,4,4.0,True,1.4217677116394043
,2024-07-15 11:46:30,sub_106,3,distance,cathedral,spatial_unmasking,6,205,0,0,_four_,talker-p268_sex-f_text-_four_.wav,p268,f,5,2,2.0,7.0,RX81,6,0.0,0.0,7.0,88.34149293193902,babble-reversed_n13_p229-five-p256-one-p318-three-p248-nine-p268-four-p284-eight.wav,0,RX81,1,0.0,0.0,2.0,84.40078082039426,mgb_normalisation,84.40078082039426,90.34149293193902,4,4.0,True,1.499895095825195
,2024-07-15 11:46:35,sub_106,3,distance,cathedral,spatial_unmasking,6,206,0,0,_eight_,talker-p268_sex-f_text-_eight_.wav,p268,f,5,3,2.0,7.0,RX81,6,0.0,0.0,7.0,84.34149293193903,babble-reversed_n13_p318-five-p229-four-p256-eight-p284-one-p245-three-p248-two.wav,0,RX81,1,0.0,0.0,2.0,84.40078082039426,mgb_normalisation,84.40078082039426,90.34149293193902,8,3.0,False,1.812439203262329
,2024-07-15 11:46:38,sub_106,3,distance,cathedral,spatial_unmasking,6,207,0,0,_four_,talker-p268_sex-f_text-_four_.wav,p268,f,5,4,2.0,7.0,RX81,6,0.0,0.0,7.0,86.341492931939,babble-reversed_n13_p256-eight-p318-five-p307-four-p245-three-p268-one-p284-nine.wav,0,RX81,1,0.0,0.0,2.0,84.40078082039426,mgb_normalisation,84.40078082039426,90.34149293193902,4,4.0,True,1.0623981952667236
,2024-07-15 11:46:41,sub_106,3,distance,cathedral,spatial_unmasking,6,208,0,0,_six_,talker-p268_sex-f_text-_six_.wav,p268,f,5,5,2.0,7.0,RX81,6,0.0,0.0,7.0,86.341492931939,babble-reversed_n13_p318-five-p256-nine-p307-eight-p248-two-p245-four-p284-three.wav,0,RX81,1,0.0,0.0,2.0,84.40078082039426,mgb_normalisation,84.40078082039426,90.34149293193902,6,6.0,True,1.0646939277648926
,2024-07-15 11:46:45,sub_106,3,distance,cathedral,spatial_unmasking,6,209,0,0,_five_,talker-p268_sex-f_text-_five_.wav,p268,f,5,6,2.0,7.0,RX81,6,0.0,0.0,7.0,84.341492931939,babble-reversed_n13_p229-nine-p318-one-p307-two-p248-eight-p245-five-p284-four.wav,0,RX81,1,0.0,0.0,2.0,84.40078082039426,mgb_normalisation,84.40078082039426,90.34149293193902,5,9.0,False,1.0624260902404783
,2024-07-15 11:46:49,sub_106,3,distance,cathedral,spatial_unmasking,6,210,0,0,_eight_,talker-p268_sex-f_text-_eight_.wav,p268,f,5,7,2.0,7.0,RX81,6,0.0,0.0,7.0,85.34149293193903,babble-reversed_n13_p318-three-p307-one-p256-five-p248-nine-p245-two-p284-eight.wav,0,RX81,1,0.0,0.0,2.0,84.40078082039426,mgb_normalisation,84.40078082039426,90.34149293193902,8,3.0,False,1.4374003410339355
,2024-07-15 11:46:52,sub_106,3,distance,cathedral,spatial_unmasking,6,211,0,0,_nine_,talker-p268_sex-f_text-_nine_.wav,p268,f,5,8,2.0,7.0,RX81,6,0.0,0.0,7.0,86.34149293193902,babble-reversed_n13_p318-three-p229-one-p256-eight-p245-five-p248-four-p284-nine.wav,0,RX81,1,0.0,0.0,2.0,84.40078082039427,mgb_normalisation,84.40078082039426,90.34149293193902,9,9.0,True,1.247424602508545
,2024-07-15 11:46:56,sub_106,3,distance,cathedral,spatial_unmasking,6,212,0,0,_five_,talker-p268_sex-f_text-_five_.wav,p268,f,5,9,2.0,7.0,RX81,6,0.0,0.0,7.0,86.34149293193902,babble-reversed_n13_p318-nine-p307-eight-p229-two-p284-one-p248-three-p245-five.wav,0,RX81,1,0.0,0.0,2.0,84.40078082039426,mgb_normalisation,84.40078082039426,90.34149293193902,5,5.0,True,1.185760498046875
,2024-07-15 11:46:59,sub_106,3,distance,cathedral,spatial_unmasking,6,213,0,0,_nine_,talker-p268_sex-f_text-_nine_.wav,p268,f,5,10,2.0,7.0,RX81,6,0.0,0.0,7.0,85.341492931939,babble-reversed_n13_p229-nine-p318-one-p307-two-p248-eight-p245-five-p284-four.wav,0,RX81,1,0.0,0.0,2.0,84.40078082039426,mgb_normalisation,84.40078082039426,90.34149293193902,9,9.0,True,1.0624229907989502
,2024-07-15 11:47:03,sub_106,3,distance,cathedral,spatial_unmasking,6,214,0,0,_four_,talker-p268_sex-f_text-_four_.wav,p268,f,5,11,2.0,7.0,RX81,6,0.0,0.0,7.0,85.341492931939,babble-reversed_n13_p307-one-p318-five-p229-four-p268-eight-p284-two-p245-three.wav,0,RX81,1,0.0,0.0,2.0,84.40078082039426,mgb_normalisation,84.40078082039426,90.34149293193902,4,4.0,True,1.499894618988037
,2024-07-15 11:47:07,sub_106,3,distance,cathedral,spatial_unmasking,6,215,0,0,_one_,talker-p268_sex-f_text-_one_.wav,p268,f,5,12,2.0,7.0,RX81,6,0.0,0.0,7.0,84.341492931939,babble-reversed_n13_p318-four-p256-five-p229-three-p284-one-p245-eight-p248-nine.wav,0,RX81,1,0.0,0.0,2.0,84.40078082039427,mgb_normalisation,84.40078082039426,90.34149293193902,1,9.0,False,1.6132745742797852
,2024-07-15 11:47:11,sub_106,3,distance,cathedral,spatial_unmasking,6,216,0,0,_one_,talker-p268_sex-f_text-_one_.wav,p268,f,5,13,2.0,7.0,RX81,6,0.0,0.0,7.0,85.34149293193903,babble-reversed_n13_p229-one-p318-nine-p256-four-p284-eight-p268-five-p245-two.wav,0,RX81,1,0.0,0.0,2.0,84.40078082039426,mgb_normalisation,84.40078082039426,90.34149293193902,1,1.0,True,1.248300313949585
,2024-07-15 11:47:15,sub_106,3,distance,cathedral,spatial_unmasking,6,217,0,0,_six_,talker-p268_sex-f_text-_six_.wav,p268,f,5,14,2.0,7.0,RX81,6,0.0,0.0,7.0,85.341492931939,babble-reversed_n13_p256-three-p318-one-p307-two-p284-nine-p268-four-p245-eight.wav,0,RX81,1,0.0,0.0,2.0,84.40078082039426,mgb_normalisation,84.40078082039426,90.34149293193902,6,6.0,True,1.18741774559021
,2024-07-15 11:47:18,sub_106,3,distance,cathedral,spatial_unmasking,6,218,0,0,_nine_,talker-p268_sex-f_text-_nine_.wav,p268,f,5,15,2.0,7.0,RX81,6,0.0,0.0,7.0,84.341492931939,babble-reversed_n13_p307-four-p318-three-p256-eight-p284-two-p245-nine-p248-five.wav,0,RX81,1,0.0,0.0,2.0,84.40078082039426,mgb_normalisation,84.40078082039426,90.34149293193902,9,3.0,False,1.3124091625213623
,2024-07-15 11:47:22,sub_106,3,distance,cathedral,spatial_unmasking,6,219,0,0,_three_,talker-p268_sex-f_text-_three_.wav,p268,f,5,16,2.0,7.0,RX81,6,0.0,0.0,7.0,85.341492931939,babble-reversed_n13_p256-four-p307-eight-p318-two-p248-three-p284-nine-p268-one.wav,0,RX81,1,0.0,0.0,2.0,84.40078082039427,mgb_normalisation,84.40078082039426,90.34149293193902,3,3.0,True,1.000880479812622
,2024-07-15 11:47:26,sub_106,3,distance,cathedral,spatial_unmasking,6,220,0,0,_eight_,talker-p268_sex-f_text-_eight_.wav,p268,f,5,17,2.0,7.0,RX81,6,0.0,0.0,7.0,85.34149293193903,babble-reversed_n13_p229-nine-p307-five-p256-two-p248-three-p245-one-p268-eight.wav,0,RX81,1,0.0,0.0,2.0,84.40078082039426,mgb_normalisation,84.40078082039426,90.34149293193902,8,3.0,False,2.185832500457764
,2024-07-15 11:47:30,sub_106,3,distance,cathedral,spatial_unmasking,6,221,0,0,_two_,talker-p268_sex-f_text-_two_.wav,p268,f,5,18,2.0,7.0,RX81,6,0.0,0.0,7.0,86.34149293193902,babble-reversed_n13_p229-one-p318-nine-p256-four-p284-eight-p268-five-p245-two.wav,0,RX81,1,0.0,0.0,2.0,84.40078082039426,mgb_normalisation,84.40078082039426,90.34149293193902,2,2.0,True,1.1249213218688965
,2024-07-15 11:47:34,sub_106,3,distance,cathedral,spatial_unmasking,6,222,0,0,_eight_,talker-p268_sex-f_text-_eight_.wav,p268,f,5,19,2.0,7.0,RX81,6,0.0,0.0,7.0,86.34149293193902,babble-reversed_n13_p318-three-p229-one-p256-eight-p245-five-p248-four-p284-nine.wav,0,RX81,1,0.0,0.0,2.0,84.40078082039427,mgb_normalisation,84.40078082039426,90.34149293193902,8,8.0,True,1.6873819828033447
,2024-07-15 11:47:38,sub_106,3,distance,cathedral,spatial_unmasking,6,223,0,0,_six_,talker-p268_sex-f_text-_six_.wav,p268,f,5,20,2.0,7.0,RX81,6,0.0,0.0,7.0,85.341492931939,babble-reversed_n13_p229-five-p256-one-p318-three-p248-nine-p268-four-p284-eight.wav,0,RX81,1,0.0,0.0,2.0,84.40078082039426,mgb_normalisation,84.40078082039426,90.34149293193902,6,6.0,True,1.24920654296875
,2024-07-15 11:47:41,sub_106,3,distance,cathedral,spatial_unmasking,6,224,0,0,_three_,talker-p268_sex-f_text-_three_.wav,p268,f,5,21,2.0,7.0,RX81,6,0.0,0.0,7.0,85.341492931939,babble-reversed_n13_p229-three-p307-one-p318-two-p245-eight-p268-five-p284-four.wav,0,RX81,1,0.0,0.0,2.0,84.40078082039426,mgb_normalisation,84.40078082039426,90.34149293193902,3,3.0,True,1.1237385272979736
,2024-07-15 11:47:46,sub_106,3,distance,cathedral,spatial_unmasking,6,225,0,0,_five_,talker-p268_sex-f_text-_five_.wav,p268,f,5,22,2.0,7.0,RX81,6,0.0,0.0,7.0,84.341492931939,babble-reversed_n13_p229-two-p307-five-p318-four-p284-one-p248-nine-p268-eight.wav,0,RX81,1,0.0,0.0,2.0,84.40078082039426,mgb_normalisation,84.40078082039426,90.34149293193902,5,9.0,False,2.3714542388916016
,2024-07-15 11:47:49,sub_106,3,distance,cathedral,spatial_unmasking,6,226,0,0,_six_,talker-p268_sex-f_text-_six_.wav,p268,f,5,23,2.0,7.0,RX81,6,0.0,0.0,7.0,85.341492931939,babble-reversed_n13_p318-nine-p256-five-p307-eight-p268-three-p248-one-p245-four.wav,0,RX81,1,0.0,0.0,2.0,84.40078082039426,mgb_normalisation,84.40078082039426,90.34149293193902,6,6.0,True,1.062424898147583
,2024-07-15 11:47:53,sub_106,3,distance,cathedral,spatial_unmasking,6,227,0,0,_two_,talker-p268_sex-f_text-_two_.wav,p268,f,5,24,2.0,7.0,RX81,6,0.0,0.0,7.0,85.34149293193903,babble-reversed_n13_p307-nine-p318-two-p256-one-p245-three-p268-four-p248-eight.wav,0,RX81,1,0.0,0.0,2.0,84.40078082039426,mgb_normalisation,84.40078082039426,90.34149293193902,2,2.0,True,0.9999327659606934
,2024-07-15 11:47:56,sub_106,3,distance,cathedral,spatial_unmasking,6,228,0,0,_three_,talker-p268_sex-f_text-_three_.wav,p268,f,5,25,2.0,7.0,RX81,6,0.0,0.0,7.0,84.341492931939,babble-reversed_n13_p256-four-p307-eight-p318-two-p248-three-p284-nine-p268-one.wav,0,RX81,1,0.0,0.0,2.0,84.40078082039427,mgb_normalisation,84.40078082039426,90.34149293193902,3,3.0,True,1.056408405303955
,2024-07-15 11:48:00,sub_106,3,distance,cathedral,spatial_unmasking,6,229,0,0,_five_,talker-p268_sex-f_text-_five_.wav,p268,f,5,26,2.0,7.0,RX81,6,0.0,0.0,7.0,84.341492931939,babble-reversed_n13_p318-three-p229-one-p256-eight-p245-five-p248-four-p284-nine.wav,0,RX81,1,0.0,0.0,2.0,84.40078082039427,mgb_normalisation,84.40078082039426,90.34149293193902,5,5.0,True,1.1874165534973145
,2024-07-15 11:48:03,sub_106,3,distance,cathedral,spatial_unmasking,6,230,0,0,_three_,talker-p268_sex-f_text-_three_.wav,p268,f,5,27,2.0,7.0,RX81,6,0.0,0.0,7.0,83.34149293193902,babble-reversed_n13_p307-nine-p318-two-p256-one-p245-three-p268-four-p248-eight.wav,0,RX81,1,0.0,0.0,2.0,84.40078082039426,mgb_normalisation,84.40078082039426,90.34149293193902,3,3.0,True,1.1249213218688965
,2024-07-15 11:48:07,sub_106,3,distance,cathedral,spatial_unmasking,6,231,0,0,_eight_,talker-p268_sex-f_text-_eight_.wav,p268,f,5,28,2.0,7.0,RX81,6,0.0,0.0,7.0,83.34149293193903,babble-reversed_n13_p256-three-p318-two-p229-nine-p248-four-p284-one-p268-eight.wav,0,RX81,1,0.0,0.0,2.0,84.40078082039426,mgb_normalisation,84.40078082039426,90.34149293193902,8,3.0,False,1.1106998920440674
,2024-07-15 11:48:11,sub_106,3,distance,cathedral,spatial_unmasking,6,232,0,0,_two_,talker-p268_sex-f_text-_two_.wav,p268,f,5,29,2.0,7.0,RX81,6,0.0,0.0,7.0,84.34149293193903,babble-reversed_n13_p229-nine-p256-four-p318-three-p268-eight-p248-two-p284-five.wav,0,RX81,1,0.0,0.0,2.0,84.40078082039426,mgb_normalisation,84.40078082039426,90.34149293193902,2,6.0,False,1.437377691268921
,2024-07-15 11:48:14,sub_106,3,distance,cathedral,spatial_unmasking,6,233,0,0,_six_,talker-p268_sex-f_text-_six_.wav,p268,f,5,30,2.0,7.0,RX81,6,0.0,0.0,7.0,85.341492931939,babble-reversed_n13_p229-three-p307-one-p318-two-p245-eight-p268-five-p284-four.wav,0,RX81,1,0.0,0.0,2.0,84.40078082039426,mgb_normalisation,84.40078082039426,90.34149293193902,6,6.0,True,1.3748760223388672
,2024-07-15 11:48:18,sub_106,3,distance,cathedral,spatial_unmasking,6,234,0,0,_two_,talker-p268_sex-f_text-_two_.wav,p268,f,5,31,2.0,7.0,RX81,6,0.0,0.0,7.0,85.34149293193903,babble-reversed_n13_p256-eight-p318-five-p307-four-p245-three-p268-one-p284-nine.wav,0,RX81,1,0.0,0.0,2.0,84.40078082039426,mgb_normalisation,84.40078082039426,90.34149293193902,2,2.0,True,1.1249010562896729
,2024-07-15 11:50:13,sub_106,3,distance,cathedral,spatial_unmasking,7,235,0,0,_eight_,talker-p268_sex-f_text-_eight_.wav,p268,f,5,1,7.0,7.0,RX81,6,0.0,0.0,7.0,92.34149293193902,babble-reversed_n13_p229-nine-p307-five-p256-two-p248-three-p245-one-p268-eight.wav,5,RX81,6,0.0,0.0,7.0,90.34149293193904,mgb_normalisation,90.34149293193902,90.34149293193902,8,8.0,True,3.688390493392944
,2024-07-15 11:50:17,sub_106,3,distance,cathedral,spatial_unmasking,7,236,0,0,_one_,talker-p268_sex-f_text-_one_.wav,p268,f,5,2,7.0,7.0,RX81,6,0.0,0.0,7.0,88.34149293193902,babble-reversed_n13_p256-four-p307-eight-p318-two-p248-three-p284-nine-p268-one.wav,5,RX81,6,0.0,0.0,7.0,90.34149293193904,mgb_normalisation,90.34149293193902,90.34149293193902,1,1.0,True,1.2448351383209229
,2024-07-15 11:50:20,sub_106,3,distance,cathedral,spatial_unmasking,7,237,0,0,_one_,talker-p268_sex-f_text-_one_.wav,p268,f,5,3,7.0,7.0,RX81,6,0.0,0.0,7.0,84.341492931939,babble-reversed_n13_p229-five-p256-one-p318-three-p248-nine-p268-four-p284-eight.wav,5,RX81,6,0.0,0.0,7.0,90.341492931939,mgb_normalisation,90.34149293193902,90.34149293193902,1,1.0,True,1.0624051094055176
,2024-07-15 11:50:24,sub_106,3,distance,cathedral,spatial_unmasking,7,238,0,0,_two_,talker-p268_sex-f_text-_two_.wav,p268,f,5,4,7.0,7.0,RX81,6,0.0,0.0,7.0,80.34149293193903,babble-reversed_n13_p318-three-p229-one-p256-eight-p245-five-p248-four-p284-nine.wav,5,RX81,6,0.0,0.0,7.0,90.34149293193904,mgb_normalisation,90.34149293193902,90.34149293193902,2,2.0,True,0.999929428100586
,2024-07-15 11:50:27,sub_106,3,distance,cathedral,spatial_unmasking,7,239,0,0,_three_,talker-p268_sex-f_text-_three_.wav,p268,f,5,5,7.0,7.0,RX81,6,0.0,0.0,7.0,76.34149293193902,babble-reversed_n13_p229-five-p256-three-p318-nine-p248-two-p284-four-p268-one.wav,5,RX81,6,0.0,0.0,7.0,90.34149293193904,mgb_normalisation,90.34149293193902,90.34149293193902,3,4.0,False,1.1875476837158203
,2024-07-15 11:50:32,sub_106,3,distance,cathedral,spatial_unmasking,7,240,0,0,_three_,talker-p268_sex-f_text-_three_.wav,p268,f,5,6,7.0,7.0,RX81,6,0.0,0.0,7.0,78.34149293193902,babble-reversed_n13_p229-five-p256-three-p318-nine-p248-two-p284-four-p268-one.wav,5,RX81,6,0.0,0.0,7.0,90.34149293193904,mgb_normalisation,90.34149293193902,90.34149293193902,3,4.0,False,2.3724443912506104
,2024-07-15 11:50:37,sub_106,3,distance,cathedral,spatial_unmasking,7,241,0,0,_eight_,talker-p268_sex-f_text-_eight_.wav,p268,f,5,7,7.0,7.0,RX81,6,0.0,0.0,7.0,80.34149293193903,babble-reversed_n13_p256-eight-p318-two-p307-five-p245-four-p268-nine-p284-one.wav,5,RX81,6,0.0,0.0,7.0,90.34149293193904,mgb_normalisation,90.34149293193902,90.34149293193902,8,8.0,True,2.560843706130981
,2024-07-15 11:50:40,sub_106,3,distance,cathedral,spatial_unmasking,7,242,0,0,_three_,talker-p268_sex-f_text-_three_.wav,p268,f,5,8,7.0,7.0,RX81,6,0.0,0.0,7.0,80.341492931939,babble-reversed_n13_p307-five-p229-three-p318-nine-p245-four-p268-eight-p284-two.wav,5,RX81,6,0.0,0.0,7.0,90.341492931939,mgb_normalisation,90.34149293193902,90.34149293193902,3,3.0,True,1.1248605251312256
,2024-07-15 11:50:44,sub_106,3,distance,cathedral,spatial_unmasking,7,243,0,0,_two_,talker-p268_sex-f_text-_two_.wav,p268,f,5,9,7.0,7.0,RX81,6,0.0,0.0,7.0,78.34149293193902,babble-reversed_n13_p307-four-p318-three-p256-eight-p284-two-p245-nine-p248-five.wav,5,RX81,6,0.0,0.0,7.0,90.341492931939,mgb_normalisation,90.34149293193902,90.34149293193902,2,2.0,True,1.2499122619628906
,2024-07-15 11:50:48,sub_106,3,distance,cathedral,spatial_unmasking,7,244,0,0,_nine_,talker-p268_sex-f_text-_nine_.wav,p268,f,5,10,7.0,7.0,RX81,6,0.0,0.0,7.0,78.34149293193902,babble-reversed_n13_p318-five-p229-four-p256-eight-p284-one-p245-three-p248-two.wav,5,RX81,6,0.0,0.0,7.0,90.34149293193904,mgb_normalisation,90.34149293193902,90.34149293193902,9,1.0,False,1.6861891746520996
,2024-07-15 11:50:51,sub_106,3,distance,cathedral,spatial_unmasking,7,245,0,0,_two_,talker-p268_sex-f_text-_two_.wav,p268,f,5,11,7.0,7.0,RX81,6,0.0,0.0,7.0,79.34149293193902,babble-reversed_n13_p318-five-p256-nine-p307-eight-p248-two-p245-four-p284-three.wav,5,RX81,6,0.0,0.0,7.0,90.34149293193904,mgb_normalisation,90.34149293193902,90.34149293193902,2,2.0,True,0.8749663829803467
,2024-07-15 11:50:55,sub_106,3,distance,cathedral,spatial_unmasking,7,246,0,0,_three_,talker-p268_sex-f_text-_three_.wav,p268,f,5,12,7.0,7.0,RX81,6,0.0,0.0,7.0,79.341492931939,babble-reversed_n13_p307-five-p229-two-p318-four-p248-three-p245-nine-p268-eight.wav,5,RX81,6,0.0,0.0,7.0,90.341492931939,mgb_normalisation,90.34149293193902,90.34149293193902,3,3.0,True,1.5623931884765625
,2024-07-15 11:51:00,sub_106,3,distance,cathedral,spatial_unmasking,7,247,0,0,_eight_,talker-p268_sex-f_text-_eight_.wav,p268,f,5,13,7.0,7.0,RX81,6,0.0,0.0,7.0,78.34149293193902,babble-reversed_n13_p229-nine-p318-one-p307-two-p248-eight-p245-five-p284-four.wav,5,RX81,6,0.0,0.0,7.0,90.34149293193904,mgb_normalisation,90.34149293193902,90.34149293193902,8,9.0,False,2.7498080730438232
,2024-07-15 11:51:05,sub_106,3,distance,cathedral,spatial_unmasking,7,248,0,0,_nine_,talker-p268_sex-f_text-_nine_.wav,p268,f,5,14,7.0,7.0,RX81,6,0.0,0.0,7.0,79.341492931939,babble-reversed_n13_p229-one-p318-eight-p256-three-p268-two-p245-five-p248-nine.wav,5,RX81,6,0.0,0.0,7.0,90.341492931939,mgb_normalisation,90.34149293193902,90.34149293193902,9,9.0,True,2.937267303466797
,2024-07-15 11:51:11,sub_106,3,distance,cathedral,spatial_unmasking,7,249,0,0,_four_,talker-p268_sex-f_text-_four_.wav,p268,f,5,15,7.0,7.0,RX81,6,0.0,0.0,7.0,79.341492931939,babble-reversed_n13_p229-nine-p318-one-p307-two-p248-eight-p245-five-p284-four.wav,5,RX81,6,0.0,0.0,7.0,90.34149293193904,mgb_normalisation,90.34149293193902,90.34149293193902,4,9.0,False,3.249772548675537
,2024-07-15 11:51:15,sub_106,3,distance,cathedral,spatial_unmasking,7,250,0,0,_nine_,talker-p268_sex-f_text-_nine_.wav,p268,f,5,16,7.0,7.0,RX81,6,0.0,0.0,7.0,80.341492931939,babble-reversed_n13_p229-nine-p307-five-p256-two-p248-three-p245-one-p268-eight.wav,5,RX81,6,0.0,0.0,7.0,90.34149293193904,mgb_normalisation,90.34149293193902,90.34149293193902,9,5.0,False,1.624887228012085
,2024-07-15 11:51:18,sub_106,3,distance,cathedral,spatial_unmasking,7,251,0,0,_eight_,talker-p268_sex-f_text-_eight_.wav,p268,f,5,17,7.0,7.0,RX81,6,0.0,0.0,7.0,81.34149293193902,babble-reversed_n13_p229-nine-p307-five-p256-two-p248-three-p245-one-p268-eight.wav,5,RX81,6,0.0,0.0,7.0,90.34149293193904,mgb_normalisation,90.34149293193902,90.34149293193902,8,5.0,False,1.4390654563903809
,2024-07-15 11:51:23,sub_106,3,distance,cathedral,spatial_unmasking,7,252,0,0,_nine_,talker-p268_sex-f_text-_nine_.wav,p268,f,5,18,7.0,7.0,RX81,6,0.0,0.0,7.0,82.34149293193902,babble-reversed_n13_p256-four-p229-eight-p307-five-p248-three-p245-one-p284-two.wav,5,RX81,6,0.0,0.0,7.0,90.341492931939,mgb_normalisation,90.34149293193902,90.34149293193902,9,3.0,False,2.000457763671875
,2024-07-15 11:51:28,sub_106,3,distance,cathedral,spatial_unmasking,7,253,0,0,_four_,talker-p268_sex-f_text-_four_.wav,p268,f,5,19,7.0,7.0,RX81,6,0.0,0.0,7.0,83.34149293193902,babble-reversed_n13_p307-five-p229-three-p318-nine-p245-four-p268-eight-p284-two.wav,5,RX81,6,0.0,0.0,7.0,90.341492931939,mgb_normalisation,90.34149293193902,90.34149293193902,4,2.0,False,3.1247317790985107
,2024-07-15 11:51:32,sub_106,3,distance,cathedral,spatial_unmasking,7,254,0,0,_five_,talker-p268_sex-f_text-_five_.wav,p268,f,5,20,7.0,7.0,RX81,6,0.0,0.0,7.0,84.341492931939,babble-reversed_n13_p256-three-p318-two-p229-nine-p248-four-p284-one-p268-eight.wav,5,RX81,6,0.0,0.0,7.0,90.341492931939,mgb_normalisation,90.34149293193902,90.34149293193902,5,5.0,True,1.310976505279541
,2024-07-15 11:51:38,sub_106,3,distance,cathedral,spatial_unmasking,7,255,0,0,_one_,talker-p268_sex-f_text-_one_.wav,p268,f,5,21,7.0,7.0,RX81,6,0.0,0.0,7.0,84.341492931939,babble-reversed_n13_p318-three-p307-one-p256-five-p248-nine-p245-two-p284-eight.wav,5,RX81,6,0.0,0.0,7.0,90.34149293193904,mgb_normalisation,90.34149293193902,90.34149293193902,1,9.0,False,3.689603090286255
,2024-07-15 11:51:43,sub_106,3,distance,cathedral,spatial_unmasking,7,256,0,0,_five_,talker-p268_sex-f_text-_five_.wav,p268,f,5,22,7.0,7.0,RX81,6,0.0,0.0,7.0,85.34149293193903,babble-reversed_n13_p256-four-p307-eight-p318-two-p248-three-p284-nine-p268-one.wav,5,RX81,6,0.0,0.0,7.0,90.34149293193904,mgb_normalisation,90.34149293193902,90.34149293193902,5,4.0,False,3.0630173683166504
,2024-07-15 11:51:48,sub_106,3,distance,cathedral,spatial_unmasking,7,257,0,0,_two_,talker-p268_sex-f_text-_two_.wav,p268,f,5,23,7.0,7.0,RX81,6,0.0,0.0,7.0,86.34149293193902,babble-reversed_n13_p318-five-p229-three-p256-four-p268-eight-p248-one-p245-nine.wav,5,RX81,6,0.0,0.0,7.0,90.34149293193904,mgb_normalisation,90.34149293193902,90.34149293193902,2,2.0,True,2.7490971088409424
,2024-07-15 11:51:53,sub_106,3,distance,cathedral,spatial_unmasking,7,258,0,0,_four_,talker-p268_sex-f_text-_four_.wav,p268,f,5,24,7.0,7.0,RX81,6,0.0,0.0,7.0,86.341492931939,babble-reversed_n13_p256-nine-p307-four-p229-one-p284-three-p248-two-p245-five.wav,5,RX81,6,0.0,0.0,7.0,90.34149293193904,mgb_normalisation,90.34149293193902,90.34149293193902,4,5.0,False,2.2350573539733887
,2024-07-15 11:51:56,sub_106,3,distance,cathedral,spatial_unmasking,7,259,0,0,_four_,talker-p268_sex-f_text-_four_.wav,p268,f,5,25,7.0,7.0,RX81,6,0.0,0.0,7.0,87.34149293193902,babble-reversed_n13_p229-five-p256-one-p318-three-p248-nine-p268-four-p284-eight.wav,5,RX81,6,0.0,0.0,7.0,90.341492931939,mgb_normalisation,90.34149293193902,90.34149293193902,4,4.0,True,1.0623605251312256
