,event_id,subject_id,timestamp,session_index,plane,setup,task,block,trial_index,stim_number,stim_type,stim_country_ids,stim_sexes,stim_talker_ids,speaker_ids,stim_level,resp_number,is_correct,speaker_distance_mean,speaker_distance_st_dev,reaction_time,spectral_coverage
0,,sub_120,2024-07-25 14:54:15,3,distance,cathedral,numerosity_judgement,1,0,3,countries_forward,"['_Mali_', '_Tonga_', '_Cuba_']","['m', 'm', 'f']","['p318', 'p307', 'p248']","[0, 5, 4]","[84.40078082039426, 90.34149293193902, 89.31368318402099]",2.0,False,5.0,2.6457513110645907,2.1827595233917236,0.8267733514924526
0,,sub_120,2024-07-25 14:56:12,3,distance,cathedral,numerosity_judgement,1,1,2,countries_forward,"['_Yemen_', '_Japan_']","['m', 'm']","['p256', 'p229']","[6, 1]","[91.58892582949886, 86.2038576498559]",2.0,True,5.5,3.5355339059327378,115.5084240436554,0.8175122006582681
0,,sub_120,2024-07-25 14:56:16,3,distance,cathedral,numerosity_judgement,1,2,5,countries_forward,"['_Belgium_', '_Japan_', '_Oman_', '_Mali_', '_Togo_']","['m', 'm', 'f', 'm', 'f']","['p307', 'p256', 'p245', 'p229', 'p268']","[9, 4, 2, 10, 7]","[92.00610777531934, 89.31368318402099, 87.57049330475357, 93.00003341222717, 91.73820004985969]",3.0,False,8.4,3.361547262794322,2.8748300075531006,0.7535467029849052
0,,sub_120,2024-07-25 14:56:22,3,distance,cathedral,numerosity_judgement,1,3,4,countries_forward,"['_Britain_', '_Tonga_', '_Mali_', '_Belgium_']","['m', 'f', 'f', 'm']","['p256', 'p248', 'p268', 'p229']","[0, 9, 5, 10]","[84.40078082039426, 92.00610777531934, 90.34149293193902, 93.00003341222717]",3.0,False,8.0,4.546060565661952,4.381909132003784,0.9059471115650892
0,,sub_120,2024-07-25 14:56:28,3,distance,cathedral,numerosity_judgement,1,4,6,countries_forward,"['_Togo_', '_Cuba_', '_Britain_', '_Yemen_', '_Peru_', '_Mali_']","['m', 'f', 'f', 'm', 'm', 'm']","['p229', 'p268', 'p248', 'p256', 'p318', 'p307']","[0, 3, 7, 5, 10, 4]","[84.40078082039426, 89.14911522239515, 91.73820004985969, 90.34149293193902, 93.00003341222717, 89.31368318402099]",2.0,False,6.833333333333333,3.4302575219167823,2.9369122982025146,0.7446146861877199
0,,sub_120,2024-07-25 14:56:33,3,distance,cathedral,numerosity_judgement,1,5,5,countries_forward,"['_Oman_', '_Syria_', '_Congo_', '_Cuba_', '_Belgium_']","['m', 'm', 'f', 'f', 'f']","['p256', 'p318', 'p248', 'p245', 'p284']","[3, 8, 0, 9, 10]","[89.14911522239515, 92.0152836843556, 84.40078082039426, 92.00610777531934, 93.00003341222717]",3.0,False,8.0,4.301162633521313,3.8758187294006348,0.8747928725456815
0,,sub_120,2024-07-25 14:56:38,3,distance,cathedral,numerosity_judgement,1,6,4,countries_forward,"['_Belgium_', '_Cuba_', '_Syria_', '_Peru_']","['m', 'f', 'f', 'f']","['p229', 'p245', 'p284', 'p248']","[1, 6, 8, 7]","[86.2038576498559, 91.58892582949886, 92.0152836843556, 91.73820004985969]",2.0,False,7.5,3.1091263510296048,3.0586628913879395,0.8736352286914084
0,,sub_120,2024-07-25 14:56:43,3,distance,cathedral,numerosity_judgement,1,7,6,countries_forward,"['_Cuba_', '_Congo_', '_Togo_', '_Yemen_', '_Mali_', '_Peru_']","['m', 'f', 'f', 'f', 'm', 'f']","['p307', 'p245', 'p268', 'p248', 'p256', 'p284']","[4, 2, 10, 3, 6, 8]","[89.31368318402099, 87.57049330475357, 93.00003341222717, 89.14911522239515, 91.58892582949886, 92.0152836843556]",3.0,False,7.5,3.082207001484488,2.9354054927825928,0.721632050845534
0,,sub_120,2024-07-25 14:56:47,3,distance,cathedral,numerosity_judgement,1,8,3,countries_forward,"['_Congo_', '_Sudan_', '_Togo_']","['f', 'f', 'm']","['p248', 'p245', 'p318']","[5, 1, 3]","[90.34149293193902, 86.2038576498559, 89.14911522239515]",2.0,False,5.0,2.0,2.3749077320098877,0.9179434797412326
0,,sub_120,2024-07-25 14:56:50,3,distance,cathedral,numerosity_judgement,1,9,2,countries_forward,"['_Syria_', '_Sudan_']","['f', 'f']","['p284', 'p245']","[6, 4]","[91.58892582949886, 89.31368318402099]",2.0,True,7.0,1.4142135623730951,1.8124830722808838,0.9564975598683464
0,,sub_120,2024-07-25 14:56:54,3,distance,cathedral,numerosity_judgement,1,10,6,countries_forward,"['_Oman_', '_Yemen_', '_Syria_', '_Britain_', '_Tonga_', '_Peru_']","['f', 'f', 'm', 'm', 'f', 'm']","['p268', 'p245', 'p256', 'p229', 'p248', 'p307']","[6, 2, 1, 4, 10, 3]","[91.58892582949886, 87.57049330475357, 86.2038576498559, 89.31368318402099, 93.00003341222717, 89.14911522239515]",3.0,False,6.333333333333333,3.265986323710904,1.499591588973999,0.8106684825785949
0,,sub_120,2024-07-25 14:57:04,3,distance,cathedral,numerosity_judgement,1,11,3,countries_forward,"['_Cuba_', '_Japan_', '_Congo_']","['m', 'm', 'f']","['p307', 'p256', 'p268']","[7, 5, 3]","[91.73820004985969, 90.34149293193902, 89.14911522239515]",3.0,True,7.0,2.0,7.939260482788086,0.7553285665645216
0,,sub_120,2024-07-25 14:57:07,3,distance,cathedral,numerosity_judgement,1,12,2,countries_forward,"['_Syria_', '_Peru_']","['m', 'f']","['p307', 'p245']","[0, 6]","[84.40078082039426, 91.58892582949886]",2.0,True,5.0,4.242640687119285,1.9999237060546875,0.8965497673362842
0,,sub_120,2024-07-25 14:57:11,3,distance,cathedral,numerosity_judgement,1,13,4,countries_forward,"['_Togo_', '_Oman_', '_Belgium_', '_Cuba_']","['m', 'f', 'f', 'm']","['p256', 'p245', 'p284', 'p307']","[2, 0, 5, 6]","[87.57049330475357, 84.40078082039426, 90.34149293193902, 91.58892582949886]",3.0,False,5.25,2.753785273643051,1.8749260902404785,0.9232890704800816
0,,sub_120,2024-07-25 14:57:16,3,distance,cathedral,numerosity_judgement,1,14,5,countries_forward,"['_Japan_', '_Sudan_', '_Oman_', '_Belgium_', '_Syria_']","['f', 'f', 'm', 'm', 'f']","['p248', 'p245', 'p307', 'p229', 'p284']","[5, 2, 8, 10, 1]","[90.34149293193902, 87.57049330475357, 92.0152836843556, 93.00003341222717, 86.2038576498559]",3.0,False,7.2,3.8340579025361627,3.5635721683502197,0.9326410169106798
0,,sub_120,2024-07-25 14:57:19,3,distance,cathedral,numerosity_judgement,1,15,2,countries_forward,"['_Sudan_', '_Congo_']","['f', 'f']","['p245', 'p248']","[6, 9]","[91.58892582949886, 92.00610777531934]",2.0,True,9.5,2.1213203435596424,1.8158676624298096,0.8684825785949382
0,,sub_120,2024-07-25 14:57:25,3,distance,cathedral,numerosity_judgement,1,16,5,countries_forward,"['_Britain_', '_Yemen_', '_Sudan_', '_Oman_', '_Tonga_']","['m', 'm', 'm', 'f', 'f']","['p318', 'p256', 'p307', 'p245', 'p248']","[2, 7, 8, 10, 0]","[87.57049330475357, 91.73820004985969, 92.0152836843556, 93.00003341222717, 84.40078082039426]",3.0,False,7.4,4.219004621945797,3.3125295639038086,0.7693791851095222
0,,sub_120,2024-07-25 14:57:34,3,distance,cathedral,numerosity_judgement,1,17,3,countries_forward,"['_Oman_', '_Peru_', '_Mali_']","['f', 'm', 'm']","['p245', 'p318', 'p229']","[5, 3, 4]","[90.34149293193902, 89.14911522239515, 89.31368318402099]",4.0,False,6.0,1.0,7.500576972961426,0.7289070480081716
0,,sub_120,2024-07-25 14:57:40,3,distance,cathedral,numerosity_judgement,1,18,6,countries_forward,"['_Mali_', '_Oman_', '_Britain_', '_Congo_', '_Belgium_', '_Tonga_']","['f', 'm', 'm', 'f', 'm', 'm']","['p248', 'p318', 'p229', 'p284', 'p307', 'p256']","[6, 0, 10, 9, 7, 5]","[91.58892582949886, 84.40078082039426, 93.00003341222717, 92.00610777531934, 91.73820004985969, 90.34149293193902]",5.0,False,8.166666666666666,3.5449494589721118,4.110732555389404,0.7800817160367722
0,,sub_120,2024-07-25 14:57:43,3,distance,cathedral,numerosity_judgement,1,19,4,countries_forward,"['_Congo_', '_Japan_', '_Belgium_', '_Britain_']","['f', 'm', 'm', 'f']","['p245', 'p318', 'p307', 'p284']","[10, 4, 0, 9]","[93.00003341222717, 89.31368318402099, 84.40078082039426, 92.00610777531934]",4.0,True,7.75,4.645786621588784,1.310981273651123,0.9396209283849734
0,,sub_120,2024-07-25 14:57:46,3,distance,cathedral,numerosity_judgement,1,20,3,countries_forward,"['_Congo_', '_Japan_', '_Britain_']","['m', 'm', 'm']","['p307', 'p318', 'p229']","[5, 6, 7]","[90.34149293193902, 91.58892582949886, 91.73820004985969]",4.0,False,8.0,1.0,1.8124299049377441,0.8700261037339689
0,,sub_120,2024-07-25 14:57:50,3,distance,cathedral,numerosity_judgement,1,21,2,countries_forward,"['_Oman_', '_Yemen_']","['m', 'm']","['p229', 'p256']","[3, 6]","[89.14911522239515, 91.58892582949886]",2.0,True,6.5,2.1213203435596424,1.6895878314971924,0.5410623084780388
0,,sub_120,2024-07-25 14:57:53,3,distance,cathedral,numerosity_judgement,1,22,4,countries_forward,"['_Oman_', '_Peru_', '_Britain_', '_Cuba_']","['f', 'm', 'm', 'f']","['p248', 'p307', 'p318', 'p268']","[7, 5, 10, 3]","[91.73820004985969, 90.34149293193902, 93.00003341222717, 89.14911522239515]",3.0,False,8.25,2.9860788111948193,1.125300407409668,0.6691067983202814
0,,sub_120,2024-07-25 14:57:56,3,distance,cathedral,numerosity_judgement,1,23,6,countries_forward,"['_Mali_', '_Togo_', '_Tonga_', '_Belgium_', '_Oman_', '_Cuba_']","['m', 'f', 'f', 'm', 'm', 'f']","['p256', 'p284', 'p248', 'p229', 'p318', 'p268']","[3, 1, 6, 7, 0, 8]","[89.14911522239515, 86.2038576498559, 91.58892582949886, 91.73820004985969, 84.40078082039426, 92.0152836843556]",3.0,False,6.166666666666667,3.3115957885386114,1.6249363422393799,0.8013505844966519
0,,sub_120,2024-07-25 14:58:00,3,distance,cathedral,numerosity_judgement,1,24,5,countries_forward,"['_Cuba_', '_Yemen_', '_Belgium_', '_Mali_', '_Syria_']","['f', 'f', 'm', 'f', 'm']","['p268', 'p245', 'p229', 'p284', 'p256']","[3, 6, 5, 10, 9]","[89.14911522239515, 91.58892582949886, 90.34149293193902, 93.00003341222717, 92.00610777531934]",4.0,False,8.6,2.8809720581775866,1.8153972625732422,0.794949494949495
0,,sub_120,2024-07-25 14:58:04,3,distance,cathedral,numerosity_judgement,1,25,6,countries_forward,"['_Sudan_', '_Togo_', '_Syria_', '_Peru_', '_Congo_', '_Tonga_']","['m', 'm', 'f', 'm', 'f', 'f']","['p307', 'p256', 'p248', 'p318', 'p284', 'p245']","[0, 3, 5, 2, 6, 10]","[84.40078082039426, 89.14911522239515, 90.34149293193902, 87.57049330475357, 91.58892582949886, 93.00003341222717]",4.0,False,6.333333333333333,3.5023801430836525,2.000941514968872,0.8483373056406764
0,,sub_120,2024-07-25 14:58:07,3,distance,cathedral,numerosity_judgement,1,26,3,countries_forward,"['_Syria_', '_Japan_', '_Sudan_']","['f', 'm', 'f']","['p248', 'p229', 'p284']","[10, 2, 3]","[93.00003341222717, 87.57049330475357, 89.14911522239515]",2.0,False,7.0,4.358898943540674,1.6249361038208008,0.9539439337192146
0,,sub_120,2024-07-25 14:58:13,3,distance,cathedral,numerosity_judgement,1,27,4,countries_forward,"['_Togo_', '_Britain_', '_Cuba_', '_Congo_']","['f', 'm', 'f', 'f']","['p248', 'p256', 'p284', 'p268']","[10, 5, 4, 2]","[93.00003341222717, 90.34149293193902, 89.31368318402099, 87.57049330475357]",3.0,False,7.25,3.4034296427770228,3.6873576641082764,0.8390875042560436
0,,sub_120,2024-07-25 14:58:15,3,distance,cathedral,numerosity_judgement,1,28,2,countries_forward,"['_Yemen_', '_Congo_']","['m', 'f']","['p229', 'p268']","[6, 5]","[91.58892582949886, 90.34149293193902]",2.0,True,7.5,0.7071067811865476,0.9999606609344482,0.7738962660310975
0,,sub_120,2024-07-25 14:58:18,3,distance,cathedral,numerosity_judgement,1,29,5,countries_forward,"['_Mali_', '_Cuba_', '_Tonga_', '_Belgium_', '_Yemen_']","['m', 'f', 'f', 'm', 'f']","['p307', 'p268', 'p245', 'p229', 'p284']","[4, 6, 3, 7, 2]","[89.31368318402099, 91.58892582949886, 89.14911522239515, 91.73820004985969, 87.57049330475357]",3.0,False,6.4,2.073644135332772,1.1237480640411377,0.705799568720917
0,,sub_120,2024-07-25 14:58:24,3,distance,cathedral,numerosity_judgement,1,30,6,countries_forward,"['_Yemen_', '_Tonga_', '_Mali_', '_Cuba_', '_Togo_', '_Congo_']","['m', 'f', 'f', 'm', 'm', 'f']","['p318', 'p268', 'p248', 'p307', 'p256', 'p245']","[5, 3, 10, 7, 2, 4]","[90.34149293193902, 89.14911522239515, 93.00003341222717, 91.73820004985969, 87.57049330475357, 89.31368318402099]",4.0,False,7.166666666666667,2.9268868558020253,4.000536203384399,0.6946544092611509
0,,sub_120,2024-07-25 14:58:28,3,distance,cathedral,numerosity_judgement,1,31,5,countries_forward,"['_Syria_', '_Japan_', '_Belgium_', '_Peru_', '_Congo_']","['f', 'm', 'f', 'f', 'm']","['p245', 'p307', 'p248', 'p268', 'p318']","[1, 4, 9, 8, 2]","[86.2038576498559, 89.31368318402099, 92.00610777531934, 92.0152836843556, 87.57049330475357]",3.0,False,6.8,3.5637059362410923,1.6874332427978516,0.911156508909318
0,,sub_120,2024-07-25 14:58:30,3,distance,cathedral,numerosity_judgement,1,32,3,countries_forward,"['_Mali_', '_Japan_', '_Oman_']","['m', 'f', 'm']","['p307', 'p268', 'p256']","[4, 1, 0]","[89.31368318402099, 86.2038576498559, 84.40078082039426]",2.0,False,3.6666666666666665,2.081665999466133,1.2499516010284424,0.8465894904097151
0,,sub_120,2024-07-25 14:58:34,3,distance,cathedral,numerosity_judgement,1,33,4,countries_forward,"['_Cuba_', '_Yemen_', '_Congo_', '_Oman_']","['m', 'f', 'f', 'f']","['p307', 'p268', 'p245', 'p248']","[7, 8, 4, 3]","[91.73820004985969, 92.0152836843556, 89.31368318402099, 89.14911522239515]",3.0,False,7.5,2.3804761428476167,1.624772548675537,0.629043241402792
0,,sub_120,2024-07-25 14:58:37,3,distance,cathedral,numerosity_judgement,1,34,2,countries_forward,"['_Peru_', '_Sudan_']","['m', 'f']","['p229', 'p268']","[5, 7]","[90.34149293193902, 91.73820004985969]",2.0,True,8.0,1.4142135623730951,1.374946117401123,0.9337759618658495
0,,sub_120,2024-07-25 14:58:40,3,distance,cathedral,numerosity_judgement,1,35,5,countries_forward,"['_Mali_', '_Yemen_', '_Peru_', '_Syria_', '_Oman_']","['m', 'f', 'f', 'm', 'f']","['p307', 'p248', 'p268', 'p256', 'p245']","[9, 5, 10, 2, 4]","[92.00610777531934, 90.34149293193902, 93.00003341222717, 87.57049330475357, 89.31368318402099]",3.0,False,8.0,3.391164991562634,1.061919927597046,0.6808648280558393
0,,sub_120,2024-07-25 14:58:42,3,distance,cathedral,numerosity_judgement,1,36,2,countries_forward,"['_Oman_', '_Japan_']","['m', 'm']","['p318', 'p229']","[5, 3]","[90.34149293193902, 89.14911522239515]",2.0,True,6.0,1.4142135623730951,1.1874535083770752,0.8411190557257973
0,,sub_120,2024-07-25 14:58:48,3,distance,cathedral,numerosity_judgement,1,37,4,countries_forward,"['_Mali_', '_Oman_', '_Tonga_', '_Cuba_']","['m', 'm', 'f', 'f']","['p256', 'p229', 'p245', 'p268']","[4, 3, 9, 5]","[89.31368318402099, 89.14911522239515, 92.00610777531934, 90.34149293193902]",3.0,False,7.25,2.6299556396765835,3.4998631477355957,0.7187265917602996
0,,sub_120,2024-07-25 14:58:51,3,distance,cathedral,numerosity_judgement,1,38,6,countries_forward,"['_Yemen_', '_Belgium_', '_Peru_', '_Sudan_', '_Congo_', '_Oman_']","['f', 'm', 'f', 'f', 'm', 'f']","['p248', 'p318', 'p284', 'p268', 'p307', 'p245']","[4, 1, 5, 6, 2, 3]","[89.31368318402099, 86.2038576498559, 90.34149293193902, 91.58892582949886, 87.57049330475357, 89.14911522239515]",4.0,False,5.5,1.8708286933869707,1.312448501586914,0.90943139257746
0,,sub_120,2024-07-25 14:58:56,3,distance,cathedral,numerosity_judgement,1,39,3,countries_forward,"['_Peru_', '_Oman_', '_Yemen_']","['m', 'm', 'f']","['p256', 'p318', 'p248']","[3, 6, 5]","[89.14911522239515, 91.58892582949886, 90.34149293193902]",3.0,True,6.666666666666667,1.5275252316519465,3.6092238426208496,0.6972534332084894
0,,sub_120,2024-07-25 14:58:59,3,distance,cathedral,numerosity_judgement,1,40,4,countries_forward,"['_Yemen_', '_Oman_', '_Syria_', '_Tonga_']","['f', 'f', 'm', 'm']","['p245', 'p268', 'p318', 'p229']","[3, 10, 1, 7]","[89.14911522239515, 93.00003341222717, 86.2038576498559, 91.73820004985969]",3.0,False,7.25,4.031128874149275,1.363466501235962,0.8313017818635796
0,,sub_120,2024-07-25 14:59:02,3,distance,cathedral,numerosity_judgement,1,41,2,countries_forward,"['_Yemen_', '_Britain_']","['m', 'f']","['p229', 'p245']","[3, 6]","[89.14911522239515, 91.58892582949886]",2.0,True,6.5,2.1213203435596424,0.9999613761901855,0.7297809556236523
0,,sub_120,2024-07-25 14:59:08,3,distance,cathedral,numerosity_judgement,1,42,3,countries_forward,"['_Peru_', '_Britain_', '_Yemen_']","['f', 'm', 'm']","['p245', 'p256', 'p307']","[5, 1, 8]","[90.34149293193902, 86.2038576498559, 92.0152836843556]",3.0,True,6.666666666666667,3.5118845842842465,4.363130331039429,0.6509136306889116
0,,sub_120,2024-07-25 14:59:11,3,distance,cathedral,numerosity_judgement,1,43,6,countries_forward,"['_Yemen_', '_Mali_', '_Oman_', '_Peru_', '_Cuba_', '_Syria_']","['f', 'm', 'm', 'm', 'f', 'm']","['p245', 'p318', 'p229', 'p307', 'p268', 'p256']","[1, 3, 4, 9, 10, 5]","[86.2038576498559, 89.14911522239515, 89.31368318402099, 92.00610777531934, 93.00003341222717, 90.34149293193902]",4.0,False,7.333333333333333,3.5023801430836525,1.4374442100524902,0.7654749744637385
0,,sub_120,2024-07-25 14:59:14,3,distance,cathedral,numerosity_judgement,1,44,5,countries_forward,"['_Cuba_', '_Yemen_', '_Japan_', '_Belgium_', '_Mali_']","['f', 'f', 'm', 'm', 'f']","['p268', 'p248', 'p229', 'p307', 'p245']","[5, 3, 2, 7, 6]","[90.34149293193902, 89.14911522239515, 87.57049330475357, 91.73820004985969, 91.58892582949886]",4.0,False,6.6,2.073644135332772,1.4364840984344482,0.7360458517761889
0,,sub_120,2024-07-25 14:59:18,3,distance,cathedral,numerosity_judgement,1,45,3,countries_forward,"['_Oman_', '_Cuba_', '_Japan_']","['m', 'f', 'm']","['p229', 'p245', 'p318']","[0, 5, 3]","[84.40078082039426, 90.34149293193902, 89.14911522239515]",2.0,False,4.666666666666667,2.516611478423583,1.499941349029541,0.7593008739076155
0,,sub_120,2024-07-25 14:59:22,3,distance,cathedral,numerosity_judgement,1,46,2,countries_forward,"['_Mali_', '_Yemen_']","['f', 'f']","['p245', 'p248']","[3, 10]","[89.14911522239515, 93.00003341222717]",3.0,False,8.5,4.949747468305833,3.1248767375946045,0.6790829644762229
0,,sub_120,2024-07-25 14:59:25,3,distance,cathedral,numerosity_judgement,1,47,4,countries_forward,"['_Mali_', '_Britain_', '_Tonga_', '_Congo_']","['m', 'm', 'm', 'm']","['p229', 'p318', 'p256', 'p307']","[10, 8, 0, 4]","[93.00003341222717, 92.0152836843556, 84.40078082039426, 89.31368318402099]",2.0,False,7.5,4.43471156521669,0.8749654293060303,0.804267393031438
0,,sub_120,2024-07-25 14:59:28,3,distance,cathedral,numerosity_judgement,1,48,5,countries_forward,"['_Mali_', '_Cuba_', '_Sudan_', '_Belgium_', '_Syria_']","['m', 'm', 'f', 'm', 'f']","['p318', 'p307', 'p284', 'p229', 'p268']","[9, 6, 5, 2, 3]","[92.00610777531934, 91.58892582949886, 90.34149293193902, 87.57049330475357, 89.14911522239515]",3.0,False,7.0,2.7386127875258306,1.4375383853912354,0.9545568039950062
0,,sub_120,2024-07-25 14:59:31,3,distance,cathedral,numerosity_judgement,1,49,6,countries_forward,"['_Britain_', '_Tonga_', '_Cuba_', '_Belgium_', '_Mali_', '_Syria_']","['f', 'f', 'm', 'f', 'm', 'm']","['p248', 'p268', 'p256', 'p284', 'p229', 'p318']","[8, 1, 5, 7, 3, 0]","[92.0152836843556, 86.2038576498559, 90.34149293193902, 91.73820004985969, 89.14911522239515, 84.40078082039426]",4.0,False,6.0,3.22490309931942,1.3124234676361084,0.9213710135058448
0,,sub_120,2024-07-25 14:59:34,3,distance,cathedral,numerosity_judgement,1,50,4,countries_forward,"['_Britain_', '_Sudan_', '_Yemen_', '_Peru_']","['f', 'm', 'f', 'f']","['p245', 'p256', 'p268', 'p248']","[3, 7, 9, 2]","[89.14911522239515, 91.73820004985969, 92.00610777531934, 87.57049330475357]",3.0,False,7.25,3.304037933599835,1.2511718273162842,0.7418567699466576
0,,sub_120,2024-07-25 14:59:39,3,distance,cathedral,numerosity_judgement,1,51,5,countries_forward,"['_Peru_', '_Togo_', '_Belgium_', '_Syria_', '_Congo_']","['f', 'f', 'm', 'm', 'm']","['p268', 'p248', 'p307', 'p256', 'p318']","[4, 2, 3, 5, 7]","[89.31368318402099, 87.57049330475357, 89.14911522239515, 90.34149293193902, 91.73820004985969]",4.0,False,6.2,1.9235384061671346,2.372826099395752,0.9014300306435138
0,,sub_120,2024-07-25 14:59:42,3,distance,cathedral,numerosity_judgement,1,52,6,countries_forward,"['_Sudan_', '_Cuba_', '_Mali_', '_Yemen_', '_Tonga_', '_Britain_']","['f', 'f', 'm', 'f', 'm', 'm']","['p284', 'p245', 'p307', 'p268', 'p256', 'p318']","[4, 0, 3, 5, 9, 8]","[89.31368318402099, 84.40078082039426, 89.14911522239515, 90.34149293193902, 92.00610777531934, 92.0152836843556]",3.0,False,6.833333333333333,3.3115957885386114,1.2499516010284424,0.8905913063216434
0,,sub_120,2024-07-25 14:59:49,3,distance,cathedral,numerosity_judgement,1,53,3,countries_forward,"['_Oman_', '_Cuba_', '_Britain_']","['f', 'm', 'm']","['p245', 'p307', 'p229']","[4, 7, 5]","[89.31368318402099, 91.73820004985969, 90.34149293193902]",3.0,True,7.333333333333333,1.5275252316519465,5.73269510269165,0.6665645216207013
0,,sub_120,2024-07-25 14:59:52,3,distance,cathedral,numerosity_judgement,1,54,2,countries_forward,"['_Mali_', '_Oman_']","['m', 'f']","['p318', 'p245']","[3, 4]","[89.14911522239515, 89.31368318402099]",2.0,True,5.5,0.7071067811865476,1.1874535083770752,0.7885030076041312
0,,sub_120,2024-07-25 14:59:56,3,distance,cathedral,numerosity_judgement,1,55,5,countries_forward,"['_Syria_', '_Peru_', '_Britain_', '_Oman_', '_Congo_']","['m', 'f', 'm', 'f', 'm']","['p307', 'p248', 'p229', 'p245', 'p256']","[7, 9, 2, 8, 4]","[91.73820004985969, 92.00610777531934, 87.57049330475357, 92.0152836843556, 89.31368318402099]",4.0,False,8.0,2.9154759474226504,1.9999186992645264,0.8601180342753376
0,,sub_120,2024-07-25 14:59:59,3,distance,cathedral,numerosity_judgement,1,56,2,countries_forward,"['_Peru_', '_Congo_']","['m', 'f']","['p307', 'p268']","[6, 5]","[91.58892582949886, 90.34149293193902]",3.0,False,7.5,0.7071067811865476,1.813439130783081,0.6923845193508115
0,,sub_120,2024-07-25 15:00:04,3,distance,cathedral,numerosity_judgement,1,57,4,countries_forward,"['_Tonga_', '_Yemen_', '_Britain_', '_Cuba_']","['f', 'm', 'f', 'm']","['p268', 'p256', 'p245', 'p318']","[6, 2, 1, 5]","[91.58892582949886, 87.57049330475357, 86.2038576498559, 90.34149293193902]",4.0,True,5.5,2.3804761428476167,3.62473464012146,0.7782998524571558
0,,sub_120,2024-07-25 15:00:09,3,distance,cathedral,numerosity_judgement,1,58,6,countries_forward,"['_Congo_', '_Peru_', '_Yemen_', '_Sudan_', '_Syria_', '_Japan_']","['f', 'f', 'f', 'm', 'f', 'm']","['p268', 'p245', 'p284', 'p307', 'p248', 'p256']","[8, 3, 7, 2, 6, 9]","[92.0152836843556, 89.14911522239515, 91.73820004985969, 87.57049330475357, 91.58892582949886, 92.00610777531934]",4.0,False,7.833333333333333,2.786873995477131,2.0597689151763916,0.8630802406083306
0,,sub_120,2024-07-25 15:00:12,3,distance,cathedral,numerosity_judgement,1,59,3,countries_forward,"['_Tonga_', '_Mali_', '_Sudan_']","['f', 'm', 'f']","['p284', 'p318', 'p268']","[9, 0, 2]","[92.00610777531934, 84.40078082039426, 87.57049330475357]",3.0,True,5.666666666666667,4.725815626252608,1.6874339580535889,0.9683804335489729
0,,sub_120,2024-07-25 15:00:15,3,distance,cathedral,numerosity_judgement,1,60,4,countries_forward,"['_Cuba_', '_Yemen_', '_Britain_', '_Mali_']","['m', 'm', 'f', 'm']","['p256', 'p229', 'p284', 'p307']","[10, 3, 2, 6]","[93.00003341222717, 89.14911522239515, 87.57049330475357, 91.58892582949886]",3.0,False,7.25,3.593976442141304,1.7391438484191895,0.7499602769265691
0,,sub_120,2024-07-25 15:00:24,3,distance,cathedral,numerosity_judgement,1,61,6,countries_forward,"['_Tonga_', '_Belgium_', '_Syria_', '_Japan_', '_Peru_', '_Mali_']","['f', 'f', 'f', 'f', 'm', 'm']","['p248', 'p284', 'p268', 'p245', 'p307', 'p256']","[9, 10, 5, 4, 0, 2]","[92.00610777531934, 93.00003341222717, 90.34149293193902, 89.31368318402099, 84.40078082039426, 87.57049330475357]",3.0,False,7.0,3.8987177379235853,6.438662767410278,0.9370786516853932
0,,sub_120,2024-07-25 15:00:27,3,distance,cathedral,numerosity_judgement,1,62,2,countries_forward,"['_Yemen_', '_Cuba_']","['m', 'm']","['p256', 'p229']","[5, 10]","[90.34149293193902, 93.00003341222717]",2.0,True,9.5,3.5355339059327378,1.249950647354126,0.6432527522415162
0,,sub_120,2024-07-25 15:00:31,3,distance,cathedral,numerosity_judgement,1,63,5,countries_forward,"['_Sudan_', '_Togo_', '_Britain_', '_Oman_', '_Cuba_']","['m', 'm', 'f', 'f', 'f']","['p256', 'p307', 'p284', 'p268', 'p245']","[4, 10, 8, 3, 6]","[89.31368318402099, 93.00003341222717, 92.0152836843556, 89.14911522239515, 91.58892582949886]",4.0,False,8.2,2.8635642126552705,2.92659592628479,0.790160027238679
0,,sub_120,2024-07-25 15:00:35,3,distance,cathedral,numerosity_judgement,1,64,3,countries_forward,"['_Peru_', '_Yemen_', '_Oman_']","['m', 'm', 'm']","['p307', 'p256', 'p229']","[3, 1, 10]","[89.14911522239515, 86.2038576498559, 93.00003341222717]",3.0,True,6.666666666666667,4.725815626252608,2.1077334880828857,0.6106230847803882
0,,sub_120,2024-07-25 15:00:39,3,distance,cathedral,numerosity_judgement,1,65,2,countries_forward,"['_Yemen_', '_Peru_']","['m', 'f']","['p256', 'p245']","[7, 5]","[91.73820004985969, 90.34149293193902]",2.0,True,8.0,1.4142135623730951,1.9995436668395996,0.5815457950289411
0,,sub_120,2024-07-25 15:00:42,3,distance,cathedral,numerosity_judgement,1,66,5,countries_forward,"['_Britain_', '_Mali_', '_Togo_', '_Japan_', '_Cuba_']","['m', 'f', 'f', 'f', 'm']","['p229', 'p284', 'p268', 'p248', 'p307']","[5, 1, 3, 8, 9]","[90.34149293193902, 86.2038576498559, 89.14911522239515, 92.0152836843556, 92.00610777531934]",4.0,False,7.2,3.3466401061363023,1.3123981952667236,0.8281125865395529
0,,sub_120,2024-07-25 15:00:46,3,distance,cathedral,numerosity_judgement,1,67,6,countries_forward,"['_Belgium_', '_Mali_', '_Britain_', '_Peru_', '_Tonga_', '_Sudan_']","['f', 'm', 'f', 'f', 'm', 'm']","['p245', 'p318', 'p284', 'p268', 'p307', 'p229']","[6, 0, 7, 2, 1, 10]","[91.58892582949886, 84.40078082039426, 91.73820004985969, 87.57049330475357, 86.2038576498559, 93.00003341222717]",5.0,False,6.333333333333333,3.9327683210007,2.066955089569092,0.9538304392236976
0,,sub_120,2024-07-25 15:00:50,3,distance,cathedral,numerosity_judgement,1,68,4,countries_forward,"['_Congo_', '_Japan_', '_Tonga_', '_Cuba_']","['m', 'm', 'f', 'f']","['p318', 'p256', 'p268', 'p284']","[0, 2, 1, 4]","[84.40078082039426, 87.57049330475357, 86.2038576498559, 89.31368318402099]",5.0,False,3.75,1.707825127659933,2.0002148151397705,0.9588241970264442
0,,sub_120,2024-07-25 15:00:53,3,distance,cathedral,numerosity_judgement,1,69,3,countries_forward,"['_Britain_', '_Mali_', '_Peru_']","['m', 'f', 'f']","['p229', 'p245', 'p268']","[0, 7, 1]","[84.40078082039426, 91.73820004985969, 86.2038576498559]",3.0,True,4.666666666666667,3.7859388972001824,1.9359655380249023,0.7901486777891272
0,,sub_120,2024-07-25 15:00:57,3,distance,cathedral,numerosity_judgement,1,70,6,countries_forward,"['_Mali_', '_Yemen_', '_Oman_', '_Peru_', '_Congo_', '_Tonga_']","['m', 'f', 'm', 'm', 'f', 'f']","['p318', 'p268', 'p256', 'p229', 'p248', 'p245']","[5, 10, 8, 4, 0, 7]","[90.34149293193902, 93.00003341222717, 92.0152836843556, 89.31368318402099, 84.40078082039426, 91.73820004985969]",3.0,False,7.666666666666667,3.5023801430836525,1.3749208450317383,0.83772557030984
0,,sub_120,2024-07-25 15:01:02,3,distance,cathedral,numerosity_judgement,1,71,2,countries_forward,"['_Oman_', '_Mali_']","['m', 'm']","['p256', 'p307']","[3, 10]","[89.14911522239515, 93.00003341222717]",3.0,False,8.5,4.949747468305833,4.001686334609985,0.6125524912041767
0,,sub_120,2024-07-25 15:01:07,3,distance,cathedral,numerosity_judgement,1,72,5,countries_forward,"['_Sudan_', '_Congo_', '_Britain_', '_Cuba_', '_Oman_']","['m', 'm', 'f', 'f', 'm']","['p318', 'p256', 'p245', 'p284', 'p307']","[0, 9, 8, 10, 3]","[84.40078082039426, 92.00610777531934, 92.0152836843556, 93.00003341222717, 89.14911522239515]",2.0,False,8.0,4.301162633521313,2.999882698059082,0.8508909317898082
0,,sub_120,2024-07-25 15:01:17,3,distance,cathedral,numerosity_judgement,1,73,3,countries_forward,"['_Britain_', '_Syria_', '_Belgium_']","['f', 'm', 'm']","['p248', 'p229', 'p307']","[8, 5, 1]","[92.0152836843556, 90.34149293193902, 86.2038576498559]",3.0,True,6.666666666666667,3.5118845842842465,8.251237154006958,0.8933265236636023
0,,sub_120,2024-07-25 15:01:21,3,distance,cathedral,numerosity_judgement,1,74,4,countries_forward,"['_Togo_', '_Britain_', '_Mali_', '_Cuba_']","['f', 'm', 'f', 'm']","['p245', 'p256', 'p284', 'p307']","[6, 0, 8, 7]","[91.58892582949886, 84.40078082039426, 92.0152836843556, 91.73820004985969]",3.0,False,7.25,3.593976442141304,2.752631187438965,0.6877085461355125
0,,sub_120,2024-07-25 15:03:27,3,distance,cathedral,numerosity_judgement,2,0,6,countries_forward,"['_Cuba_', '_Tonga_', '_Britain_', '_Togo_', '_Congo_', '_Mali_']","['f', 'm', 'f', 'm', 'f', 'm']","['p268', 'p256', 'p245', 'p307', 'p284', 'p229']","[5, 4, 3, 6, 7, 0]","[90.34149293193902, 89.31368318402099, 89.14911522239515, 91.58892582949886, 91.73820004985969, 84.40078082039426]",4.0,False,6.166666666666667,2.48327740429189,5.377180576324463,0.8227102485529452
0,,sub_120,2024-07-25 15:03:32,3,distance,cathedral,numerosity_judgement,2,1,5,countries_forward,"['_Tonga_', '_Peru_', '_Japan_', '_Congo_', '_Belgium_']","['f', 'f', 'm', 'f', 'm']","['p284', 'p268', 'p307', 'p245', 'p229']","[0, 10, 2, 5, 3]","[84.40078082039426, 93.00003341222717, 87.57049330475357, 90.34149293193902, 89.14911522239515]",4.0,False,6.0,3.8078865529319543,3.251425266265869,0.8986494155033481
0,,sub_120,2024-07-25 15:03:35,3,distance,cathedral,numerosity_judgement,2,2,3,countries_forward,"['_Syria_', '_Tonga_', '_Peru_']","['m', 'm', 'f']","['p307', 'p229', 'p284']","[4, 10, 3]","[89.31368318402099, 93.00003341222717, 89.14911522239515]",3.0,True,7.666666666666667,3.7859388972001824,1.314666748046875,0.8934740665077744
0,,sub_120,2024-07-25 15:03:39,3,distance,cathedral,numerosity_judgement,2,3,4,countries_forward,"['_Mali_', '_Cuba_', '_Congo_', '_Yemen_']","['f', 'm', 'm', 'f']","['p248', 'p307', 'p256', 'p245']","[4, 10, 3, 2]","[89.31368318402099, 93.00003341222717, 89.14911522239515, 87.57049330475357]",3.0,False,6.75,3.593976442141304,1.4993162155151367,0.7184428555215072
0,,sub_120,2024-07-25 15:03:44,3,distance,cathedral,numerosity_judgement,2,4,2,countries_forward,"['_Oman_', '_Congo_']","['m', 'f']","['p229', 'p245']","[10, 8]","[93.00003341222717, 92.0152836843556]",3.0,False,11.0,1.4142135623730951,3.685739517211914,0.6857564408126205
0,,sub_120,2024-07-25 15:03:47,3,distance,cathedral,numerosity_judgement,2,5,3,countries_forward,"['_Yemen_', '_Oman_', '_Tonga_']","['m', 'f', 'f']","['p307', 'p268', 'p245']","[8, 6, 5]","[92.0152836843556, 91.58892582949886, 90.34149293193902]",3.0,True,8.333333333333334,1.5275252316519468,1.4999406337738037,0.6952786289864942
0,,sub_120,2024-07-25 15:03:51,3,distance,cathedral,numerosity_judgement,2,6,4,countries_forward,"['_Yemen_', '_Congo_', '_Togo_', '_Peru_']","['m', 'f', 'f', 'm']","['p256', 'p284', 'p268', 'p307']","[10, 2, 9, 5]","[93.00003341222717, 87.57049330475357, 92.00610777531934, 90.34149293193902]",3.0,False,8.5,3.696845502136472,2.421724319458008,0.7313131313131314
0,,sub_120,2024-07-25 15:03:56,3,distance,cathedral,numerosity_judgement,2,7,6,countries_forward,"['_Togo_', '_Tonga_', '_Cuba_', '_Syria_', '_Yemen_', '_Oman_']","['f', 'f', 'f', 'm', 'm', 'm']","['p268', 'p245', 'p248', 'p318', 'p229', 'p307']","[6, 5, 3, 0, 7, 2]","[91.58892582949886, 90.34149293193902, 89.14911522239515, 84.40078082039426, 91.73820004985969, 87.57049330475357]",3.0,False,5.833333333333333,2.6394443859772205,2.500213384628296,0.7281693337873113
0,,sub_120,2024-07-25 15:03:59,3,distance,cathedral,numerosity_judgement,2,8,5,countries_forward,"['_Cuba_', '_Belgium_', '_Japan_', '_Yemen_', '_Oman_']","['m', 'm', 'f', 'm', 'm']","['p256', 'p307', 'p245', 'p318', 'p229']","[10, 5, 2, 1, 6]","[93.00003341222717, 90.34149293193902, 87.57049330475357, 86.2038576498559, 91.58892582949886]",4.0,False,6.8,3.5637059362410923,1.6853783130645752,0.7692202928157984
0,,sub_120,2024-07-25 15:04:04,3,distance,cathedral,numerosity_judgement,2,9,2,countries_forward,"['_Oman_', '_Congo_']","['m', 'm']","['p318', 'p256']","[1, 6]","[86.2038576498559, 91.58892582949886]",2.0,True,5.5,3.5355339059327378,3.4332048892974854,0.8651117920780842
0,,sub_120,2024-07-25 15:04:07,3,distance,cathedral,numerosity_judgement,2,10,3,countries_forward,"['_Togo_', '_Sudan_', '_Belgium_']","['f', 'f', 'm']","['p248', 'p268', 'p307']","[8, 1, 5]","[92.0152836843556, 86.2038576498559, 90.34149293193902]",3.0,True,6.666666666666667,3.5118845842842465,1.499941349029541,0.9322778345250256
0,,sub_120,2024-07-25 15:04:11,3,distance,cathedral,numerosity_judgement,2,11,5,countries_forward,"['_Yemen_', '_Syria_', '_Japan_', '_Britain_', '_Oman_']","['f', 'f', 'm', 'm', 'f']","['p284', 'p248', 'p307', 'p229', 'p268']","[8, 2, 5, 6, 3]","[92.0152836843556, 87.57049330475357, 90.34149293193902, 91.58892582949886, 89.14911522239515]",3.0,False,6.8,2.3874672772626644,1.5019102096557617,0.834842810123709
0,,sub_120,2024-07-25 15:04:15,3,distance,cathedral,numerosity_judgement,2,12,6,countries_forward,"['_Tonga_', '_Syria_', '_Belgium_', '_Mali_', '_Oman_', '_Japan_']","['f', 'm', 'm', 'f', 'f', 'm']","['p245', 'p307', 'p256', 'p248', 'p268', 'p229']","[6, 8, 2, 7, 10, 4]","[91.58892582949886, 92.0152836843556, 87.57049330475357, 91.73820004985969, 93.00003341222717, 89.31368318402099]",4.0,False,8.166666666666666,2.857738033247041,2.062896251678467,0.8861990693451368
0,,sub_120,2024-07-25 15:04:19,3,distance,cathedral,numerosity_judgement,2,13,4,countries_forward,"['_Britain_', '_Peru_', '_Oman_', '_Japan_']","['m', 'm', 'f', 'f']","['p229', 'p318', 'p248', 'p284']","[9, 3, 2, 6]","[92.00610777531934, 89.14911522239515, 87.57049330475357, 91.58892582949886]",3.0,False,7.0,3.1622776601683795,2.435807228088379,0.9347520145272954
0,,sub_120,2024-07-25 15:04:22,3,distance,cathedral,numerosity_judgement,2,14,2,countries_forward,"['_Peru_', '_Tonga_']","['m', 'm']","['p318', 'p229']","[8, 10]","[92.0152836843556, 93.00003341222717]",2.0,True,11.0,1.4142135623730951,1.4373948574066162,0.8348655090228124
0,,sub_120,2024-07-25 15:04:25,3,distance,cathedral,numerosity_judgement,2,15,3,countries_forward,"['_Britain_', '_Tonga_', '_Peru_']","['m', 'f', 'f']","['p229', 'p245', 'p268']","[1, 2, 6]","[86.2038576498559, 87.57049330475357, 91.58892582949886]",2.0,False,5.0,2.6457513110645907,1.3118219375610352,0.83899670865963
0,,sub_120,2024-07-25 15:04:28,3,distance,cathedral,numerosity_judgement,2,16,6,countries_forward,"['_Congo_', '_Japan_', '_Peru_', '_Tonga_', '_Cuba_', '_Togo_']","['m', 'f', 'f', 'f', 'm', 'm']","['p256', 'p284', 'p248', 'p245', 'p307', 'p318']","[4, 10, 2, 5, 1, 8]","[89.31368318402099, 93.00003341222717, 87.57049330475357, 90.34149293193902, 86.2038576498559, 92.0152836843556]",3.0,False,7.0,3.4641016151377544,1.2499499320983887,0.8748836681420951
0,,sub_120,2024-07-25 15:04:33,3,distance,cathedral,numerosity_judgement,2,17,5,countries_forward,"['_Togo_', '_Mali_', '_Sudan_', '_Cuba_', '_Yemen_']","['m', 'm', 'f', 'f', 'm']","['p229', 'p307', 'p245', 'p284', 'p256']","[0, 4, 1, 8, 9]","[84.40078082039426, 89.31368318402099, 86.2038576498559, 92.0152836843556, 92.00610777531934]",3.0,False,6.4,4.03732584763727,3.500276565551758,0.8209397344228805
0,,sub_120,2024-07-25 15:04:37,3,distance,cathedral,numerosity_judgement,2,18,4,countries_forward,"['_Tonga_', '_Oman_', '_Yemen_', '_Japan_']","['m', 'f', 'f', 'm']","['p256', 'p248', 'p268', 'p307']","[2, 3, 6, 0]","[87.57049330475357, 89.14911522239515, 91.58892582949886, 84.40078082039426]",2.0,False,4.75,2.5,1.8124287128448486,0.7625808648280559
0,,sub_120,2024-07-25 15:04:40,3,distance,cathedral,numerosity_judgement,2,19,2,countries_forward,"['_Yemen_', '_Peru_']","['m', 'f']","['p256', 'p245']","[7, 5]","[91.73820004985969, 90.34149293193902]",2.0,True,8.0,1.4142135623730951,1.4367589950561523,0.5815457950289411
0,,sub_120,2024-07-25 15:04:43,3,distance,cathedral,numerosity_judgement,2,20,4,countries_forward,"['_Oman_', '_Britain_', '_Mali_', '_Syria_']","['f', 'm', 'm', 'f']","['p268', 'p307', 'p256', 'p245']","[7, 4, 10, 0]","[91.73820004985969, 89.31368318402099, 93.00003341222717, 84.40078082039426]",3.0,False,7.25,4.272001872658765,1.4999403953552246,0.8219838837816366
0,,sub_120,2024-07-25 15:04:46,3,distance,cathedral,numerosity_judgement,2,21,2,countries_forward,"['_Mali_', '_Cuba_']","['m', 'f']","['p307', 'p268']","[7, 8]","[91.73820004985969, 92.0152836843556]",2.0,True,9.5,0.7071067811865476,1.2499511241912842,0.7326296674611281
0,,sub_120,2024-07-25 15:04:49,3,distance,cathedral,numerosity_judgement,2,22,5,countries_forward,"['_Tonga_', '_Belgium_', '_Oman_', '_Congo_', '_Sudan_']","['f', 'f', 'm', 'm', 'm']","['p284', 'p268', 'p229', 'p318', 'p307']","[7, 1, 10, 5, 0]","[91.73820004985969, 86.2038576498559, 93.00003341222717, 90.34149293193902, 84.40078082039426]",3.0,False,6.6,4.159326868617084,1.750291109085083,0.870922710248553
0,,sub_120,2024-07-25 15:04:54,3,distance,cathedral,numerosity_judgement,2,23,3,countries_forward,"['_Cuba_', '_Japan_', '_Sudan_']","['f', 'm', 'f']","['p284', 'p229', 'p248']","[10, 3, 2]","[93.00003341222717, 89.14911522239515, 87.57049330475357]",3.0,True,7.0,4.358898943540674,3.438539505004883,0.8800590171376689
0,,sub_120,2024-07-25 15:05:02,3,distance,cathedral,numerosity_judgement,2,24,6,countries_forward,"['_Cuba_', '_Belgium_', '_Oman_', '_Tonga_', '_Congo_', '_Togo_']","['f', 'f', 'f', 'm', 'f', 'm']","['p245', 'p268', 'p284', 'p318', 'p248', 'p256']","[0, 1, 6, 5, 7, 2]","[84.40078082039426, 86.2038576498559, 91.58892582949886, 90.34149293193902, 91.73820004985969, 87.57049330475357]",4.0,False,5.5,2.8809720581775866,5.811996221542358,0.8380887526954943
0,,sub_120,2024-07-25 15:05:06,3,distance,cathedral,numerosity_judgement,2,25,4,countries_forward,"['_Sudan_', '_Britain_', '_Belgium_', '_Togo_']","['m', 'f', 'f', 'f']","['p229', 'p248', 'p284', 'p268']","[1, 2, 6, 0]","[86.2038576498559, 87.57049330475357, 91.58892582949886, 84.40078082039426]",3.0,False,4.25,2.6299556396765835,2.4391236305236816,0.9574963114288956
0,,sub_120,2024-07-25 15:05:11,3,distance,cathedral,numerosity_judgement,2,26,3,countries_forward,"['_Cuba_', '_Yemen_', '_Britain_']","['f', 'm', 'f']","['p245', 'p229', 'p268']","[10, 1, 3]","[93.00003341222717, 86.2038576498559, 89.14911522239515]",3.0,True,6.666666666666667,4.725815626252608,2.4373085498809814,0.7938599477925321
0,,sub_120,2024-07-25 15:05:18,3,distance,cathedral,numerosity_judgement,2,27,5,countries_forward,"['_Sudan_', '_Belgium_', '_Japan_', '_Peru_', '_Mali_']","['f', 'f', 'm', 'f', 'm']","['p284', 'p245', 'p318', 'p248', 'p229']","[6, 0, 5, 1, 4]","[91.58892582949886, 84.40078082039426, 90.34149293193902, 86.2038576498559, 89.31368318402099]",3.0,False,5.2,2.588435821108957,5.3133440017700195,0.95471569628873
0,,sub_120,2024-07-25 15:05:21,3,distance,cathedral,numerosity_judgement,2,28,2,countries_forward,"['_Japan_', '_Britain_']","['m', 'f']","['p307', 'p245']","[8, 7]","[92.0152836843556, 91.73820004985969]",2.0,True,9.5,0.7071067811865476,2.001948356628418,0.8115764385427306
0,,sub_120,2024-07-25 15:05:27,3,distance,cathedral,numerosity_judgement,2,29,6,countries_forward,"['_Yemen_', '_Mali_', '_Cuba_', '_Oman_', '_Japan_', '_Sudan_']","['f', 'm', 'f', 'f', 'm', 'm']","['p284', 'p229', 'p268', 'p245', 'p256', 'p307']","[6, 0, 5, 10, 3, 8]","[91.58892582949886, 84.40078082039426, 90.34149293193902, 93.00003341222717, 89.14911522239515, 92.0152836843556]",3.0,False,7.333333333333333,3.559026084010437,3.438220500946045,0.7366246737033254
0,,sub_120,2024-07-25 15:05:30,3,distance,cathedral,numerosity_judgement,2,30,4,countries_forward,"['_Oman_', '_Peru_', '_Britain_', '_Cuba_']","['f', 'm', 'm', 'f']","['p248', 'p307', 'p318', 'p268']","[7, 5, 10, 3]","[91.73820004985969, 90.34149293193902, 93.00003341222717, 89.14911522239515]",3.0,False,8.25,2.9860788111948193,2.047539710998535,0.6691067983202814
0,,sub_120,2024-07-25 15:05:35,3,distance,cathedral,numerosity_judgement,2,31,6,countries_forward,"['_Syria_', '_Yemen_', '_Cuba_', '_Congo_', '_Peru_', '_Togo_']","['m', 'f', 'm', 'm', 'f', 'f']","['p318', 'p268', 'p229', 'p256', 'p248', 'p284']","[1, 8, 4, 9, 7, 10]","[86.2038576498559, 92.0152836843556, 89.31368318402099, 92.00610777531934, 91.73820004985969, 93.00003341222717]",4.0,False,8.5,3.391164991562634,2.374950647354126,0.846407899216888
0,,sub_120,2024-07-25 15:05:38,3,distance,cathedral,numerosity_judgement,2,32,3,countries_forward,"['_Oman_', '_Tonga_', '_Congo_']","['m', 'f', 'f']","['p256', 'p268', 'p245']","[7, 0, 3]","[91.73820004985969, 84.40078082039426, 89.14911522239515]",3.0,True,5.333333333333333,3.5118845842842465,1.6249361038208008,0.725184428555215
0,,sub_120,2024-07-25 15:05:41,3,distance,cathedral,numerosity_judgement,2,33,2,countries_forward,"['_Oman_', '_Yemen_']","['m', 'm']","['p307', 'p229']","[5, 3]","[90.34149293193902, 89.14911522239515]",2.0,True,6.0,1.4142135623730951,1.5623745918273926,0.6022471910112359
0,,sub_120,2024-07-25 15:05:45,3,distance,cathedral,numerosity_judgement,2,34,5,countries_forward,"['_Sudan_', '_Togo_', '_Japan_', '_Syria_', '_Peru_']","['m', 'm', 'f', 'f', 'f']","['p318', 'p256', 'p248', 'p284', 'p268']","[10, 0, 5, 1, 7]","[93.00003341222717, 84.40078082039426, 90.34149293193902, 86.2038576498559, 91.73820004985969]",3.0,False,6.6,4.159326868617084,1.937326431274414,0.916354556803995
0,,sub_120,2024-07-25 15:05:51,3,distance,cathedral,numerosity_judgement,2,35,3,countries_forward,"['_Congo_', '_Yemen_', '_Oman_']","['m', 'f', 'm']","['p256', 'p268', 'p307']","[9, 7, 6]","[92.00610777531934, 91.73820004985969, 91.58892582949886]",3.0,True,9.333333333333334,1.5275252316519468,4.4853270053863525,0.6491204176597435
0,,sub_120,2024-07-25 15:05:57,3,distance,cathedral,numerosity_judgement,2,36,4,countries_forward,"['_Yemen_', '_Oman_', '_Peru_', '_Togo_']","['m', 'm', 'f', 'm']","['p229', 'p307', 'p268', 'p256']","[9, 5, 3, 10]","[92.00610777531934, 90.34149293193902, 89.14911522239515, 93.00003341222717]",3.0,False,8.75,3.304037933599835,4.06222939491272,0.6414935875610033
0,,sub_120,2024-07-25 15:06:01,3,distance,cathedral,numerosity_judgement,2,37,6,countries_forward,"['_Congo_', '_Sudan_', '_Syria_', '_Tonga_', '_Oman_', '_Togo_']","['f', 'm', 'm', 'f', 'm', 'm']","['p284', 'p256', 'p307', 'p248', 'p318', 'p229']","[7, 0, 8, 3, 1, 2]","[91.73820004985969, 84.40078082039426, 92.0152836843556, 89.14911522239515, 86.2038576498559, 87.57049330475357]",3.0,False,5.5,3.271085446759225,2.175401449203491,0.8996822154125524
0,,sub_120,2024-07-25 15:06:07,3,distance,cathedral,numerosity_judgement,2,38,5,countries_forward,"['_Peru_', '_Cuba_', '_Syria_', '_Japan_', '_Tonga_']","['f', 'm', 'f', 'f', 'f']","['p268', 'p307', 'p284', 'p248', 'p245']","[6, 7, 8, 4, 10]","[91.58892582949886, 91.73820004985969, 92.0152836843556, 89.31368318402099, 93.00003341222717]",4.0,False,9.0,2.23606797749979,4.124926567077637,0.7940301895358075
0,,sub_120,2024-07-25 15:06:10,3,distance,cathedral,numerosity_judgement,2,39,2,countries_forward,"['_Belgium_', '_Mali_']","['m', 'm']","['p229', 'p256']","[10, 1]","[93.00003341222717, 86.2038576498559]",3.0,False,7.5,6.363961030678928,1.7367122173309326,0.9141073657927592
0,,sub_120,2024-07-25 15:06:15,3,distance,cathedral,numerosity_judgement,2,40,3,countries_forward,"['_Oman_', '_Peru_', '_Cuba_']","['m', 'm', 'm']","['p256', 'p307', 'p318']","[10, 8, 1]","[93.00003341222717, 92.0152836843556, 86.2038576498559]",3.0,True,8.333333333333334,4.725815626252608,2.8746840953826904,0.6713426398819657
0,,sub_120,2024-07-25 15:06:19,3,distance,cathedral,numerosity_judgement,2,41,2,countries_forward,"['_Britain_', '_Yemen_']","['f', 'm']","['p268', 'p318']","[6, 7]","[91.58892582949886, 91.73820004985969]",3.0,False,8.5,0.7071067811865476,3.0667037963867188,0.7904551129270231
0,,sub_120,2024-07-25 15:06:23,3,distance,cathedral,numerosity_judgement,2,42,5,countries_forward,"['_Togo_', '_Tonga_', '_Cuba_', '_Oman_', '_Britain_']","['m', 'f', 'f', 'm', 'f']","['p256', 'p284', 'p245', 'p307', 'p268']","[9, 5, 8, 4, 7]","[92.00610777531934, 90.34149293193902, 92.0152836843556, 89.31368318402099, 91.73820004985969]",3.0,False,8.6,2.073644135332772,1.874927043914795,0.8053342412892974
0,,sub_120,2024-07-25 15:06:26,3,distance,cathedral,numerosity_judgement,2,43,4,countries_forward,"['_Congo_', '_Tonga_', '_Yemen_', '_Mali_']","['m', 'm', 'f', 'm']","['p318', 'p229', 'p248', 'p256']","[9, 6, 3, 5]","[92.00610777531934, 91.58892582949886, 89.14911522239515, 90.34149293193902]",3.0,False,7.75,2.5,1.4999327659606934,0.7861536715469299
0,,sub_120,2024-07-25 15:06:30,3,distance,cathedral,numerosity_judgement,2,44,6,countries_forward,"['_Tonga_', '_Peru_', '_Sudan_', '_Togo_', '_Oman_', '_Britain_']","['m', 'f', 'f', 'f', 'm', 'f']","['p256', 'p248', 'p268', 'p284', 'p318', 'p245']","[3, 5, 10, 0, 1, 4]","[89.14911522239515, 90.34149293193902, 93.00003341222717, 84.40078082039426, 86.2038576498559, 89.31368318402099]",4.0,False,5.833333333333333,3.5449494589721118,1.6105034351348877,0.9557938939961412
0,,sub_120,2024-07-25 15:06:33,3,distance,cathedral,numerosity_judgement,2,45,5,countries_forward,"['_Togo_', '_Sudan_', '_Belgium_', '_Peru_', '_Tonga_']","['m', 'f', 'f', 'm', 'f']","['p229', 'p268', 'p248', 'p307', 'p245']","[5, 3, 1, 2, 8]","[90.34149293193902, 89.14911522239515, 86.2038576498559, 87.57049330475357, 92.0152836843556]",4.0,False,5.8,2.7748873851023212,1.187391757965088,0.8789013732833958
0,,sub_120,2024-07-25 15:06:38,3,distance,cathedral,numerosity_judgement,2,46,6,countries_forward,"['_Peru_', '_Oman_', '_Yemen_', '_Tonga_', '_Congo_', '_Belgium_']","['f', 'm', 'm', 'm', 'f', 'm']","['p245', 'p318', 'p229', 'p256', 'p268', 'p307']","[8, 10, 7, 4, 1, 5]","[92.0152836843556, 93.00003341222717, 91.73820004985969, 89.31368318402099, 86.2038576498559, 90.34149293193902]",4.0,False,7.833333333333333,3.1885210782848317,3.06238055229187,0.7597435024401317
0,,sub_120,2024-07-25 15:06:41,3,distance,cathedral,numerosity_judgement,2,47,2,countries_forward,"['_Mali_', '_Peru_']","['m', 'm']","['p307', 'p256']","[1, 5]","[86.2038576498559, 90.34149293193902]",3.0,False,5.0,2.8284271247461903,1.437443494796753,0.7583702190443763
0,,sub_120,2024-07-25 15:06:44,3,distance,cathedral,numerosity_judgement,2,48,4,countries_forward,"['_Togo_', '_Cuba_', '_Peru_', '_Britain_']","['f', 'm', 'm', 'f']","['p284', 'p256', 'p229', 'p268']","[4, 6, 5, 2]","[89.31368318402099, 91.58892582949886, 90.34149293193902, 87.57049330475357]",3.0,False,6.25,1.707825127659933,1.4968876838684082,0.910248552945182
0,,sub_120,2024-07-25 15:06:48,3,distance,cathedral,numerosity_judgement,2,49,3,countries_forward,"['_Yemen_', '_Sudan_', '_Cuba_']","['m', 'f', 'm']","['p229', 'p268', 'p307']","[10, 6, 7]","[93.00003341222717, 91.58892582949886, 91.73820004985969]",3.0,True,9.666666666666666,2.0816659994661326,1.8124289512634277,0.8117580297355578
0,,sub_120,2024-07-25 15:06:53,3,distance,cathedral,numerosity_judgement,2,50,6,countries_forward,"['_Syria_', '_Congo_', '_Japan_', '_Cuba_', '_Mali_', '_Britain_']","['f', 'f', 'm', 'm', 'f', 'm']","['p284', 'p245', 'p318', 'p256', 'p268', 'p229']","[1, 5, 6, 7, 3, 0]","[86.2038576498559, 90.34149293193902, 91.58892582949886, 91.73820004985969, 89.14911522239515, 84.40078082039426]",3.0,False,5.666666666666667,2.804757862395017,3.124878168106079,0.9381114515945976
0,,sub_120,2024-07-25 15:06:56,3,distance,cathedral,numerosity_judgement,2,51,5,countries_forward,"['_Oman_', '_Congo_', '_Britain_', '_Peru_', '_Cuba_']","['f', 'm', 'f', 'm', 'm']","['p248', 'p256', 'p268', 'p229', 'p307']","[8, 2, 0, 6, 5]","[92.0152836843556, 87.57049330475357, 84.40078082039426, 91.58892582949886, 90.34149293193902]",3.0,False,6.2,3.1937438845342623,1.4374432563781738,0.7274429690160027
0,,sub_120,2024-07-25 15:07:01,3,distance,cathedral,numerosity_judgement,2,52,4,countries_forward,"['_Yemen_', '_Syria_', '_Cuba_', '_Britain_']","['f', 'm', 'f', 'f']","['p248', 'p318', 'p284', 'p245']","[1, 5, 4, 7]","[86.2038576498559, 90.34149293193902, 89.31368318402099, 91.73820004985969]",3.0,False,6.25,2.5,3.485321521759033,0.8578821927136534
0,,sub_120,2024-07-25 15:07:06,3,distance,cathedral,numerosity_judgement,2,53,3,countries_forward,"['_Japan_', '_Sudan_', '_Oman_']","['m', 'm', 'f']","['p318', 'p229', 'p248']","[4, 8, 2]","[89.31368318402099, 92.0152836843556, 87.57049330475357]",2.0,False,6.666666666666667,3.0550504633038935,3.437340497970581,0.9621155373964364
0,,sub_120,2024-07-25 15:07:09,3,distance,cathedral,numerosity_judgement,2,54,2,countries_forward,"['_Oman_', '_Yemen_']","['m', 'm']","['p229', 'p256']","[3, 6]","[89.14911522239515, 91.58892582949886]",2.0,True,6.5,2.1213203435596424,1.557077169418335,0.5410623084780388
0,,sub_120,2024-07-25 15:07:13,3,distance,cathedral,numerosity_judgement,2,55,5,countries_forward,"['_Oman_', '_Cuba_', '_Togo_', '_Yemen_', '_Congo_']","['f', 'f', 'm', 'm', 'm']","['p284', 'p268', 'p307', 'p256', 'p318']","[1, 10, 4, 3, 7]","[86.2038576498559, 93.00003341222717, 89.31368318402099, 89.14911522239515, 91.73820004985969]",3.0,False,7.0,3.5355339059327378,1.374945878982544,0.6794347974123255
0,,sub_120,2024-07-25 15:07:17,3,distance,cathedral,numerosity_judgement,2,56,4,countries_forward,"['_Yemen_', '_Congo_', '_Japan_', '_Peru_']","['m', 'f', 'm', 'm']","['p229', 'p245', 'p307', 'p256']","[8, 7, 5, 9]","[92.0152836843556, 91.73820004985969, 90.34149293193902, 92.00610777531934]",4.0,True,9.25,1.707825127659933,2.5598201751708984,0.7940188400862558
0,,sub_120,2024-07-25 15:07:20,3,distance,cathedral,numerosity_judgement,2,57,3,countries_forward,"['_Yemen_', '_Oman_', '_Belgium_']","['f', 'm', 'f']","['p248', 'p229', 'p245']","[2, 3, 1]","[87.57049330475357, 89.14911522239515, 86.2038576498559]",3.0,True,4.0,1.0,1.3110036849975586,0.7491204176597435
0,,sub_120,2024-07-25 15:07:23,3,distance,cathedral,numerosity_judgement,2,58,6,countries_forward,"['_Cuba_', '_Mali_', '_Oman_', '_Tonga_', '_Britain_', '_Yemen_']","['f', 'm', 'f', 'm', 'm', 'f']","['p248', 'p256', 'p268', 'p307', 'p318', 'p284']","[2, 8, 6, 5, 0, 4]","[87.57049330475357, 92.0152836843556, 91.58892582949886, 90.34149293193902, 84.40078082039426, 89.31368318402099]",4.0,False,6.166666666666667,2.857738033247041,1.2499511241912842,0.7798774259448417
0,,sub_120,2024-07-25 15:07:26,3,distance,cathedral,numerosity_judgement,2,59,2,countries_forward,"['_Togo_', '_Yemen_']","['m', 'f']","['p256', 'p248']","[10, 9]","[93.00003341222717, 92.00610777531934]",3.0,False,11.5,0.7071067811865476,1.8124916553497314,0.6901373283395755
0,,sub_120,2024-07-25 15:07:29,3,distance,cathedral,numerosity_judgement,2,60,3,countries_forward,"['_Peru_', '_Cuba_', '_Mali_']","['f', 'f', 'm']","['p248', 'p268', 'p318']","[8, 6, 9]","[92.0152836843556, 91.58892582949886, 92.00610777531934]",3.0,True,9.666666666666666,1.5275252316519468,1.3703587055206299,0.7819316763136988
0,,sub_120,2024-07-25 15:07:33,3,distance,cathedral,numerosity_judgement,2,61,2,countries_forward,"['_Yemen_', '_Peru_']","['f', 'm']","['p248', 'p318']","[7, 8]","[91.73820004985969, 92.0152836843556]",3.0,False,9.5,0.7071067811865476,1.812429428100586,0.63331063443423
0,,sub_120,2024-07-25 15:07:36,3,distance,cathedral,numerosity_judgement,2,62,5,countries_forward,"['_Yemen_', '_Cuba_', '_Oman_', '_Peru_', '_Congo_']","['f', 'm', 'm', 'f', 'f']","['p248', 'p318', 'p256', 'p245', 'p284']","[8, 10, 5, 1, 6]","[92.0152836843556, 93.00003341222717, 90.34149293193902, 86.2038576498559, 91.58892582949886]",4.0,False,8.0,3.391164991562634,1.2389616966247559,0.7479854727045738
0,,sub_120,2024-07-25 15:07:40,3,distance,cathedral,numerosity_judgement,2,63,6,countries_forward,"['_Oman_', '_Tonga_', '_Britain_', '_Yemen_', '_Sudan_', '_Belgium_']","['m', 'm', 'f', 'm', 'f', 'm']","['p307', 'p256', 'p268', 'p318', 'p248', 'p229']","[4, 7, 2, 10, 5, 1]","[89.31368318402099, 91.73820004985969, 87.57049330475357, 93.00003341222717, 90.34149293193902, 86.2038576498559]",5.0,False,6.833333333333333,3.3115957885386114,1.811216115951538,0.7919986380660538
0,,sub_120,2024-07-25 15:07:43,3,distance,cathedral,numerosity_judgement,2,64,4,countries_forward,"['_Britain_', '_Mali_', '_Peru_', '_Oman_']","['f', 'f', 'm', 'm']","['p268', 'p248', 'p318', 'p229']","[0, 4, 1, 3]","[84.40078082039426, 89.31368318402099, 86.2038576498559, 89.14911522239515]",3.0,False,4.0,1.8257418583505538,1.3748984336853027,0.6887413460447168
0,,sub_120,2024-07-25 15:07:46,3,distance,cathedral,numerosity_judgement,2,65,3,countries_forward,"['_Peru_', '_Yemen_', '_Oman_']","['m', 'm', 'm']","['p307', 'p256', 'p229']","[3, 1, 10]","[89.14911522239515, 86.2038576498559, 93.00003341222717]",3.0,True,6.666666666666667,4.725815626252608,1.9933204650878906,0.6106230847803882
0,,sub_120,2024-07-25 15:07:50,3,distance,cathedral,numerosity_judgement,2,66,2,countries_forward,"['_Belgium_', '_Syria_']","['f', 'm']","['p284', 'p318']","[7, 9]","[91.73820004985969, 92.00610777531934]",3.0,False,10.0,1.4142135623730951,2.00010347366333,0.9271251844285552
0,,sub_120,2024-07-25 15:07:55,3,distance,cathedral,numerosity_judgement,2,67,5,countries_forward,"['_Britain_', '_Mali_', '_Syria_', '_Japan_', '_Oman_']","['f', 'm', 'f', 'm', 'f']","['p245', 'p318', 'p284', 'p256', 'p248']","[6, 1, 4, 0, 2]","[91.58892582949886, 86.2038576498559, 89.31368318402099, 84.40078082039426, 87.57049330475357]",3.0,False,4.6,2.4083189157584592,3.23504900932312,0.9322324367268188
0,,sub_120,2024-07-25 15:07:58,3,distance,cathedral,numerosity_judgement,2,68,4,countries_forward,"['_Britain_', '_Cuba_', '_Mali_', '_Congo_']","['m', 'f', 'm', 'm']","['p307', 'p248', 'p318', 'p256']","[1, 0, 8, 2]","[86.2038576498559, 84.40078082039426, 92.0152836843556, 87.57049330475357]",3.0,False,4.75,3.593976442141304,1.7499310970306396,0.9025536261491318
0,,sub_120,2024-07-25 15:08:02,3,distance,cathedral,numerosity_judgement,2,69,6,countries_forward,"['_Tonga_', '_Peru_', '_Britain_', '_Oman_', '_Yemen_', '_Mali_']","['f', 'f', 'm', 'f', 'm', 'f']","['p245', 'p268', 'p318', 'p248', 'p307', 'p284']","[10, 8, 6, 9, 2, 7]","[93.00003341222717, 92.0152836843556, 91.58892582949886, 92.00610777531934, 87.57049330475357, 91.73820004985969]",4.0,False,9.0,2.8284271247461903,1.4999415874481201,0.7124843945068664
0,,sub_120,2024-07-25 15:08:05,3,distance,cathedral,numerosity_judgement,2,70,5,countries_forward,"['_Tonga_', '_Yemen_', '_Britain_', '_Peru_', '_Oman_']","['f', 'm', 'f', 'f', 'm']","['p248', 'p229', 'p245', 'p268', 'p307']","[2, 0, 7, 3, 6]","[87.57049330475357, 84.40078082039426, 91.73820004985969, 89.14911522239515, 91.58892582949886]",3.0,False,5.6,2.8809720581775866,1.0033094882965088,0.7157757348768585
0,,sub_120,2024-07-25 15:08:09,3,distance,cathedral,numerosity_judgement,2,71,6,countries_forward,"['_Togo_', '_Belgium_', '_Japan_', '_Congo_', '_Oman_', '_Britain_']","['f', 'f', 'm', 'm', 'f', 'm']","['p245', 'p284', 'p318', 'p256', 'p248', 'p307']","[0, 8, 6, 1, 9, 4]","[84.40078082039426, 92.0152836843556, 91.58892582949886, 86.2038576498559, 92.00610777531934, 89.31368318402099]",3.0,False,6.666666666666667,3.669695718539436,1.8124289512634277,0.9284303711270004
0,,sub_120,2024-07-25 15:08:12,3,distance,cathedral,numerosity_judgement,2,72,4,countries_forward,"['_Yemen_', '_Togo_', '_Britain_', '_Syria_']","['f', 'm', 'm', 'f']","['p268', 'p318', 'p229', 'p245']","[7, 10, 3, 0]","[91.73820004985969, 93.00003341222717, 89.14911522239515, 84.40078082039426]",3.0,False,7.0,4.396968652757639,1.7499315738677979,0.863363976847123
0,,sub_120,2024-07-25 15:08:17,3,distance,cathedral,numerosity_judgement,2,73,3,countries_forward,"['_Syria_', '_Togo_', '_Congo_']","['f', 'f', 'm']","['p268', 'p248', 'p307']","[4, 9, 8]","[89.31368318402099, 92.00610777531934, 92.0152836843556]",3.0,True,9.0,2.6457513110645907,3.125532627105713,0.9214504596527068
0,,sub_120,2024-07-25 15:08:20,3,distance,cathedral,numerosity_judgement,2,74,2,countries_forward,"['_Tonga_', '_Syria_']","['f', 'f']","['p284', 'p268']","[9, 2]","[92.00610777531934, 87.57049330475357]",2.0,True,7.5,4.949747468305833,1.3113741874694824,0.9662013392350473
0,,sub_120,2024-07-25 15:10:09,3,distance,cathedral,numerosity_judgement,3,0,5,countries_reversed,"['_Syria_reversed', '_Cuba_reversed', '_Yemen_reversed', '_Britain_reversed', '_Belgium_reversed']","['f', 'f', 'f', 'm', 'f']","['p284', 'p245', 'p268', 'p307', 'p248']","[9, 7, 4, 6, 8]","[92.00610777531934, 91.73820004985969, 89.31368318402099, 91.58892582949886, 92.0152836843556]",3.0,False,8.8,1.9235384061671346,1.8128857612609863,0.7674838270343888
0,,sub_120,2024-07-25 15:10:12,3,distance,cathedral,numerosity_judgement,3,1,4,countries_reversed,"['_Togo_reversed', '_Japan_reversed', '_Oman_reversed', '_Sudan_reversed']","['f', 'm', 'f', 'f']","['p284', 'p229', 'p245', 'p248']","[5, 6, 9, 7]","[90.34149293193902, 91.58892582949886, 92.00610777531934, 91.73820004985969]",4.0,True,8.75,1.707825127659933,1.6874370574951172,0.908421291567359
0,,sub_120,2024-07-25 15:10:17,3,distance,cathedral,numerosity_judgement,3,2,2,countries_reversed,"['_Oman_reversed', '_Tonga_reversed']","['m', 'm']","['p256', 'p318']","[0, 10]","[84.40078082039426, 93.00003341222717]",3.0,False,7.0,7.0710678118654755,3.3752527236938477,0.8118034275337647
0,,sub_120,2024-07-25 15:10:20,3,distance,cathedral,numerosity_judgement,3,3,3,countries_reversed,"['_Oman_reversed', '_Sudan_reversed', '_Mali_reversed']","['m', 'm', 'f']","['p307', 'p256', 'p248']","[4, 10, 8]","[89.31368318402099, 93.00003341222717, 92.0152836843556]",4.0,False,9.333333333333334,3.055050463303893,1.7461602687835693,0.6254454658949041
0,,sub_120,2024-07-25 15:10:23,3,distance,cathedral,numerosity_judgement,3,4,6,countries_reversed,"['_Japan_reversed', '_Togo_reversed', '_Sudan_reversed', '_Mali_reversed', '_Oman_reversed', '_Belgium_reversed']","['m', 'f', 'm', 'f', 'm', 'm']","['p229', 'p268', 'p318', 'p284', 'p256', 'p307']","[1, 7, 3, 0, 2, 6]","[86.2038576498559, 91.73820004985969, 89.14911522239515, 84.40078082039426, 87.57049330475357, 91.58892582949886]",4.0,False,5.166666666666667,2.786873995477131,2.2499120235443115,0.9488139825218476
0,,sub_120,2024-07-25 15:10:26,3,distance,cathedral,numerosity_judgement,3,5,3,countries_reversed,"['_Yemen_reversed', '_Oman_reversed', '_Tonga_reversed']","['m', 'm', 'f']","['p256', 'p307', 'p245']","[2, 5, 10]","[87.57049330475357, 90.34149293193902, 93.00003341222717]",3.0,True,7.666666666666667,4.041451884327381,1.5518066883087158,0.5832936102599023
0,,sub_120,2024-07-25 15:10:30,3,distance,cathedral,numerosity_judgement,3,6,4,countries_reversed,"['_Congo_reversed', '_Sudan_reversed', '_Oman_reversed', '_Mali_reversed']","['f', 'm', 'm', 'm']","['p248', 'p256', 'p307', 'p229']","[5, 2, 9, 3]","[90.34149293193902, 87.57049330475357, 92.00610777531934, 89.14911522239515]",3.0,False,6.75,3.095695936834452,2.8124985694885254,0.7599364430825105
0,,sub_120,2024-07-25 15:10:35,3,distance,cathedral,numerosity_judgement,3,7,2,countries_reversed,"['_Belgium_reversed', '_Sudan_reversed']","['m', 'm']","['p229', 'p307']","[0, 2]","[84.40078082039426, 87.57049330475357]",2.0,True,3.0,1.4142135623730951,3.1905386447906494,0.9564862104187948
0,,sub_120,2024-07-25 15:10:37,3,distance,cathedral,numerosity_judgement,3,8,6,countries_reversed,"['_Togo_reversed', '_Britain_reversed', '_Tonga_reversed', '_Oman_reversed', '_Mali_reversed', '_Cuba_reversed']","['m', 'm', 'f', 'f', 'm', 'm']","['p318', 'p229', 'p284', 'p268', 'p256', 'p307']","[5, 3, 1, 6, 4, 7]","[90.34149293193902, 89.14911522239515, 86.2038576498559, 91.58892582949886, 89.31368318402099, 91.73820004985969]",3.0,False,6.333333333333333,2.160246899469287,1.187453269958496,0.7108387243218703
0,,sub_120,2024-07-25 15:10:39,3,distance,cathedral,numerosity_judgement,3,9,5,countries_reversed,"['_Oman_reversed', '_Syria_reversed', '_Cuba_reversed', '_Tonga_reversed', '_Yemen_reversed']","['f', 'm', 'f', 'm', 'm']","['p248', 'p256', 'p245', 'p229', 'p318']","[9, 3, 1, 0, 10]","[92.00610777531934, 89.14911522239515, 86.2038576498559, 84.40078082039426, 93.00003341222717]",3.0,False,6.6,4.61519230368573,1.0623557567596436,0.8108273748723187
0,,sub_120,2024-07-25 15:10:45,3,distance,cathedral,numerosity_judgement,3,10,3,countries_reversed,"['_Syria_reversed', '_Sudan_reversed', '_Belgium_reversed']","['f', 'm', 'f']","['p268', 'p256', 'p284']","[9, 0, 8]","[92.00610777531934, 84.40078082039426, 92.0152836843556]",3.0,True,7.666666666666667,4.932882862316247,4.501658201217651,0.9516740438088752
0,,sub_120,2024-07-25 15:10:48,3,distance,cathedral,numerosity_judgement,3,11,5,countries_reversed,"['_Japan_reversed', '_Cuba_reversed', '_Syria_reversed', '_Mali_reversed', '_Togo_reversed']","['f', 'm', 'f', 'm', 'f']","['p284', 'p229', 'p248', 'p256', 'p268']","[1, 8, 4, 9, 3]","[86.2038576498559, 92.0152836843556, 89.31368318402099, 92.00610777531934, 89.14911522239515]",3.0,False,7.0,3.391164991562634,1.4999947547912598,0.8680059017137669
0,,sub_120,2024-07-25 15:10:51,3,distance,cathedral,numerosity_judgement,3,12,6,countries_reversed,"['_Oman_reversed', '_Syria_reversed', '_Congo_reversed', '_Peru_reversed', '_Togo_reversed', '_Britain_reversed']","['f', 'm', 'm', 'f', 'm', 'f']","['p268', 'p229', 'p256', 'p248', 'p318', 'p284']","[6, 0, 7, 1, 10, 9]","[91.58892582949886, 84.40078082039426, 91.73820004985969, 86.2038576498559, 93.00003341222717, 92.00610777531934]",3.0,False,7.5,4.135214625627067,1.685323715209961,0.8487572352740892
0,,sub_120,2024-07-25 15:10:55,3,distance,cathedral,numerosity_judgement,3,13,2,countries_reversed,"['_Tonga_reversed', '_Oman_reversed']","['f', 'm']","['p248', 'p229']","[10, 6]","[93.00003341222717, 91.58892582949886]",3.0,False,10.0,2.8284271247461903,3.1260998249053955,0.5940869367835659
0,,sub_120,2024-07-25 15:10:58,3,distance,cathedral,numerosity_judgement,3,14,4,countries_reversed,"['_Cuba_reversed', '_Sudan_reversed', '_Oman_reversed', '_Yemen_reversed']","['f', 'm', 'f', 'm']","['p268', 'p307', 'p248', 'p256']","[5, 8, 9, 2]","[90.34149293193902, 92.0152836843556, 92.00610777531934, 87.57049330475357]",3.0,False,8.0,3.1622776601683795,1.4999382495880127,0.8163659062535467
0,,sub_120,2024-07-25 15:11:02,3,distance,cathedral,numerosity_judgement,3,15,2,countries_reversed,"['_Mali_reversed', '_Yemen_reversed']","['m', 'm']","['p256', 'p318']","[10, 4]","[93.00003341222717, 89.31368318402099]",3.0,False,9.0,4.242640687119285,2.4325308799743652,0.6938032005447736
0,,sub_120,2024-07-25 15:11:05,3,distance,cathedral,numerosity_judgement,3,16,6,countries_reversed,"['_Sudan_reversed', '_Belgium_reversed', '_Peru_reversed', '_Yemen_reversed', '_Japan_reversed', '_Syria_reversed']","['m', 'm', 'f', 'm', 'f', 'f']","['p229', 'p256', 'p248', 'p307', 'p268', 'p245']","[5, 9, 7, 8, 2, 10]","[90.34149293193902, 92.00610777531934, 91.73820004985969, 92.0152836843556, 87.57049330475357, 93.00003341222717]",3.0,False,8.833333333333334,2.9268868558020253,1.8721787929534912,0.8773351492452616
0,,sub_120,2024-07-25 15:11:10,3,distance,cathedral,numerosity_judgement,3,17,3,countries_reversed,"['_Yemen_reversed', '_Mali_reversed', '_Oman_reversed']","['m', 'm', 'f']","['p307', 'p229', 'p245']","[0, 5, 6]","[84.40078082039426, 90.34149293193902, 91.58892582949886]",3.0,True,5.666666666666667,3.2145502536643185,3.4326741695404053,0.7744977868573374
0,,sub_120,2024-07-25 15:11:16,3,distance,cathedral,numerosity_judgement,3,18,5,countries_reversed,"['_Sudan_reversed', '_Japan_reversed', '_Syria_reversed', '_Togo_reversed', '_Yemen_reversed']","['f', 'f', 'm', 'm', 'f']","['p248', 'p245', 'p256', 'p318', 'p268']","[0, 10, 9, 8, 6]","[84.40078082039426, 93.00003341222717, 92.00610777531934, 92.0152836843556, 91.58892582949886]",3.0,False,8.6,3.9749213828703582,4.68928337097168,0.8514697537169448
0,,sub_120,2024-07-25 15:11:20,3,distance,cathedral,numerosity_judgement,3,19,4,countries_reversed,"['_Yemen_reversed', '_Belgium_reversed', '_Cuba_reversed', '_Oman_reversed']","['m', 'f', 'f', 'f']","['p307', 'p284', 'p245', 'p248']","[7, 2, 5, 0]","[91.73820004985969, 87.57049330475357, 90.34149293193902, 84.40078082039426]",2.0,False,5.5,3.1091263510296048,3.374589681625366,0.6890250822835092
0,,sub_120,2024-07-25 15:11:24,3,distance,cathedral,numerosity_judgement,3,20,3,countries_reversed,"['_Britain_reversed', '_Belgium_reversed', '_Mali_reversed']","['f', 'f', 'm']","['p248', 'p284', 'p307']","[10, 4, 6]","[93.00003341222717, 89.31368318402099, 91.58892582949886]",3.0,True,8.666666666666666,3.055050463303893,1.999903678894043,0.8283736238792418
0,,sub_120,2024-07-25 15:11:27,3,distance,cathedral,numerosity_judgement,3,21,6,countries_reversed,"['_Japan_reversed', '_Oman_reversed', '_Sudan_reversed', '_Belgium_reversed', '_Mali_reversed', '_Cuba_reversed']","['f', 'm', 'f', 'm', 'f', 'm']","['p248', 'p307', 'p284', 'p229', 'p245', 'p256']","[3, 8, 2, 1, 5, 7]","[89.14911522239515, 92.0152836843556, 87.57049330475357, 86.2038576498559, 90.34149293193902, 91.73820004985969]",3.0,False,6.333333333333333,2.804757862395017,2.3138506412506104,0.7818295312677335
0,,sub_120,2024-07-25 15:11:31,3,distance,cathedral,numerosity_judgement,3,22,2,countries_reversed,"['_Oman_reversed', '_Yemen_reversed']","['m', 'f']","['p256', 'p245']","[3, 5]","[89.14911522239515, 90.34149293193902]",3.0,False,6.0,1.4142135623730951,3.046769142150879,0.5576552037226195
0,,sub_120,2024-07-25 15:11:36,3,distance,cathedral,numerosity_judgement,3,23,5,countries_reversed,"['_Yemen_reversed', '_Cuba_reversed', '_Oman_reversed', '_Belgium_reversed', '_Syria_reversed']","['f', 'f', 'm', 'm', 'f']","['p268', 'p284', 'p318', 'p307', 'p245']","[7, 3, 10, 8, 2]","[91.73820004985969, 89.14911522239515, 93.00003341222717, 92.0152836843556, 87.57049330475357]",3.0,False,8.0,3.391164991562634,3.3757998943328857,0.8409601634320736
0,,sub_120,2024-07-25 15:11:41,3,distance,cathedral,numerosity_judgement,3,24,4,countries_reversed,"['_Japan_reversed', '_Syria_reversed', '_Mali_reversed', '_Britain_reversed']","['f', 'f', 'f', 'm']","['p248', 'p245', 'p284', 'p256']","[4, 0, 1, 3]","[89.31368318402099, 84.40078082039426, 86.2038576498559, 89.14911522239515]",3.0,False,4.0,1.8257418583505538,3.3591532707214355,0.9351605947111564
0,,sub_120,2024-07-25 15:11:45,3,distance,cathedral,numerosity_judgement,3,25,6,countries_reversed,"['_Syria_reversed', '_Oman_reversed', '_Peru_reversed', '_Britain_reversed', '_Congo_reversed', '_Japan_reversed']","['m', 'f', 'f', 'f', 'f', 'm']","['p256', 'p284', 'p268', 'p245', 'p248', 'p318']","[2, 6, 9, 7, 5, 1]","[87.57049330475357, 91.58892582949886, 92.00610777531934, 91.73820004985969, 90.34149293193902, 86.2038576498559]",3.0,False,7.0,3.03315017762062,2.686692714691162,0.9023720349563046
0,,sub_120,2024-07-25 15:11:49,3,distance,cathedral,numerosity_judgement,3,26,2,countries_reversed,"['_Congo_reversed', '_Oman_reversed']","['m', 'f']","['p256', 'p284']","[5, 9]","[90.34149293193902, 92.00610777531934]",3.0,False,9.0,2.8284271247461903,2.687371253967285,0.7052774940415389
0,,sub_120,2024-07-25 15:11:53,3,distance,cathedral,numerosity_judgement,3,27,4,countries_reversed,"['_Mali_reversed', '_Oman_reversed', '_Britain_reversed', '_Peru_reversed']","['m', 'm', 'm', 'f']","['p318', 'p307', 'p256', 'p248']","[1, 5, 8, 3]","[86.2038576498559, 90.34149293193902, 92.0152836843556, 89.14911522239515]",2.0,False,6.25,2.9860788111948193,2.9388012886047363,0.6719441607082056
0,,sub_120,2024-07-25 15:11:58,3,distance,cathedral,numerosity_judgement,3,28,5,countries_reversed,"['_Togo_reversed', '_Japan_reversed', '_Belgium_reversed', '_Mali_reversed', '_Tonga_reversed']","['m', 'm', 'f', 'm', 'f']","['p307', 'p229', 'p248', 'p256', 'p268']","[1, 4, 9, 2, 3]","[86.2038576498559, 89.31368318402099, 92.00610777531934, 87.57049330475357, 89.14911522239515]",3.0,False,5.8,3.1144823004794877,3.500417470932007,0.939972761321076
0,,sub_120,2024-07-25 15:12:02,3,distance,cathedral,numerosity_judgement,3,29,3,countries_reversed,"['_Congo_reversed', '_Oman_reversed', '_Togo_reversed']","['m', 'f', 'm']","['p307', 'p245', 'p318']","[7, 6, 1]","[91.73820004985969, 91.58892582949886, 86.2038576498559]",3.0,True,6.666666666666667,3.2145502536643185,2.9386072158813477,0.7602996254681648
0,,sub_120,2024-07-25 15:12:04,3,distance,cathedral,numerosity_judgement,3,30,2,countries_reversed,"['_Tonga_reversed', '_Oman_reversed']","['m', 'f']","['p307', 'p248']","[9, 6]","[92.00610777531934, 91.58892582949886]",2.0,True,9.5,2.1213203435596424,1.3754470348358154,0.8056860742254001
0,,sub_120,2024-07-25 15:12:07,3,distance,cathedral,numerosity_judgement,3,31,5,countries_reversed,"['_Yemen_reversed', '_Oman_reversed', '_Cuba_reversed', '_Tonga_reversed', '_Britain_reversed']","['f', 'm', 'm', 'm', 'f']","['p245', 'p318', 'p256', 'p307', 'p248']","[0, 5, 10, 9, 1]","[84.40078082039426, 90.34149293193902, 93.00003341222717, 92.00610777531934, 86.2038576498559]",3.0,False,7.0,4.527692569068709,1.249938726425171,0.7115537396436273
0,,sub_120,2024-07-25 15:12:10,3,distance,cathedral,numerosity_judgement,3,32,6,countries_reversed,"['_Congo_reversed', '_Tonga_reversed', '_Sudan_reversed', '_Oman_reversed', '_Japan_reversed', '_Mali_reversed']","['m', 'm', 'm', 'f', 'f', 'f']","['p318', 'p256', 'p229', 'p248', 'p268', 'p284']","[6, 7, 9, 1, 3, 5]","[91.58892582949886, 91.73820004985969, 92.00610777531934, 86.2038576498559, 89.14911522239515, 90.34149293193902]",4.0,False,7.166666666666667,2.857738033247041,1.5606613159179688,0.9465894904097152
0,,sub_120,2024-07-25 15:12:13,3,distance,cathedral,numerosity_judgement,3,33,3,countries_reversed,"['_Oman_reversed', '_Yemen_reversed', '_Britain_reversed']","['f', 'm', 'm']","['p245', 'p318', 'p307']","[4, 7, 3]","[89.31368318402099, 91.73820004985969, 89.14911522239515]",3.0,True,6.666666666666667,2.0816659994661326,1.312436580657959,0.7259221427760754
0,,sub_120,2024-07-25 15:12:15,3,distance,cathedral,numerosity_judgement,3,34,4,countries_reversed,"['_Mali_reversed', '_Sudan_reversed', '_Congo_reversed', '_Syria_reversed']","['m', 'f', 'm', 'f']","['p307', 'p284', 'p318', 'p268']","[1, 5, 2, 0]","[86.2038576498559, 90.34149293193902, 87.57049330475357, 84.40078082039426]",3.0,False,4.0,2.160246899469287,1.298842191696167,0.957564408126206
0,,sub_120,2024-07-25 15:12:18,3,distance,cathedral,numerosity_judgement,3,35,5,countries_reversed,"['_Tonga_reversed', '_Peru_reversed', '_Oman_reversed', '_Britain_reversed', '_Yemen_reversed']","['f', 'f', 'm', 'm', 'f']","['p268', 'p245', 'p307', 'p229', 'p248']","[4, 5, 7, 1, 3]","[89.31368318402099, 90.34149293193902, 91.73820004985969, 86.2038576498559, 89.14911522239515]",3.0,False,6.0,2.23606797749979,1.4999291896820068,0.697979797979798
0,,sub_120,2024-07-25 15:12:21,3,distance,cathedral,numerosity_judgement,3,36,3,countries_reversed,"['_Cuba_reversed', '_Tonga_reversed', '_Syria_reversed']","['f', 'm', 'm']","['p245', 'p229', 'p307']","[7, 8, 3]","[91.73820004985969, 92.0152836843556, 89.14911522239515]",3.0,True,8.0,2.6457513110645907,1.4995839595794678,0.701237090001135
0,,sub_120,2024-07-25 15:12:24,3,distance,cathedral,numerosity_judgement,3,37,2,countries_reversed,"['_Belgium_reversed', '_Tonga_reversed']","['f', 'm']","['p268', 'p256']","[3, 0]","[89.14911522239515, 84.40078082039426]",2.0,True,3.5,2.1213203435596424,1.8124420642852783,0.9467710816025424
0,,sub_120,2024-07-25 15:12:26,3,distance,cathedral,numerosity_judgement,3,38,4,countries_reversed,"['_Peru_reversed', '_Britain_reversed', '_Yemen_reversed', '_Congo_reversed']","['m', 'f', 'f', 'm']","['p307', 'p245', 'p268', 'p256']","[6, 0, 4, 3]","[91.58892582949886, 84.40078082039426, 89.31368318402099, 89.14911522239515]",3.0,False,5.25,2.5,1.2998254299163818,0.6504256043581886
0,,sub_120,2024-07-25 15:12:29,3,distance,cathedral,numerosity_judgement,3,39,6,countries_reversed,"['_Mali_reversed', '_Peru_reversed', '_Togo_reversed', '_Syria_reversed', '_Britain_reversed', '_Oman_reversed']","['m', 'f', 'm', 'f', 'm', 'f']","['p256', 'p245', 'p229', 'p268', 'p307', 'p248']","[3, 6, 4, 1, 7, 2]","[89.14911522239515, 91.58892582949886, 89.31368318402099, 86.2038576498559, 91.73820004985969, 87.57049330475357]",3.0,False,5.833333333333333,2.316606713852541,1.1874425411224365,0.7985359210078311
0,,sub_120,2024-07-25 15:12:32,3,distance,cathedral,numerosity_judgement,3,40,5,countries_reversed,"['_Togo_reversed', '_Tonga_reversed', '_Oman_reversed', '_Mali_reversed', '_Yemen_reversed']","['f', 'm', 'm', 'm', 'f']","['p245', 'p256', 'p307', 'p318', 'p248']","[10, 3, 6, 9, 5]","[93.00003341222717, 89.14911522239515, 91.58892582949886, 92.00610777531934, 90.34149293193902]",3.0,False,8.6,2.8809720581775866,1.7486562728881836,0.6536828963795256
0,,sub_120,2024-07-25 15:12:38,3,distance,cathedral,numerosity_judgement,3,41,3,countries_reversed,"['_Peru_reversed', '_Yemen_reversed', '_Tonga_reversed']","['f', 'f', 'f']","['p248', 'p268', 'p245']","[10, 2, 6]","[93.00003341222717, 87.57049330475357, 91.58892582949886]",3.0,True,8.0,4.0,4.813445329666138,0.6479173760072636
0,,sub_120,2024-07-25 15:12:41,3,distance,cathedral,numerosity_judgement,3,42,6,countries_reversed,"['_Belgium_reversed', '_Oman_reversed', '_Congo_reversed', '_Cuba_reversed', '_Tonga_reversed', '_Sudan_reversed']","['m', 'f', 'f', 'm', 'f', 'm']","['p307', 'p284', 'p245', 'p318', 'p268', 'p256']","[3, 2, 1, 5, 6, 10]","[89.14911522239515, 87.57049330475357, 86.2038576498559, 90.34149293193902, 91.58892582949886, 93.00003341222717]",3.0,False,6.5,3.271085446759225,1.4372961521148682,0.8062762456020883
0,,sub_120,2024-07-25 15:12:43,3,distance,cathedral,numerosity_judgement,3,43,2,countries_reversed,"['_Peru_reversed', '_Cuba_reversed']","['f', 'f']","['p284', 'p245']","[7, 10]","[91.73820004985969, 93.00003341222717]",3.0,False,10.5,2.1213203435596424,1.6874198913574219,0.7724889342866871
0,,sub_120,2024-07-25 15:12:46,3,distance,cathedral,numerosity_judgement,3,44,4,countries_reversed,"['_Togo_reversed', '_Syria_reversed', '_Mali_reversed', '_Yemen_reversed']","['m', 'f', 'm', 'f']","['p256', 'p284', 'p229', 'p248']","[10, 2, 1, 9]","[93.00003341222717, 87.57049330475357, 86.2038576498559, 92.00610777531934]",3.0,False,7.5,4.654746681256314,1.1117985248565674,0.8904097151288163
0,,sub_120,2024-07-25 15:12:49,3,distance,cathedral,numerosity_judgement,3,45,3,countries_reversed,"['_Oman_reversed', '_Peru_reversed', '_Tonga_reversed']","['f', 'm', 'm']","['p284', 'p307', 'p256']","[8, 6, 5]","[92.0152836843556, 91.58892582949886, 90.34149293193902]",3.0,True,8.333333333333334,1.5275252316519468,1.4374308586120605,0.6790262172284645
0,,sub_120,2024-07-25 15:12:51,3,distance,cathedral,numerosity_judgement,3,46,4,countries_reversed,"['_Cuba_reversed', '_Sudan_reversed', '_Belgium_reversed', '_Oman_reversed']","['f', 'f', 'm', 'f']","['p268', 'p284', 'p307', 'p248']","[8, 10, 9, 5]","[92.0152836843556, 93.00003341222717, 92.00610777531934, 90.34149293193902]",3.0,False,10.0,2.160246899469287,1.2490980625152588,0.8037566678016116
0,,sub_120,2024-07-25 15:12:54,3,distance,cathedral,numerosity_judgement,3,47,6,countries_reversed,"['_Belgium_reversed', '_Cuba_reversed', '_Mali_reversed', '_Britain_reversed', '_Yemen_reversed', '_Congo_reversed']","['f', 'f', 'm', 'm', 'f', 'm']","['p284', 'p248', 'p256', 'p229', 'p245', 'p318']","[9, 4, 5, 3, 2, 8]","[92.00610777531934, 89.31368318402099, 90.34149293193902, 89.14911522239515, 87.57049330475357, 92.0152836843556]",4.0,False,7.166666666666667,2.786873995477131,1.4374313354492188,0.8288503007604131
0,,sub_120,2024-07-25 15:12:56,3,distance,cathedral,numerosity_judgement,3,48,5,countries_reversed,"['_Belgium_reversed', '_Tonga_reversed', '_Syria_reversed', '_Oman_reversed', '_Yemen_reversed']","['m', 'm', 'f', 'f', 'f']","['p318', 'p307', 'p245', 'p248', 'p284']","[1, 9, 3, 8, 2]","[86.2038576498559, 92.00610777531934, 89.14911522239515, 92.0152836843556, 87.57049330475357]",4.0,False,6.6,3.6469165057620936,1.1900911331176758,0.9209283849733289
0,,sub_120,2024-07-25 15:13:00,3,distance,cathedral,numerosity_judgement,3,49,2,countries_reversed,"['_Cuba_reversed', '_Syria_reversed']","['m', 'm']","['p229', 'p318']","[3, 10]","[89.14911522239515, 93.00003341222717]",3.0,False,8.5,4.949747468305833,2.4349238872528076,0.730461922596754
0,,sub_120,2024-07-25 15:13:05,3,distance,cathedral,numerosity_judgement,3,50,6,countries_reversed,"['_Yemen_reversed', '_Oman_reversed', '_Britain_reversed', '_Togo_reversed', '_Cuba_reversed', '_Japan_reversed']","['m', 'f', 'm', 'f', 'f', 'm']","['p318', 'p248', 'p307', 'p284', 'p245', 'p256']","[1, 7, 6, 9, 0, 4]","[86.2038576498559, 91.73820004985969, 91.58892582949886, 92.00610777531934, 84.40078082039426, 89.31368318402099]",4.0,False,6.5,3.5071355833500366,3.5612075328826904,0.747940074906367
0,,sub_120,2024-07-25 15:13:08,3,distance,cathedral,numerosity_judgement,3,51,3,countries_reversed,"['_Oman_reversed', '_Sudan_reversed', '_Congo_reversed']","['f', 'f', 'm']","['p245', 'p284', 'p318']","[0, 9, 7]","[84.40078082039426, 92.00610777531934, 91.73820004985969]",3.0,True,7.333333333333333,4.725815626252608,1.6874194145202637,0.9325275224151628
0,,sub_120,2024-07-25 15:13:11,3,distance,cathedral,numerosity_judgement,3,52,2,countries_reversed,"['_Oman_reversed', '_Yemen_reversed']","['f', 'f']","['p284', 'p245']","[2, 7]","[87.57049330475357, 91.73820004985969]",2.0,True,6.5,3.5355339059327378,2.1874356269836426,0.6570423334468278
0,,sub_120,2024-07-25 15:13:14,3,distance,cathedral,numerosity_judgement,3,53,4,countries_reversed,"['_Yemen_reversed', '_Togo_reversed', '_Sudan_reversed', '_Cuba_reversed']","['f', 'f', 'm', 'm']","['p248', 'p268', 'p229', 'p318']","[4, 9, 1, 6]","[89.31368318402099, 92.00610777531934, 86.2038576498559, 91.58892582949886]",3.0,False,7.0,3.366501646120693,1.3124370574951172,0.8288729996595166
0,,sub_120,2024-07-25 15:13:16,3,distance,cathedral,numerosity_judgement,3,54,5,countries_reversed,"['_Cuba_reversed', '_Syria_reversed', '_Tonga_reversed', '_Yemen_reversed', '_Mali_reversed']","['m', 'f', 'm', 'f', 'm']","['p307', 'p284', 'p318', 'p268', 'p256']","[4, 0, 6, 2, 10]","[89.31368318402099, 84.40078082039426, 91.58892582949886, 87.57049330475357, 93.00003341222717]",3.0,False,6.4,3.847076812334269,1.2491796016693115,0.7862444671433435
0,,sub_120,2024-07-25 15:13:19,3,distance,cathedral,numerosity_judgement,3,55,3,countries_reversed,"['_Peru_reversed', '_Yemen_reversed', '_Oman_reversed']","['m', 'f', 'm']","['p229', 'p248', 'p318']","[7, 6, 9]","[91.73820004985969, 91.58892582949886, 92.00610777531934]",3.0,True,9.333333333333334,1.5275252316519468,1.3124361038208008,0.8061967994552264
0,,sub_120,2024-07-25 15:13:21,3,distance,cathedral,numerosity_judgement,3,56,5,countries_reversed,"['_Tonga_reversed', '_Mali_reversed', '_Britain_reversed', '_Yemen_reversed', '_Belgium_reversed']","['m', 'm', 'm', 'f', 'm']","['p229', 'p318', 'p256', 'p284', 'p307']","[5, 2, 1, 6, 10]","[90.34149293193902, 87.57049330475357, 86.2038576498559, 91.58892582949886, 93.00003341222717]",3.0,False,6.8,3.5637059362410923,1.0644268989562988,0.8856088979684485
0,,sub_120,2024-07-25 15:13:24,3,distance,cathedral,numerosity_judgement,3,57,6,countries_reversed,"['_Belgium_reversed', '_Peru_reversed', '_Yemen_reversed', '_Cuba_reversed', '_Congo_reversed', '_Mali_reversed']","['m', 'f', 'f', 'm', 'm', 'f']","['p307', 'p248', 'p268', 'p318', 'p256', 'p245']","[8, 6, 2, 3, 10, 5]","[92.0152836843556, 91.58892582949886, 87.57049330475357, 89.14911522239515, 93.00003341222717, 90.34149293193902]",3.0,False,7.666666666666667,3.011090610836324,1.124946117401123,0.7253206219498355
0,,sub_120,2024-07-25 15:13:27,3,distance,cathedral,numerosity_judgement,3,58,4,countries_reversed,"['_Japan_reversed', '_Togo_reversed', '_Cuba_reversed', '_Yemen_reversed']","['m', 'm', 'f', 'm']","['p256', 'p307', 'p268', 'p318']","[7, 6, 5, 8]","[91.73820004985969, 91.58892582949886, 90.34149293193902, 92.0152836843556]",4.0,True,8.5,1.2909944487358056,1.5605189800262451,0.7112700034048348
0,,sub_120,2024-07-25 15:13:30,3,distance,cathedral,numerosity_judgement,3,59,2,countries_reversed,"['_Japan_reversed', '_Tonga_reversed']","['m', 'm']","['p307', 'p256']","[10, 7]","[93.00003341222717, 91.73820004985969]",3.0,False,10.5,2.1213203435596424,2.373248815536499,0.8476790375666781
0,,sub_120,2024-07-25 15:13:34,3,distance,cathedral,numerosity_judgement,3,60,4,countries_reversed,"['_Belgium_reversed', '_Oman_reversed', '_Peru_reversed', '_Japan_reversed']","['m', 'f', 'm', 'f']","['p229', 'p268', 'p307', 'p284']","[1, 8, 3, 9]","[86.2038576498559, 92.0152836843556, 89.14911522239515, 92.00610777531934]",3.0,False,7.25,3.8622100754188224,2.6248741149902344,0.8643059811599137
0,,sub_120,2024-07-25 15:13:38,3,distance,cathedral,numerosity_judgement,3,61,6,countries_reversed,"['_Mali_reversed', '_Yemen_reversed', '_Peru_reversed', '_Togo_reversed', '_Tonga_reversed', '_Japan_reversed']","['m', 'f', 'm', 'm', 'f', 'm']","['p256', 'p245', 'p229', 'p307', 'p268', 'p318']","[1, 9, 2, 4, 8, 3]","[86.2038576498559, 92.00610777531934, 87.57049330475357, 89.31368318402099, 92.0152836843556, 89.14911522239515]",3.0,False,6.5,3.271085446759225,3.1248490810394287,0.9078992168879808
0,,sub_120,2024-07-25 15:13:43,3,distance,cathedral,numerosity_judgement,3,62,2,countries_reversed,"['_Oman_reversed', '_Britain_reversed']","['m', 'f']","['p307', 'p248']","[5, 6]","[90.34149293193902, 91.58892582949886]",2.0,True,7.5,0.7071067811865476,2.862093210220337,0.6258313471796618
0,,sub_120,2024-07-25 15:13:48,3,distance,cathedral,numerosity_judgement,3,63,5,countries_reversed,"['_Sudan_reversed', '_Oman_reversed', '_Peru_reversed', '_Congo_reversed', '_Tonga_reversed']","['f', 'm', 'f', 'm', 'm']","['p284', 'p307', 'p245', 'p318', 'p256']","[6, 2, 8, 9, 0]","[91.58892582949886, 87.57049330475357, 92.0152836843556, 92.00610777531934, 84.40078082039426]",3.0,False,7.0,3.872983346207417,4.000942230224609,0.9613210759278176
0,,sub_120,2024-07-25 15:13:50,3,distance,cathedral,numerosity_judgement,3,64,3,countries_reversed,"['_Sudan_reversed', '_Peru_reversed', '_Mali_reversed']","['m', 'f', 'm']","['p318', 'p245', 'p229']","[1, 8, 3]","[86.2038576498559, 92.0152836843556, 89.14911522239515]",2.0,False,6.0,3.605551275463989,1.3749439716339111,0.8657019634547725
0,,sub_120,2024-07-25 15:13:53,3,distance,cathedral,numerosity_judgement,3,65,6,countries_reversed,"['_Yemen_reversed', '_Congo_reversed', '_Oman_reversed', '_Tonga_reversed', '_Peru_reversed', '_Togo_reversed']","['f', 'f', 'm', 'm', 'f', 'm']","['p268', 'p248', 'p256', 'p318', 'p245', 'p307']","[10, 2, 4, 3, 5, 7]","[93.00003341222717, 87.57049330475357, 89.31368318402099, 89.14911522239515, 90.34149293193902, 91.73820004985969]",3.0,False,7.166666666666667,2.9268868558020253,1.3124403953552246,0.6845647486096924
0,,sub_120,2024-07-25 15:13:56,3,distance,cathedral,numerosity_judgement,3,66,4,countries_reversed,"['_Britain_reversed', '_Mali_reversed', '_Syria_reversed', '_Cuba_reversed']","['f', 'm', 'f', 'm']","['p268', 'p307', 'p245', 'p256']","[3, 8, 4, 10]","[89.14911522239515, 92.0152836843556, 89.31368318402099, 93.00003341222717]",3.0,False,8.25,3.304037933599835,1.9382855892181396,0.7493360572012258
0,,sub_120,2024-07-25 15:13:59,3,distance,cathedral,numerosity_judgement,3,67,5,countries_reversed,"['_Tonga_reversed', '_Cuba_reversed', '_Sudan_reversed', '_Britain_reversed', '_Yemen_reversed']","['m', 'm', 'm', 'f', 'f']","['p229', 'p256', 'p307', 'p248', 'p284']","[4, 10, 0, 5, 7]","[89.31368318402099, 93.00003341222717, 84.40078082039426, 90.34149293193902, 91.73820004985969]",3.0,False,7.2,3.7013511046643495,1.5624244213104248,0.7519350811485643
0,,sub_120,2024-07-25 15:14:03,3,distance,cathedral,numerosity_judgement,3,68,3,countries_reversed,"['_Mali_reversed', '_Yemen_reversed', '_Togo_reversed']","['f', 'f', 'm']","['p248', 'p268', 'p229']","[4, 2, 1]","[89.31368318402099, 87.57049330475357, 86.2038576498559]",3.0,True,4.333333333333333,1.5275252316519465,2.18851900100708,0.9075019861536716
0,,sub_120,2024-07-25 15:14:06,3,distance,cathedral,numerosity_judgement,3,69,2,countries_reversed,"['_Britain_reversed', '_Oman_reversed']","['f', 'm']","['p284', 'p256']","[9, 0]","[92.00610777531934, 84.40078082039426]",3.0,False,6.5,6.363961030678928,2.326056718826294,0.8946657587107025
0,,sub_120,2024-07-25 15:14:09,3,distance,cathedral,numerosity_judgement,3,70,4,countries_reversed,"['_Oman_reversed', '_Yemen_reversed', '_Britain_reversed', '_Mali_reversed']","['m', 'm', 'm', 'm']","['p229', 'p318', 'p307', 'p256']","[5, 7, 9, 6]","[90.34149293193902, 91.73820004985969, 92.00610777531934, 91.58892582949886]",3.0,False,8.75,1.707825127659933,1.8749096393585205,0.6135966405629327
0,,sub_120,2024-07-25 15:14:12,3,distance,cathedral,numerosity_judgement,3,71,5,countries_reversed,"['_Togo_reversed', '_Tonga_reversed', '_Syria_reversed', '_Yemen_reversed', '_Peru_reversed']","['m', 'f', 'm', 'm', 'f']","['p307', 'p245', 'p256', 'p318', 'p284']","[5, 3, 8, 2, 7]","[90.34149293193902, 89.14911522239515, 92.0152836843556, 87.57049330475357, 91.73820004985969]",3.0,False,7.0,2.5495097567963922,1.124946117401123,0.675485188968335
0,,sub_120,2024-07-25 15:14:14,3,distance,cathedral,numerosity_judgement,3,72,3,countries_reversed,"['_Syria_reversed', '_Tonga_reversed', '_Cuba_reversed']","['f', 'm', 'f']","['p248', 'p307', 'p245']","[0, 7, 1]","[84.40078082039426, 91.73820004985969, 86.2038576498559]",3.0,True,4.666666666666667,3.7859388972001824,1.1874432563781738,0.870695721257519
0,,sub_120,2024-07-25 15:14:16,3,distance,cathedral,numerosity_judgement,3,73,2,countries_reversed,"['_Mali_reversed', '_Belgium_reversed']","['f', 'm']","['p268', 'p318']","[8, 2]","[92.0152836843556, 87.57049330475357]",3.0,False,7.0,4.242640687119285,1.246239423751831,0.9047667688117126
0,,sub_120,2024-07-25 15:14:21,3,distance,cathedral,numerosity_judgement,3,74,6,countries_reversed,"['_Syria_reversed', '_Yemen_reversed', '_Oman_reversed', '_Peru_reversed', '_Sudan_reversed', '_Cuba_reversed']","['m', 'f', 'm', 'f', 'f', 'm']","['p256', 'p248', 'p307', 'p268', 'p284', 'p318']","[2, 3, 5, 6, 0, 10]","[87.57049330475357, 89.14911522239515, 90.34149293193902, 91.58892582949886, 84.40078082039426, 93.00003341222717]",3.0,False,6.333333333333333,3.5023801430836525,3.3759326934814453,0.6612870275791624
0,,sub_120,2024-07-25 15:15:35,3,distance,cathedral,numerosity_judgement,4,0,3,countries_reversed,"['_Tonga_reversed', '_Cuba_reversed', '_Britain_reversed']","['m', 'f', 'm']","['p229', 'p245', 'p307']","[2, 6, 5]","[87.57049330475357, 91.58892582949886, 90.34149293193902]",3.0,True,6.333333333333333,2.0816659994661326,1.6272683143615723,0.7705708773124503
0,,sub_120,2024-07-25 15:15:38,3,distance,cathedral,numerosity_judgement,4,1,4,countries_reversed,"['_Tonga_reversed', '_Congo_reversed', '_Belgium_reversed', '_Britain_reversed']","['m', 'f', 'f', 'm']","['p307', 'p284', 'p268', 'p256']","[5, 0, 8, 6]","[90.34149293193902, 84.40078082039426, 92.0152836843556, 91.58892582949886]",4.0,True,6.75,3.4034296427770228,1.624974012374878,0.8940528884349109
0,,sub_120,2024-07-25 15:15:40,3,distance,cathedral,numerosity_judgement,4,2,6,countries_reversed,"['_Oman_reversed', '_Cuba_reversed', '_Yemen_reversed', '_Mali_reversed', '_Syria_reversed', '_Tonga_reversed']","['f', 'f', 'f', 'm', 'm', 'm']","['p245', 'p268', 'p248', 'p229', 'p318', 'p307']","[4, 8, 10, 3, 5, 0]","[89.31368318402099, 92.0152836843556, 93.00003341222717, 89.14911522239515, 90.34149293193902, 84.40078082039426]",3.0,False,7.0,3.5777087639996634,1.4402005672454834,0.8053455907388491
0,,sub_120,2024-07-25 15:15:43,3,distance,cathedral,numerosity_judgement,4,3,5,countries_reversed,"['_Mali_reversed', '_Japan_reversed', '_Belgium_reversed', '_Congo_reversed', '_Cuba_reversed']","['m', 'f', 'm', 'm', 'f']","['p229', 'p284', 'p256', 'p307', 'p245']","[4, 10, 3, 5, 8]","[89.31368318402099, 93.00003341222717, 89.14911522239515, 90.34149293193902, 92.0152836843556]",4.0,False,8.0,2.9154759474226504,1.124946117401123,0.8179207808421292
0,,sub_120,2024-07-25 15:15:45,3,distance,cathedral,numerosity_judgement,4,4,2,countries_reversed,"['_Peru_reversed', '_Cuba_reversed']","['m', 'f']","['p229', 'p248']","[1, 10]","[86.2038576498559, 93.00003341222717]",3.0,False,7.5,6.363961030678928,1.376152753829956,0.7465554420610601
0,,sub_120,2024-07-25 15:15:49,3,distance,cathedral,numerosity_judgement,4,5,4,countries_reversed,"['_Britain_reversed', '_Peru_reversed', '_Oman_reversed', '_Syria_reversed']","['m', 'f', 'm', 'm']","['p318', 'p245', 'p229', 'p256']","[6, 9, 7, 5]","[91.58892582949886, 92.00610777531934, 91.73820004985969, 90.34149293193902]",4.0,True,8.75,1.707825127659933,1.7498548030853271,0.6560549313358303
0,,sub_120,2024-07-25 15:15:51,3,distance,cathedral,numerosity_judgement,4,6,2,countries_reversed,"['_Oman_reversed', '_Yemen_reversed']","['m', 'm']","['p229', 'p256']","[8, 3]","[92.0152836843556, 89.14911522239515]",3.0,False,7.5,3.5355339059327378,1.4997048377990723,0.6116445352400408
0,,sub_120,2024-07-25 15:15:54,3,distance,cathedral,numerosity_judgement,4,7,6,countries_reversed,"['_Congo_reversed', '_Syria_reversed', '_Togo_reversed', '_Cuba_reversed', '_Tonga_reversed', '_Peru_reversed']","['m', 'f', 'f', 'm', 'm', 'f']","['p318', 'p248', 'p268', 'p229', 'p256', 'p284']","[2, 3, 1, 6, 4, 9]","[87.57049330475357, 89.14911522239515, 86.2038576498559, 91.58892582949886, 89.31368318402099, 92.00610777531934]",3.0,False,6.166666666666667,2.9268868558020253,1.437488317489624,0.8998638066053797
0,,sub_120,2024-07-25 15:15:57,3,distance,cathedral,numerosity_judgement,4,8,5,countries_reversed,"['_Oman_reversed', '_Yemen_reversed', '_Japan_reversed', '_Sudan_reversed', '_Belgium_reversed']","['f', 'f', 'f', 'm', 'm']","['p284', 'p268', 'p245', 'p229', 'p307']","[9, 1, 8, 6, 3]","[92.00610777531934, 86.2038576498559, 92.0152836843556, 91.58892582949886, 89.14911522239515]",4.0,False,7.4,3.361547262794322,1.2543210983276367,0.906730223584156
0,,sub_120,2024-07-25 15:16:00,3,distance,cathedral,numerosity_judgement,4,9,3,countries_reversed,"['_Cuba_reversed', '_Oman_reversed', '_Britain_reversed']","['f', 'm', 'm']","['p245', 'p256', 'p307']","[9, 5, 10]","[92.00610777531934, 90.34149293193902, 93.00003341222717]",4.0,False,10.0,2.6457513110645907,2.5637242794036865,0.6796617864033594
0,,sub_120,2024-07-25 15:16:03,3,distance,cathedral,numerosity_judgement,4,10,2,countries_reversed,"['_Oman_reversed', '_Belgium_reversed']","['f', 'm']","['p284', 'p307']","[7, 5]","[91.73820004985969, 90.34149293193902]",3.0,False,8.0,1.4142135623730951,1.2499401569366455,0.8753489955737147
0,,sub_120,2024-07-25 15:16:05,3,distance,cathedral,numerosity_judgement,4,11,4,countries_reversed,"['_Britain_reversed', '_Belgium_reversed', '_Peru_reversed', '_Japan_reversed']","['f', 'm', 'f', 'm']","['p245', 'p307', 'p284', 'p256']","[7, 0, 5, 6]","[91.73820004985969, 84.40078082039426, 90.34149293193902, 91.58892582949886]",3.0,False,6.5,3.1091263510296048,1.2459967136383057,0.9067642719328112
0,,sub_120,2024-07-25 15:16:08,3,distance,cathedral,numerosity_judgement,4,12,6,countries_reversed,"['_Cuba_reversed', '_Japan_reversed', '_Peru_reversed', '_Congo_reversed', '_Oman_reversed', '_Britain_reversed']","['f', 'f', 'm', 'm', 'm', 'f']","['p268', 'p284', 'p256', 'p229', 'p318', 'p248']","[7, 8, 9, 6, 4, 2]","[91.73820004985969, 92.0152836843556, 92.00610777531934, 91.58892582949886, 89.31368318402099, 87.57049330475357]",3.0,False,8.0,2.6076809620810595,1.2499158382415771,0.865531721711497
0,,sub_120,2024-07-25 15:16:12,3,distance,cathedral,numerosity_judgement,4,13,5,countries_reversed,"['_Oman_reversed', '_Congo_reversed', '_Yemen_reversed', '_Mali_reversed', '_Togo_reversed']","['m', 'f', 'f', 'm', 'm']","['p307', 'p248', 'p245', 'p256', 'p229']","[4, 7, 6, 2, 8]","[89.31368318402099, 91.73820004985969, 91.58892582949886, 87.57049330475357, 92.0152836843556]",3.0,False,7.4,2.4083189157584592,2.749819040298462,0.7072749971626376
0,,sub_120,2024-07-25 15:16:18,3,distance,cathedral,numerosity_judgement,4,14,3,countries_reversed,"['_Japan_reversed', '_Sudan_reversed', '_Togo_reversed']","['m', 'm', 'm']","['p256', 'p318', 'p229']","[1, 5, 0]","[86.2038576498559, 90.34149293193902, 84.40078082039426]",3.0,True,4.0,2.6457513110645907,4.875741958618164,0.928407672227897
0,,sub_120,2024-07-25 15:16:22,3,distance,cathedral,numerosity_judgement,4,15,6,countries_reversed,"['_Tonga_reversed', '_Britain_reversed', '_Yemen_reversed', '_Syria_reversed', '_Oman_reversed', '_Cuba_reversed']","['f', 'm', 'f', 'm', 'f', 'f']","['p248', 'p307', 'p284', 'p256', 'p245', 'p268']","[2, 6, 7, 8, 10, 3]","[87.57049330475357, 91.58892582949886, 91.73820004985969, 92.0152836843556, 93.00003341222717, 89.14911522239515]",4.0,False,8.0,3.03315017762062,2.5623538494110107,0.7033934854159574
0,,sub_120,2024-07-25 15:16:24,3,distance,cathedral,numerosity_judgement,4,16,4,countries_reversed,"['_Tonga_reversed', '_Mali_reversed', '_Japan_reversed', '_Yemen_reversed']","['m', 'f', 'm', 'f']","['p256', 'p245', 'p229', 'p248']","[8, 5, 10, 2]","[92.0152836843556, 90.34149293193902, 93.00003341222717, 87.57049330475357]",3.0,False,8.25,3.5,1.2499396800994873,0.8461128135285438
0,,sub_120,2024-07-25 15:16:27,3,distance,cathedral,numerosity_judgement,4,17,2,countries_reversed,"['_Congo_reversed', '_Togo_reversed']","['f', 'm']","['p248', 'p318']","[2, 5]","[87.57049330475357, 90.34149293193902]",2.0,True,5.5,2.1213203435596424,1.3124375343322754,0.8448984224265124
0,,sub_120,2024-07-25 15:16:30,3,distance,cathedral,numerosity_judgement,4,18,5,countries_reversed,"['_Japan_reversed', '_Sudan_reversed', '_Congo_reversed', '_Mali_reversed', '_Britain_reversed']","['f', 'm', 'f', 'f', 'm']","['p245', 'p307', 'p268', 'p248', 'p256']","[0, 9, 5, 6, 3]","[84.40078082039426, 92.00610777531934, 90.34149293193902, 91.58892582949886, 89.14911522239515]",3.0,False,6.6,3.361547262794322,1.9394543170928955,0.9275905118601748
0,,sub_120,2024-07-25 15:16:34,3,distance,cathedral,numerosity_judgement,4,19,3,countries_reversed,"['_Britain_reversed', '_Tonga_reversed', '_Yemen_reversed']","['m', 'f', 'm']","['p256', 'p268', 'p318']","[2, 8, 5]","[87.57049330475357, 92.0152836843556, 90.34149293193902]",3.0,True,7.0,3.0,2.937359571456909,0.8023152877085461
0,,sub_120,2024-07-25 15:16:41,3,distance,cathedral,numerosity_judgement,4,20,6,countries_reversed,"['_Mali_reversed', '_Cuba_reversed', '_Britain_reversed', '_Tonga_reversed', '_Belgium_reversed', '_Yemen_reversed']","['f', 'm', 'f', 'm', 'm', 'f']","['p248', 'p256', 'p245', 'p307', 'p229', 'p268']","[10, 7, 8, 1, 5, 9]","[93.00003341222717, 91.73820004985969, 92.0152836843556, 86.2038576498559, 90.34149293193902, 92.00610777531934]",3.0,False,8.666666666666666,3.265986323710904,4.937102556228638,0.770060152082624
0,,sub_120,2024-07-25 15:16:45,3,distance,cathedral,numerosity_judgement,4,21,3,countries_reversed,"['_Sudan_reversed', '_Cuba_reversed', '_Britain_reversed']","['f', 'm', 'm']","['p284', 'p318', 'p256']","[6, 1, 3]","[91.58892582949886, 86.2038576498559, 89.14911522239515]",3.0,True,5.333333333333333,2.516611478423583,3.1858575344085693,0.9497559868346384
0,,sub_120,2024-07-25 15:16:48,3,distance,cathedral,numerosity_judgement,4,22,2,countries_reversed,"['_Yemen_reversed', '_Congo_reversed']","['m', 'm']","['p256', 'p318']","[1, 2]","[86.2038576498559, 87.57049330475357]",2.0,True,3.5,0.7071067811865476,1.4374303817749023,0.9158778799228238
0,,sub_120,2024-07-25 15:16:50,3,distance,cathedral,numerosity_judgement,4,23,4,countries_reversed,"['_Oman_reversed', '_Yemen_reversed', '_Britain_reversed', '_Mali_reversed']","['m', 'm', 'm', 'm']","['p229', 'p318', 'p307', 'p256']","[5, 7, 9, 6]","[90.34149293193902, 91.73820004985969, 92.00610777531934, 91.58892582949886]",3.0,False,8.75,1.707825127659933,1.3759758472442627,0.6135966405629327
0,,sub_120,2024-07-25 15:16:55,3,distance,cathedral,numerosity_judgement,4,24,5,countries_reversed,"['_Congo_reversed', '_Mali_reversed', '_Japan_reversed', '_Britain_reversed', '_Sudan_reversed']","['f', 'f', 'f', 'm', 'm']","['p245', 'p284', 'p248', 'p318', 'p307']","[10, 1, 8, 9, 4]","[93.00003341222717, 86.2038576498559, 92.0152836843556, 92.00610777531934, 89.31368318402099]",4.0,False,8.4,3.7815340802378072,3.6843438148498535,0.9323686301214392
0,,sub_120,2024-07-25 15:16:58,3,distance,cathedral,numerosity_judgement,4,25,3,countries_reversed,"['_Yemen_reversed', '_Cuba_reversed', '_Oman_reversed']","['f', 'f', 'm']","['p268', 'p245', 'p256']","[8, 5, 9]","[92.0152836843556, 90.34149293193902, 92.00610777531934]",3.0,True,9.333333333333334,2.0816659994661326,1.6874191761016846,0.6368630121439111
0,,sub_120,2024-07-25 15:17:02,3,distance,cathedral,numerosity_judgement,4,26,5,countries_reversed,"['_Belgium_reversed', '_Britain_reversed', '_Oman_reversed', '_Cuba_reversed', '_Congo_reversed']","['m', 'f', 'f', 'm', 'f']","['p229', 'p284', 'p268', 'p307', 'p248']","[7, 1, 4, 8, 10]","[91.73820004985969, 86.2038576498559, 89.31368318402099, 92.0152836843556, 93.00003341222717]",3.0,False,8.0,3.5355339059327378,1.9367899894714355,0.7921915787084326
0,,sub_120,2024-07-25 15:17:04,3,distance,cathedral,numerosity_judgement,4,27,6,countries_reversed,"['_Oman_reversed', '_Cuba_reversed', '_Britain_reversed', '_Yemen_reversed', '_Belgium_reversed', '_Syria_reversed']","['m', 'f', 'm', 'f', 'f', 'm']","['p307', 'p248', 'p229', 'p268', 'p245', 'p256']","[5, 6, 9, 3, 10, 4]","[90.34149293193902, 91.58892582949886, 92.00610777531934, 89.14911522239515, 93.00003341222717, 89.31368318402099]",3.0,False,8.166666666666666,2.786873995477131,1.499927043914795,0.7241856769946657
0,,sub_120,2024-07-25 15:17:08,3,distance,cathedral,numerosity_judgement,4,28,4,countries_reversed,"['_Yemen_reversed', '_Togo_reversed', '_Syria_reversed', '_Sudan_reversed']","['f', 'm', 'm', 'm']","['p248', 'p307', 'p256', 'p318']","[7, 1, 4, 5]","[91.73820004985969, 86.2038576498559, 89.31368318402099, 90.34149293193902]",3.0,False,6.25,2.5,2.7498679161071777,0.7488707297696062
0,,sub_120,2024-07-25 15:17:13,3,distance,cathedral,numerosity_judgement,4,29,2,countries_reversed,"['_Sudan_reversed', '_Tonga_reversed']","['m', 'f']","['p256', 'p248']","[10, 4]","[93.00003341222717, 89.31368318402099]",3.0,False,9.0,4.242640687119285,3.686997652053833,0.7037566678016116
0,,sub_120,2024-07-25 15:17:17,3,distance,cathedral,numerosity_judgement,4,30,3,countries_reversed,"['_Syria_reversed', '_Congo_reversed', '_Peru_reversed']","['f', 'f', 'f']","['p284', 'p248', 'p268']","[1, 4, 6]","[86.2038576498559, 89.31368318402099, 91.58892582949886]",2.0,False,5.666666666666667,2.516611478423583,2.000913619995117,0.8507320394960844
0,,sub_120,2024-07-25 15:17:21,3,distance,cathedral,numerosity_judgement,4,31,2,countries_reversed,"['_Tonga_reversed', '_Yemen_reversed']","['m', 'f']","['p307', 'p248']","[3, 8]","[89.14911522239515, 92.0152836843556]",3.0,False,7.5,3.5355339059327378,2.7546579837799072,0.5877085461355124
0,,sub_120,2024-07-25 15:17:26,3,distance,cathedral,numerosity_judgement,4,32,5,countries_reversed,"['_Peru_reversed', '_Tonga_reversed', '_Oman_reversed', '_Cuba_reversed', '_Britain_reversed']","['f', 'm', 'm', 'f', 'm']","['p268', 'p229', 'p256', 'p245', 'p318']","[7, 8, 2, 5, 9]","[91.73820004985969, 92.0152836843556, 87.57049330475357, 90.34149293193902, 92.00610777531934]",3.0,False,8.2,2.7748873851023217,4.127346038818359,0.7458177278401997
0,,sub_120,2024-07-25 15:17:29,3,distance,cathedral,numerosity_judgement,4,33,6,countries_reversed,"['_Syria_reversed', '_Yemen_reversed', '_Oman_reversed', '_Peru_reversed', '_Sudan_reversed', '_Cuba_reversed']","['m', 'f', 'm', 'f', 'f', 'm']","['p256', 'p248', 'p307', 'p268', 'p284', 'p318']","[2, 3, 5, 6, 0, 10]","[87.57049330475357, 89.14911522239515, 90.34149293193902, 91.58892582949886, 84.40078082039426, 93.00003341222717]",4.0,False,6.333333333333333,3.5023801430836525,1.374934196472168,0.6612870275791624
0,,sub_120,2024-07-25 15:17:33,3,distance,cathedral,numerosity_judgement,4,34,4,countries_reversed,"['_Syria_reversed', '_Belgium_reversed', '_Japan_reversed', '_Cuba_reversed']","['f', 'f', 'm', 'f']","['p268', 'p284', 'p229', 'p248']","[5, 9, 1, 3]","[90.34149293193902, 92.00610777531934, 86.2038576498559, 89.14911522239515]",3.0,False,6.5,3.415650255319866,2.750624895095825,0.9252525252525252
