,event_id,timestamp,subject_id,session_index,plane,setup,task,block,trial_index,stim_type,headpose_offset_azi,headpose_offset_ele,stim_filename,stim_level,mgb_level,fluctuation,speaker_id,speaker_proc,speaker_chan,stim_azi,stim_ele,stim_dist,resp_azi,resp_ele,resp_dist,reaction_time
0,,2024-06-27 15:05:38,sub_104,3,distance,cathedral,localisation_accuracy,1,0,pinknoise,,,pinknoise_4.wav,84.43156957437668,30,0.04580342693547612,0,RX81,1,0.0,0.0,2.0,0,0,2.67741935483871,50.87213206291199
0,,2024-06-27 15:05:47,sub_104,3,distance,cathedral,localisation_accuracy,1,1,pinknoise,,,pinknoise_9.wav,87.4958288342505,30,-0.10790940696732843,2,RX81,3,0.0,0.0,4.0,0,0,8.439882697947215,7.171332120895386
0,,2024-06-27 15:05:53,sub_104,3,distance,cathedral,localisation_accuracy,1,2,pinknoise,,,pinknoise_5.wav,89.46246467687202,30,0.1993252542349665,4,RX81,5,0.0,0.0,6.0,0,0,10.565982404692082,4.546588897705078
0,,2024-06-27 15:05:59,sub_104,3,distance,cathedral,localisation_accuracy,1,3,pinknoise,,,pinknoise_2.wav,91.72655659104676,30,-0.016081079842587997,7,RX81,8,0.0,0.0,9.0,0,0,11.343108504398828,4.968373537063599
0,,2024-06-27 15:06:05,sub_104,3,distance,cathedral,localisation_accuracy,1,4,pinknoise,,,pinknoise_7.wav,91.85914744107608,30,-0.21973969057746645,8,RX81,9,0.0,0.0,10.0,0,0,11.900293255131965,5.2183592319488525
0,,2024-06-27 15:06:11,sub_104,3,distance,cathedral,localisation_accuracy,1,5,pinknoise,,,pinknoise_4.wav,91.93308044297288,30,0.4945741480742627,6,RX81,7,0.0,0.0,8.0,0,0,11.10850439882698,5.2183380126953125
0,,2024-06-27 15:06:18,sub_104,3,distance,cathedral,localisation_accuracy,1,6,pinknoise,,,pinknoise_2.wav,86.06512342928085,30,-0.2023086807644866,1,RX81,2,0.0,0.0,3.0,0,0,5.346041055718476,5.687056064605713
0,,2024-06-27 15:06:24,sub_104,3,distance,cathedral,localisation_accuracy,1,7,pinknoise,,,pinknoise_0.wav,90.27730095093682,30,-0.09163622470030808,5,RX81,6,0.0,0.0,7.0,0,0,10.903225806451614,4.9683518409729
0,,2024-06-27 15:06:33,sub_104,3,distance,cathedral,localisation_accuracy,1,8,pinknoise,,,pinknoise_0.wav,92.21468379539296,30,0.2946594839836515,9,RX81,10,0.0,0.0,11.0,0,0,12.06158357771261,7.671334505081177
0,,2024-06-27 15:06:41,sub_104,3,distance,cathedral,localisation_accuracy,1,9,pinknoise,,,pinknoise_2.wav,93.2789021644549,30,0.394620353826014,10,RX81,11,0.0,0.0,12.0,0,0,12.3108504398827,6.452627658843994
0,,2024-06-27 15:06:46,sub_104,3,distance,cathedral,localisation_accuracy,1,10,pinknoise,,,pinknoise_9.wav,88.97695075826091,30,-0.24422758027460012,3,RX81,4,0.0,0.0,5.0,0,0,9.290322580645162,3.437204122543335
0,,2024-06-27 15:06:49,sub_104,3,distance,cathedral,localisation_accuracy,1,11,pinknoise,,,pinknoise_9.wav,92.0857274016773,30,0.1121404985342721,9,RX81,10,0.0,0.0,11.0,0,0,10.565982404692082,2.312281608581543
0,,2024-06-27 15:06:56,sub_104,3,distance,cathedral,localisation_accuracy,1,12,pinknoise,,,pinknoise_2.wav,93.16083347739865,30,0.22691454428972846,10,RX81,11,0.0,0.0,12.0,0,0,10.4633431085044,6.124526739120483
0,,2024-06-27 15:07:05,sub_104,3,distance,cathedral,localisation_accuracy,1,13,pinknoise,,,pinknoise_8.wav,84.29218479554565,30,-0.1609980088834414,0,RX81,1,0.0,0.0,2.0,0,0,2.8826979472140764,7.202578783035278
0,,2024-06-27 15:07:08,sub_104,3,distance,cathedral,localisation_accuracy,1,14,pinknoise,,,pinknoise_5.wav,88.87100488962261,30,-0.39353010535022737,3,RX81,4,0.0,0.0,5.0,0,0,5.551319648093842,2.6091701984405518
0,,2024-06-27 15:07:13,sub_104,3,distance,cathedral,localisation_accuracy,1,15,pinknoise,,,pinknoise_5.wav,87.72083932097416,30,0.2184721412587569,2,RX81,3,0.0,0.0,4.0,0,0,6.10850439882698,2.9528634548187256
0,,2024-06-27 15:07:17,sub_104,3,distance,cathedral,localisation_accuracy,1,16,pinknoise,,,pinknoise_0.wav,86.49463799413058,30,0.428496933913021,1,RX81,2,0.0,0.0,3.0,0,0,4.510263929618769,3.2028465270996094
0,,2024-06-27 15:07:22,sub_104,3,distance,cathedral,localisation_accuracy,1,17,pinknoise,,,pinknoise_7.wav,91.55489257516254,30,-0.04847019004347164,6,RX81,7,0.0,0.0,8.0,0,0,7.765395894428153,4.202798843383789
0,,2024-06-27 15:07:26,sub_104,3,distance,cathedral,localisation_accuracy,1,18,pinknoise,,,pinknoise_1.wav,91.43542184451816,30,-0.41538431043729873,7,RX81,8,0.0,0.0,9.0,0,0,8.762463343108505,2.687272548675537
0,,2024-06-27 15:07:33,sub_104,3,distance,cathedral,localisation_accuracy,1,19,pinknoise,,,pinknoise_9.wav,92.36287505860855,30,0.49502587561780054,8,RX81,9,0.0,0.0,10.0,0,0,9.671554252199414,5.343326807022095
0,,2024-06-27 15:07:37,sub_104,3,distance,cathedral,localisation_accuracy,1,20,pinknoise,,,pinknoise_2.wav,90.24150693690382,30,-0.14261178141603703,5,RX81,6,0.0,0.0,7.0,0,0,8.938416422287391,3.0466055870056152
0,,2024-06-27 15:07:42,sub_104,3,distance,cathedral,localisation_accuracy,1,21,pinknoise,,,pinknoise_7.wav,89.61017041036686,30,0.39851929627773963,4,RX81,5,0.0,0.0,6.0,0,0,8.30791788856305,3.702859401702881
0,,2024-06-27 15:07:46,sub_104,3,distance,cathedral,localisation_accuracy,1,22,pinknoise,,,pinknoise_4.wav,87.70027492217643,30,0.1884957511406511,2,RX81,3,0.0,0.0,4.0,0,0,6.577712609970675,3.4372243881225586
0,,2024-06-27 15:07:52,sub_104,3,distance,cathedral,localisation_accuracy,1,23,pinknoise,,,pinknoise_5.wav,92.22241040747946,30,0.30563043976407533,9,RX81,10,0.0,0.0,11.0,0,0,10.917888563049853,4.140281915664673
0,,2024-06-27 15:07:56,sub_104,3,distance,cathedral,localisation_accuracy,1,24,pinknoise,,,pinknoise_8.wav,90.44310025052171,30,0.14562215509689524,5,RX81,6,0.0,0.0,7.0,0,0,9.642228739002933,2.9216129779815674
0,,2024-06-27 15:08:06,sub_104,3,distance,cathedral,localisation_accuracy,1,25,pinknoise,,,pinknoise_7.wav,93.16482269131774,30,0.23256572619749027,10,RX81,11,0.0,0.0,12.0,0,0,12.222873900293257,8.639982461929321
0,,2024-06-27 15:08:10,sub_104,3,distance,cathedral,localisation_accuracy,1,26,pinknoise,,,pinknoise_7.wav,89.37180663826669,30,0.318879382429327,3,RX81,4,0.0,0.0,5.0,0,0,6.035190615835777,3.2028467655181885
0,,2024-06-27 15:08:13,sub_104,3,distance,cathedral,localisation_accuracy,1,27,pinknoise,,,pinknoise_2.wav,91.93930495100376,30,-0.10713111853954271,8,RX81,9,0.0,0.0,10.0,0,0,11.10850439882698,2.2810325622558594
0,,2024-06-27 15:08:19,sub_104,3,distance,cathedral,localisation_accuracy,1,28,pinknoise,,,pinknoise_2.wav,91.62492882780688,30,-0.156076325888863,7,RX81,8,0.0,0.0,9.0,0,0,9.83284457478006,4.030916690826416
0,,2024-06-27 15:08:23,sub_104,3,distance,cathedral,localisation_accuracy,1,29,pinknoise,,,pinknoise_2.wav,86.13900809342118,30,-0.0947370345366273,1,RX81,2,0.0,0.0,3.0,0,0,3.9237536656891496,3.1716175079345703
0,,2024-06-27 15:08:28,sub_104,3,distance,cathedral,localisation_accuracy,1,30,pinknoise,,,pinknoise_1.wav,91.63123073679944,30,0.06036005142618883,6,RX81,7,0.0,0.0,8.0,0,0,8.60117302052786,4.109053611755371
0,,2024-06-27 15:08:33,sub_104,3,distance,cathedral,localisation_accuracy,1,31,pinknoise,,,pinknoise_1.wav,89.54786522540437,30,0.314335608863503,4,RX81,5,0.0,0.0,6.0,0,0,9.436950146627566,3.6246936321258545
0,,2024-06-27 15:08:38,sub_104,3,distance,cathedral,localisation_accuracy,1,32,pinknoise,,,pinknoise_6.wav,84.06869036913787,30,-0.48962385274075526,0,RX81,1,0.0,0.0,2.0,0,0,2.9120234604105573,3.4528307914733887
0,,2024-06-27 15:08:43,sub_104,3,distance,cathedral,localisation_accuracy,1,33,pinknoise,,,pinknoise_2.wav,87.39310378036697,30,-0.2557395048259463,2,RX81,3,0.0,0.0,4.0,0,0,4.656891495601173,4.124679327011108
0,,2024-06-27 15:08:47,sub_104,3,distance,cathedral,localisation_accuracy,1,34,pinknoise,,,pinknoise_1.wav,89.49752058335017,30,0.24648274399279868,4,RX81,5,0.0,0.0,6.0,0,0,5.844574780058651,2.437300205230713
0,,2024-06-27 15:08:53,sub_104,3,distance,cathedral,localisation_accuracy,1,35,pinknoise,,,pinknoise_2.wav,93.28162373569532,30,0.3984970491793334,10,RX81,11,0.0,0.0,12.0,0,0,8.747800586510264,5.249643564224243
0,,2024-06-27 15:08:57,sub_104,3,distance,cathedral,localisation_accuracy,1,36,pinknoise,,,pinknoise_8.wav,85.88475691161614,30,-0.46328905579821444,1,RX81,2,0.0,0.0,3.0,0,0,4.041055718475073,3.031001091003418
0,,2024-06-27 15:09:01,sub_104,3,distance,cathedral,localisation_accuracy,1,37,pinknoise,,,pinknoise_8.wav,90.40684451842233,30,0.09358002394009968,5,RX81,6,0.0,0.0,7.0,0,0,7.384164222873901,2.452892541885376
0,,2024-06-27 15:09:08,sub_104,3,distance,cathedral,localisation_accuracy,1,38,pinknoise,,,pinknoise_4.wav,91.54222148469545,30,-0.26952556289340124,7,RX81,8,0.0,0.0,9.0,0,0,9.642228739002933,6.12454628944397
0,,2024-06-27 15:09:13,sub_104,3,distance,cathedral,localisation_accuracy,1,39,pinknoise,,,pinknoise_9.wav,92.21591771201771,30,0.2964112459826166,9,RX81,10,0.0,0.0,11.0,0,0,10.78592375366569,3.7965567111968994
0,,2024-06-27 15:09:17,sub_104,3,distance,cathedral,localisation_accuracy,1,40,pinknoise,,,pinknoise_5.wav,84.32564278885206,30,-0.11148748565685052,0,RX81,1,0.0,0.0,2.0,0,0,3.7917888563049855,2.4841630458831787
0,,2024-06-27 15:09:21,sub_104,3,distance,cathedral,localisation_accuracy,1,41,pinknoise,,,pinknoise_6.wav,91.705942693514,30,-0.43378917070668166,8,RX81,9,0.0,0.0,10.0,0,0,8.469208211143696,2.9528636932373047
0,,2024-06-27 15:09:24,sub_104,3,distance,cathedral,localisation_accuracy,1,42,pinknoise,,,pinknoise_5.wav,91.78279923073615,30,0.27761458845151166,6,RX81,7,0.0,0.0,8.0,0,0,9.53958944281525,2.374776601791382
0,,2024-06-27 15:09:28,sub_104,3,distance,cathedral,localisation_accuracy,1,43,pinknoise,,,pinknoise_4.wav,88.89919612322493,30,-0.35387536300521494,3,RX81,4,0.0,0.0,5.0,0,0,6.70967741935484,2.827871799468994
0,,2024-06-27 15:09:33,sub_104,3,distance,cathedral,localisation_accuracy,1,44,pinknoise,,,pinknoise_1.wav,90.08411318970053,30,-0.36573295315225207,5,RX81,6,0.0,0.0,7.0,0,0,9.86217008797654,3.1559934616088867
0,,2024-06-27 15:09:37,sub_104,3,distance,cathedral,localisation_accuracy,1,45,pinknoise,,,pinknoise_5.wav,92.86974114220696,30,-0.1826132520740058,10,RX81,11,0.0,0.0,12.0,0,0,11.211143695014664,2.968486785888672
0,,2024-06-27 15:09:40,sub_104,3,distance,cathedral,localisation_accuracy,1,46,pinknoise,,,pinknoise_3.wav,91.80150307205466,30,0.08758046060754676,7,RX81,8,0.0,0.0,9.0,0,0,10.023460410557185,2.359152317047119
0,,2024-06-27 15:09:46,sub_104,3,distance,cathedral,localisation_accuracy,1,47,pinknoise,,,pinknoise_8.wav,92.01143726949162,30,0.0074932829641469745,9,RX81,10,0.0,0.0,11.0,0,0,11.70967741935484,4.015290021896362
0,,2024-06-27 15:09:50,sub_104,3,distance,cathedral,localisation_accuracy,1,48,pinknoise,,,pinknoise_9.wav,84.07044896045937,30,-0.487052202676565,0,RX81,1,0.0,0.0,2.0,0,0,3.703812316715543,3.452829599380493
0,,2024-06-27 15:09:54,sub_104,3,distance,cathedral,localisation_accuracy,1,49,pinknoise,,,pinknoise_3.wav,86.46741706052632,30,0.3881255711459868,1,RX81,2,0.0,0.0,3.0,0,0,4.818181818181818,2.4997758865356445
0,,2024-06-27 15:09:57,sub_104,3,distance,cathedral,localisation_accuracy,1,50,pinknoise,,,pinknoise_9.wav,89.59963872660724,30,0.38427300474392145,4,RX81,5,0.0,0.0,6.0,0,0,7.134897360703812,2.4216670989990234
0,,2024-06-27 15:10:03,sub_104,3,distance,cathedral,localisation_accuracy,1,51,pinknoise,,,pinknoise_1.wav,87.63258941589146,30,0.09004153605772447,2,RX81,3,0.0,0.0,4.0,0,0,5.785923753665689,3.9840645790100098
0,,2024-06-27 15:10:07,sub_104,3,distance,cathedral,localisation_accuracy,1,52,pinknoise,,,pinknoise_7.wav,88.88955181086922,30,-0.3674473523384326,3,RX81,4,0.0,0.0,5.0,0,0,7.750733137829913,2.7966244220733643
0,,2024-06-27 15:10:11,sub_104,3,distance,cathedral,localisation_accuracy,1,53,pinknoise,,,pinknoise_8.wav,91.29893058232892,30,-0.41051094391205467,6,RX81,7,0.0,0.0,8.0,0,0,10.727272727272728,3.562196969985962
0,,2024-06-27 15:10:15,sub_104,3,distance,cathedral,localisation_accuracy,1,54,pinknoise,,,pinknoise_5.wav,92.13479747372148,30,0.16929367039968335,8,RX81,9,0.0,0.0,10.0,0,0,11.680351906158359,2.265425205230713
0,,2024-06-27 15:10:45,sub_104,3,distance,cathedral,localisation_accuracy,2,0,pinknoise,,,pinknoise_5.wav,93.26498869061078,30,0.3748092682544104,10,RX81,11,0.0,0.0,12.0,0,0,8.850439882697948,4.234044075012207
0,,2024-06-27 15:10:49,sub_104,3,distance,cathedral,localisation_accuracy,2,1,pinknoise,,,pinknoise_1.wav,92.35783937908872,30,0.48779627116719104,8,RX81,9,0.0,0.0,10.0,0,0,10.712609970674487,2.4685375690460205
0,,2024-06-27 15:10:53,sub_104,3,distance,cathedral,localisation_accuracy,2,2,pinknoise,,,pinknoise_3.wav,87.87445819628829,30,0.44334358629433046,2,RX81,3,0.0,0.0,4.0,0,0,7.061583577712611,2.921610116958618
0,,2024-06-27 15:10:57,sub_104,3,distance,cathedral,localisation_accuracy,2,3,pinknoise,,,pinknoise_9.wav,84.36681025419128,30,-0.05045588764319264,0,RX81,1,0.0,0.0,2.0,0,0,3.322580645161291,2.6091339588165283
0,,2024-06-27 15:11:02,sub_104,3,distance,cathedral,localisation_accuracy,2,4,pinknoise,,,pinknoise_6.wav,91.52394526267761,30,-0.29453672607699966,7,RX81,8,0.0,0.0,9.0,0,0,10.741935483870968,3.7965519428253174
0,,2024-06-27 15:11:06,sub_104,3,distance,cathedral,localisation_accuracy,2,5,pinknoise,,,pinknoise_9.wav,91.80225596668576,30,-0.2852159383125429,9,RX81,10,0.0,0.0,11.0,0,0,11.548387096774194,2.7810168266296387
0,,2024-06-27 15:11:09,sub_104,3,distance,cathedral,localisation_accuracy,2,6,pinknoise,,,pinknoise_1.wav,91.58540586733304,30,-0.005016767785034459,6,RX81,7,0.0,0.0,8.0,0,0,8.997067448680353,2.265404224395752
0,,2024-06-27 15:11:12,sub_104,3,distance,cathedral,localisation_accuracy,2,7,pinknoise,,,pinknoise_0.wav,86.39822089522917,30,0.2857417221933468,1,RX81,2,0.0,0.0,3.0,0,0,6.724340175953079,1.9217002391815186
0,,2024-06-27 15:11:16,sub_104,3,distance,cathedral,localisation_accuracy,2,8,pinknoise,,,pinknoise_1.wav,89.43612147207688,30,0.16393655204333912,4,RX81,5,0.0,0.0,6.0,0,0,8.513196480938417,2.2966530323028564
0,,2024-06-27 15:11:20,sub_104,3,distance,cathedral,localisation_accuracy,2,9,pinknoise,,,pinknoise_8.wav,89.23481997961346,30,0.12232460975797665,3,RX81,4,0.0,0.0,5.0,0,0,9.290322580645162,2.9997501373291016
0,,2024-06-27 15:11:23,sub_104,3,distance,cathedral,localisation_accuracy,2,10,pinknoise,,,pinknoise_0.wav,90.36821044049212,30,0.038222845710564,5,RX81,6,0.0,0.0,7.0,0,0,10.331378299120235,2.577885389328003
0,,2024-06-27 15:11:28,sub_104,3,distance,cathedral,localisation_accuracy,2,11,pinknoise,,,pinknoise_9.wav,91.83850047562585,30,0.3578493231356379,6,RX81,7,0.0,0.0,8.0,0,0,11.005865102639296,2.9216129779815674
0,,2024-06-27 15:11:33,sub_104,3,distance,cathedral,localisation_accuracy,2,12,pinknoise,,,pinknoise_0.wav,90.61966949883643,30,0.4003621524539347,5,RX81,6,0.0,0.0,7.0,0,0,11.70967741935484,4.35901665687561
0,,2024-06-27 15:11:37,sub_104,3,distance,cathedral,localisation_accuracy,2,13,pinknoise,,,pinknoise_8.wav,92.16486739615549,30,0.2120385268521866,8,RX81,9,0.0,0.0,10.0,0,0,12.428152492668623,2.5154078006744385
0,,2024-06-27 15:11:42,sub_104,3,distance,cathedral,localisation_accuracy,2,14,pinknoise,,,pinknoise_1.wav,92.91310767105118,30,-0.12195594073591198,10,RX81,11,0.0,0.0,12.0,0,0,12.736070381231672,3.702810287475586
0,,2024-06-27 15:11:46,sub_104,3,distance,cathedral,localisation_accuracy,2,15,pinknoise,,,pinknoise_7.wav,86.2060013363014,30,0.0031367750548120243,1,RX81,2,0.0,0.0,3.0,0,0,4.099706744868035,3.3747048377990723
0,,2024-06-27 15:11:50,sub_104,3,distance,cathedral,localisation_accuracy,2,16,pinknoise,,,pinknoise_2.wav,84.43464084041076,30,0.05037628355043844,0,RX81,1,0.0,0.0,2.0,0,0,3.4985337243401764,2.906008243560791
0,,2024-06-27 15:11:54,sub_104,3,distance,cathedral,localisation_accuracy,2,17,pinknoise,,,pinknoise_9.wav,89.45047017909347,30,0.4323286377575186,3,RX81,4,0.0,0.0,5.0,0,0,4.979472140762463,2.687250852584839
0,,2024-06-27 15:11:58,sub_104,3,distance,cathedral,localisation_accuracy,2,18,pinknoise,,,pinknoise_2.wav,89.4859887027742,30,0.23096184269363074,4,RX81,5,0.0,0.0,6.0,0,0,6.489736070381232,2.8278696537017822
0,,2024-06-27 15:12:02,sub_104,3,distance,cathedral,localisation_accuracy,2,19,pinknoise,,,pinknoise_4.wav,92.13012740194996,30,0.17485776696944544,9,RX81,10,0.0,0.0,11.0,0,0,7.736070381231672,3.155971050262451
0,,2024-06-27 15:12:06,sub_104,3,distance,cathedral,localisation_accuracy,2,20,pinknoise,,,pinknoise_5.wav,87.50203013689513,30,-0.09896172546196769,2,RX81,3,0.0,0.0,4.0,0,0,6.0205278592375375,2.6872732639312744
0,,2024-06-27 15:12:11,sub_104,3,distance,cathedral,localisation_accuracy,2,21,pinknoise,,,pinknoise_4.wav,91.81502985460013,30,0.10632804898357884,7,RX81,8,0.0,0.0,9.0,0,0,7.794721407624634,3.4372055530548096
0,,2024-06-27 15:12:16,sub_104,3,distance,cathedral,localisation_accuracy,2,22,pinknoise,,,pinknoise_1.wav,91.83872091898576,30,-0.24836782319126938,8,RX81,9,0.0,0.0,10.0,0,0,8.571847507331379,3.8121964931488037
0,,2024-06-27 15:12:20,sub_104,3,distance,cathedral,localisation_accuracy,2,23,pinknoise,,,pinknoise_5.wav,92.8663891501034,30,-0.18729659549678623,10,RX81,11,0.0,0.0,12.0,0,0,9.642228739002933,3.3747262954711914
0,,2024-06-27 15:12:24,sub_104,3,distance,cathedral,localisation_accuracy,2,24,pinknoise,,,pinknoise_7.wav,86.00981340296059,30,-0.28258343534277997,1,RX81,2,0.0,0.0,3.0,0,0,3.6598240469208214,2.7966806888580322
0,,2024-06-27 15:12:28,sub_104,3,distance,cathedral,localisation_accuracy,2,25,pinknoise,,,pinknoise_4.wav,84.17898472117326,30,-0.32790204307067894,0,RX81,1,0.0,0.0,2.0,0,0,2.780058651026393,2.9060094356536865
0,,2024-06-27 15:12:34,sub_104,3,distance,cathedral,localisation_accuracy,2,26,pinknoise,,,pinknoise_4.wav,89.35614513973823,30,0.05675251167333317,4,RX81,5,0.0,0.0,6.0,0,0,7.35483870967742,4.077868461608887
0,,2024-06-27 15:12:38,sub_104,3,distance,cathedral,localisation_accuracy,2,27,pinknoise,,,pinknoise_0.wav,92.13316789727531,30,0.17915739776969464,9,RX81,10,0.0,0.0,11.0,0,0,9.20234604105572,3.452845573425293
0,,2024-06-27 15:12:44,sub_104,3,distance,cathedral,localisation_accuracy,2,28,pinknoise,,,pinknoise_4.wav,92.03802901208473,30,0.4170852418110288,7,RX81,8,0.0,0.0,9.0,0,0,9.686217008797655,4.671513557434082
0,,2024-06-27 15:12:49,sub_104,3,distance,cathedral,localisation_accuracy,2,29,pinknoise,,,pinknoise_9.wav,87.70618157077499,30,0.19710273165450276,2,RX81,3,0.0,0.0,4.0,0,0,6.812316715542522,3.4684500694274902
0,,2024-06-27 15:12:52,sub_104,3,distance,cathedral,localisation_accuracy,2,30,pinknoise,,,pinknoise_1.wav,90.29937277026534,30,-0.060159574593352305,5,RX81,6,0.0,0.0,7.0,0,0,9.217008797653959,2.3122758865356445
0,,2024-06-27 15:12:56,sub_104,3,distance,cathedral,localisation_accuracy,2,31,pinknoise,,,pinknoise_7.wav,89.1153552216793,30,-0.04804845461988938,3,RX81,4,0.0,0.0,5.0,0,0,7.398826979472142,2.8591151237487793
0,,2024-06-27 15:13:00,sub_104,3,distance,cathedral,localisation_accuracy,2,32,pinknoise,,,pinknoise_0.wav,91.7403970438854,30,0.21667863878128657,6,RX81,7,0.0,0.0,8.0,0,0,9.011730205278592,2.8434929847717285
0,,2024-06-27 15:13:04,sub_104,3,distance,cathedral,localisation_accuracy,2,33,pinknoise,,,pinknoise_7.wav,92.99688555852008,30,-0.00442508189541746,10,RX81,11,0.0,0.0,12.0,0,0,9.906158357771261,2.5310144424438477
0,,2024-06-27 15:13:09,sub_104,3,distance,cathedral,localisation_accuracy,2,34,pinknoise,,,pinknoise_3.wav,86.36807197653025,30,0.24124081696290212,1,RX81,2,0.0,0.0,3.0,0,0,4.627565982404692,3.9684181213378906
0,,2024-06-27 15:13:14,sub_104,3,distance,cathedral,localisation_accuracy,2,35,pinknoise,,,pinknoise_7.wav,87.51863098832912,30,-0.07499564963002292,2,RX81,3,0.0,0.0,4.0,0,0,6.519061583577713,3.593496084213257
0,,2024-06-27 15:13:21,sub_104,3,distance,cathedral,localisation_accuracy,2,36,pinknoise,,,pinknoise_0.wav,90.59263779023254,30,0.36122386406335205,5,RX81,6,0.0,0.0,7.0,0,0,8.190615835777127,6.280762672424316
0,,2024-06-27 15:13:26,sub_104,3,distance,cathedral,localisation_accuracy,2,37,pinknoise,,,pinknoise_9.wav,91.57892108084631,30,-0.21923823897274541,7,RX81,8,0.0,0.0,9.0,0,0,9.260997067448681,2.9059865474700928
0,,2024-06-27 15:13:29,sub_104,3,distance,cathedral,localisation_accuracy,2,38,pinknoise,,,pinknoise_4.wav,91.7168044203187,30,0.18282692622329488,6,RX81,7,0.0,0.0,8.0,0,0,9.803519061583579,2.1716814041137695
0,,2024-06-27 15:13:36,sub_104,3,distance,cathedral,localisation_accuracy,2,39,pinknoise,,,pinknoise_1.wav,84.65649366726014,30,0.3825440281102086,0,RX81,1,0.0,0.0,2.0,0,0,3.0,5.999531030654907
0,,2024-06-27 15:13:41,sub_104,3,distance,cathedral,localisation_accuracy,2,40,pinknoise,,,pinknoise_6.wav,92.32919913957728,30,0.4576664667392636,9,RX81,10,0.0,0.0,11.0,0,0,10.287390029325515,3.3278329372406006
0,,2024-06-27 15:13:45,sub_104,3,distance,cathedral,localisation_accuracy,2,41,pinknoise,,,pinknoise_7.wav,89.52586081585625,30,0.28466007848416,4,RX81,5,0.0,0.0,6.0,0,0,6.475073313782993,3.0934736728668213
0,,2024-06-27 15:13:48,sub_104,3,distance,cathedral,localisation_accuracy,2,42,pinknoise,,,pinknoise_9.wav,88.9911382000252,30,-0.22417707406374288,3,RX81,4,0.0,0.0,5.0,0,0,5.521994134897361,1.7185683250427246
0,,2024-06-27 15:13:51,sub_104,3,distance,cathedral,localisation_accuracy,2,43,pinknoise,,,pinknoise_1.wav,92.35133007490452,30,0.4784535587260833,8,RX81,9,0.0,0.0,10.0,0,0,9.099706744868035,2.5310325622558594
0,,2024-06-27 15:13:55,sub_104,3,distance,cathedral,localisation_accuracy,2,44,pinknoise,,,pinknoise_8.wav,91.39260701313475,30,-0.27852256723550284,6,RX81,7,0.0,0.0,8.0,0,0,9.8475073313783,2.515408992767334
0,,2024-06-27 15:13:58,sub_104,3,distance,cathedral,localisation_accuracy,2,45,pinknoise,,,pinknoise_3.wav,91.9261778125902,30,-0.1256017773278323,8,RX81,9,0.0,0.0,10.0,0,0,10.727272727272728,1.5935747623443604
0,,2024-06-27 15:14:02,sub_104,3,distance,cathedral,localisation_accuracy,2,46,pinknoise,,,pinknoise_4.wav,87.32939026796632,30,-0.34706109957925224,2,RX81,3,0.0,0.0,4.0,0,0,5.096774193548388,3.421576738357544
0,,2024-06-27 15:14:06,sub_104,3,distance,cathedral,localisation_accuracy,2,47,pinknoise,,,pinknoise_8.wav,89.58202028319366,30,0.360455323098959,4,RX81,5,0.0,0.0,6.0,0,0,7.1788856304985345,2.57790470123291
0,,2024-06-27 15:14:10,sub_104,3,distance,cathedral,localisation_accuracy,2,48,pinknoise,,,pinknoise_5.wav,92.3507086991809,30,0.4883819740421148,9,RX81,10,0.0,0.0,11.0,0,0,10.404692082111438,2.562303066253662
0,,2024-06-27 15:14:14,sub_104,3,distance,cathedral,localisation_accuracy,2,49,pinknoise,,,pinknoise_6.wav,90.00361062315781,30,-0.4792080015147542,5,RX81,6,0.0,0.0,7.0,0,0,11.196480938416423,2.4841394424438477
0,,2024-06-27 15:14:19,sub_104,3,distance,cathedral,localisation_accuracy,2,50,pinknoise,,,pinknoise_1.wav,84.15676945443906,30,-0.3605468461452188,0,RX81,1,0.0,0.0,2.0,0,0,3.234604105571848,4.077780246734619
0,,2024-06-27 15:14:22,sub_104,3,distance,cathedral,localisation_accuracy,2,51,pinknoise,,,pinknoise_4.wav,85.87212131684802,30,-0.4814861549764672,1,RX81,2,0.0,0.0,3.0,0,0,4.2463343108504406,2.01542067527771
0,,2024-06-27 15:14:25,sub_104,3,distance,cathedral,localisation_accuracy,2,52,pinknoise,,,pinknoise_5.wav,88.89051320102405,30,-0.3660947118349117,3,RX81,4,0.0,0.0,5.0,0,0,7.061583577712611,2.140434741973877
0,,2024-06-27 15:14:29,sub_104,3,distance,cathedral,localisation_accuracy,2,53,pinknoise,,,pinknoise_9.wav,91.53993220330263,30,-0.27265961702487107,7,RX81,8,0.0,0.0,9.0,0,0,9.744868035190617,2.3904154300689697
0,,2024-06-27 15:14:32,sub_104,3,distance,cathedral,localisation_accuracy,2,54,pinknoise,,,pinknoise_0.wav,92.73915189465689,30,-0.3645273529678378,10,RX81,11,0.0,0.0,12.0,0,0,10.844574780058652,2.140434741973877
0,,2024-06-27 15:16:41,sub_104,3,distance,cathedral,localisation_accuracy,3,0,babble,,,babble-reversed_n13_p256-nine-p307-four-p229-one-p284-three-p248-two-p245-five.wav,90.01946294677893,30,-0.45689724579662194,5,RX81,6,0.0,0.0,7.0,0,0,7.6334310850439895,7.608816862106323
0,,2024-06-27 15:16:45,sub_104,3,distance,cathedral,localisation_accuracy,3,1,babble,,,babble-reversed_n13_p229-two-p318-eight-p256-three-p268-one-p248-nine-p284-five.wav,87.25642361483129,30,-0.45130100606516443,2,RX81,3,0.0,0.0,4.0,0,0,6.211143695014663,2.827887535095215
0,,2024-06-27 15:16:51,sub_104,3,distance,cathedral,localisation_accuracy,3,2,babble,,,babble-reversed_n13_p318-five-p229-three-p256-four-p268-eight-p248-one-p245-nine.wav,89.66513994869206,30,0.47298551287269386,4,RX81,5,0.0,0.0,6.0,0,0,6.988269794721408,4.577749013900757
0,,2024-06-27 15:16:54,sub_104,3,distance,cathedral,localisation_accuracy,3,3,babble,,,babble-reversed_n13_p229-nine-p256-four-p318-three-p268-eight-p248-two-p284-five.wav,92.19593043481314,30,0.25625870989704425,8,RX81,9,0.0,0.0,10.0,0,0,8.469208211143696,2.8122642040252686
0,,2024-06-27 15:16:58,sub_104,3,distance,cathedral,localisation_accuracy,3,4,babble,,,babble-reversed_n13_p307-five-p229-two-p318-four-p248-three-p245-nine-p268-eight.wav,91.89713337817173,30,0.2203712013411162,7,RX81,8,0.0,0.0,9.0,0,0,8.938416422287391,2.5622591972351074
0,,2024-06-27 15:17:02,sub_104,3,distance,cathedral,localisation_accuracy,3,5,babble,,,babble-reversed_n13_p318-five-p256-nine-p307-eight-p248-two-p245-four-p284-three.wav,88.81159680944768,30,-0.47692194104027097,3,RX81,4,0.0,0.0,5.0,0,0,5.507331378299121,2.60915207862854
0,,2024-06-27 15:17:05,sub_104,3,distance,cathedral,localisation_accuracy,3,6,babble,,,babble-reversed_n13_p229-nine-p318-one-p307-two-p248-eight-p245-five-p284-four.wav,92.7888185394873,30,-0.29547162157273366,10,RX81,11,0.0,0.0,12.0,0,0,8.454545454545455,2.234177827835083
0,,2024-06-27 15:17:09,sub_104,3,distance,cathedral,localisation_accuracy,3,7,babble,,,babble-reversed_n13_p256-three-p318-one-p307-two-p284-nine-p268-four-p245-eight.wav,91.83131041497509,30,-0.24473118018128115,9,RX81,10,0.0,0.0,11.0,0,0,9.964809384164223,2.9684853553771973
0,,2024-06-27 15:17:13,sub_104,3,distance,cathedral,localisation_accuracy,3,8,babble,,,babble-reversed_n13_p229-one-p318-nine-p256-four-p284-eight-p268-five-p245-two.wav,91.75736564476607,30,0.24104938919288632,6,RX81,7,0.0,0.0,8.0,0,0,8.645161290322582,2.952881097793579
0,,2024-06-27 15:17:17,sub_104,3,distance,cathedral,localisation_accuracy,3,9,babble,,,babble-reversed_n13_p256-nine-p307-four-p229-one-p284-three-p248-two-p245-five.wav,84.25740728117833,30,-0.21237420695653686,0,RX81,1,0.0,0.0,2.0,0,0,3.0733137829912023,1.9997968673706055
0,,2024-06-27 15:17:19,sub_104,3,distance,cathedral,localisation_accuracy,3,10,babble,,,babble-reversed_n13_p318-one-p307-two-p256-eight-p284-three-p248-five-p245-four.wav,86.02543306251758,30,-0.25993562561603933,1,RX81,2,0.0,0.0,3.0,0,0,3.967741935483871,1.7810657024383545
0,,2024-06-27 15:17:24,sub_104,3,distance,cathedral,localisation_accuracy,3,11,babble,,,babble-reversed_n13_p229-three-p256-nine-p318-five-p248-one-p245-eight-p284-two.wav,91.6038817390669,30,0.021325020582837917,6,RX81,7,0.0,0.0,8.0,0,0,6.665689149560118,3.874695062637329
0,,2024-06-27 15:17:28,sub_104,3,distance,cathedral,localisation_accuracy,3,12,babble,,,babble-reversed_n13_p307-nine-p318-two-p256-one-p245-three-p268-four-p248-eight.wav,91.86067551707467,30,-0.21759695786353384,8,RX81,9,0.0,0.0,10.0,0,0,9.686217008797655,2.5778863430023193
0,,2024-06-27 15:17:33,sub_104,3,distance,cathedral,localisation_accuracy,3,13,babble,,,babble-reversed_n13_p307-nine-p318-two-p256-one-p245-three-p268-four-p248-eight.wav,86.40490996474861,30,0.29562390592833054,1,RX81,2,0.0,0.0,3.0,0,0,4.86217008797654,3.4059746265411377
0,,2024-06-27 15:17:38,sub_104,3,distance,cathedral,localisation_accuracy,3,14,babble,,,babble-reversed_n13_p229-one-p318-nine-p256-four-p284-eight-p268-five-p245-two.wav,92.23496878327734,30,0.3234704561297459,9,RX81,10,0.0,0.0,11.0,0,0,10.038123167155426,3.702808141708374
0,,2024-06-27 15:17:42,sub_104,3,distance,cathedral,localisation_accuracy,3,15,babble,,,babble-reversed_n13_p318-nine-p256-five-p307-eight-p268-three-p248-one-p245-four.wav,91.89424405500898,30,0.2163505594899069,7,RX81,8,0.0,0.0,9.0,0,0,8.997067448680353,3.2965877056121826
0,,2024-06-27 15:17:46,sub_104,3,distance,cathedral,localisation_accuracy,3,16,babble,,,babble-reversed_n13_p229-five-p318-three-p307-two-p245-four-p284-nine-p248-eight.wav,84.66324637114661,30,0.3927118465064423,0,RX81,1,0.0,0.0,2.0,0,0,4.422287390029326,3.296586036682129
0,,2024-06-27 15:17:52,sub_104,3,distance,cathedral,localisation_accuracy,3,17,babble,,,babble-reversed_n13_p256-eight-p318-five-p307-four-p245-three-p268-one-p284-nine.wav,88.97921664583905,30,-0.44330093946618365,4,RX81,5,0.0,0.0,6.0,0,0,6.2404692082111435,4.437141418457031
0,,2024-06-27 15:17:57,sub_104,3,distance,cathedral,localisation_accuracy,3,18,babble,,,babble-reversed_n13_p256-four-p229-two-p318-five-p268-one-p248-eight-p245-three.wav,93.18974696072996,30,0.26789776043310054,10,RX81,11,0.0,0.0,12.0,0,0,9.642228739002933,4.312163591384888
0,,2024-06-27 15:18:01,sub_104,3,distance,cathedral,localisation_accuracy,3,19,babble,,,babble-reversed_n13_p318-five-p256-nine-p307-eight-p248-two-p245-four-p284-three.wav,90.10991473064836,30,-0.3292713165036294,5,RX81,6,0.0,0.0,7.0,0,0,8.337243401759531,2.0623180866241455
0,,2024-06-27 15:18:06,sub_104,3,distance,cathedral,localisation_accuracy,3,20,babble,,,babble-reversed_n13_p229-nine-p256-four-p318-three-p268-eight-p248-two-p284-five.wav,89.23754765161681,30,0.1262259380197287,3,RX81,4,0.0,0.0,5.0,0,0,6.988269794721408,4.67149543762207
0,,2024-06-27 15:18:10,sub_104,3,distance,cathedral,localisation_accuracy,3,21,babble,,,babble-reversed_n13_p229-one-p318-nine-p256-four-p284-eight-p268-five-p245-two.wav,87.39252616761813,30,-0.2565686683750865,2,RX81,3,0.0,0.0,4.0,0,0,5.844574780058651,2.827866315841675
0,,2024-06-27 15:18:14,sub_104,3,distance,cathedral,localisation_accuracy,3,22,babble,,,babble-reversed_n13_p307-four-p318-three-p256-eight-p284-two-p245-nine-p248-five.wav,92.05674997782246,30,0.4433190552607096,7,RX81,8,0.0,0.0,9.0,0,0,8.351906158357773,3.077849864959717
0,,2024-06-27 15:18:20,sub_104,3,distance,cathedral,localisation_accuracy,3,23,babble,,,babble-reversed_n13_p307-two-p256-four-p318-three-p284-eight-p248-five-p245-nine.wav,86.4565230458766,30,0.37198367122812104,1,RX81,2,0.0,0.0,3.0,0,0,4.495601173020528,4.280893802642822
0,,2024-06-27 15:18:24,sub_104,3,distance,cathedral,localisation_accuracy,3,24,babble,,,babble-reversed_n13_p256-two-p307-five-p318-nine-p248-eight-p245-four-p284-one.wav,91.65523293540757,30,0.09466003580910098,6,RX81,7,0.0,0.0,8.0,0,0,7.384164222873901,3.1403465270996094
0,,2024-06-27 15:18:29,sub_104,3,distance,cathedral,localisation_accuracy,3,25,babble,,,babble-reversed_n13_p229-nine-p256-four-p318-three-p268-eight-p248-two-p284-five.wav,87.3855793329589,30,-0.2665390444511587,2,RX81,3,0.0,0.0,4.0,0,0,5.580645161290323,3.4059553146362305
0,,2024-06-27 15:18:33,sub_104,3,distance,cathedral,localisation_accuracy,3,26,babble,,,babble-reversed_n13_p318-three-p307-one-p256-five-p248-nine-p245-two-p284-eight.wav,89.35204665084953,30,0.29044787800830985,3,RX81,4,0.0,0.0,5.0,0,0,6.489736070381232,2.749748706817627
0,,2024-06-27 15:18:36,sub_104,3,distance,cathedral,localisation_accuracy,3,27,babble,,,babble-reversed_n13_p307-nine-p229-one-p256-eight-p248-four-p284-two-p268-three.wav,92.84231382412008,30,-0.22091260207652597,10,RX81,11,0.0,0.0,12.0,0,0,10.126099706744869,2.609130620956421
0,,2024-06-27 15:18:41,sub_104,3,distance,cathedral,localisation_accuracy,3,28,babble,,,babble-reversed_n13_p229-two-p307-five-p318-four-p284-one-p248-nine-p268-eight.wav,84.15574017861329,30,-0.362058471484451,0,RX81,1,0.0,0.0,2.0,0,0,3.6304985337243405,3.218492269515991
0,,2024-06-27 15:18:46,sub_104,3,distance,cathedral,localisation_accuracy,3,29,babble,,,babble-reversed_n13_p318-one-p307-two-p256-eight-p284-three-p248-five-p245-four.wav,92.27252163561337,30,0.36556782090944595,8,RX81,9,0.0,0.0,10.0,0,0,8.865102639296188,4.624630451202393
0,,2024-06-27 15:18:51,sub_104,3,distance,cathedral,localisation_accuracy,3,30,babble,,,babble-reversed_n13_p229-nine-p318-one-p307-two-p248-eight-p245-five-p284-four.wav,89.00948742729652,30,-0.40345119505869687,4,RX81,5,0.0,0.0,6.0,0,0,5.859237536656892,3.5934433937072754
0,,2024-06-27 15:18:54,sub_104,3,distance,cathedral,localisation_accuracy,3,31,babble,,,babble-reversed_n13_p229-one-p318-nine-p256-four-p284-eight-p268-five-p245-two.wav,90.27129843558835,30,-0.10019069461473407,5,RX81,6,0.0,0.0,7.0,0,0,7.413489736070382,2.249783515930176
0,,2024-06-27 15:18:58,sub_104,3,distance,cathedral,localisation_accuracy,3,32,babble,,,babble-reversed_n13_p318-nine-p256-five-p307-eight-p268-three-p248-one-p245-four.wav,92.34845541066795,30,0.48516284115482644,9,RX81,10,0.0,0.0,11.0,0,0,10.096774193548388,2.656005859375
0,,2024-06-27 15:19:02,sub_104,3,distance,cathedral,localisation_accuracy,3,33,babble,,,babble-reversed_n13_p256-five-p307-nine-p318-three-p284-eight-p268-one-p248-two.wav,89.45325581684219,30,0.43635388244240514,3,RX81,4,0.0,0.0,5.0,0,0,5.140762463343109,2.265406370162964
0,,2024-06-27 15:19:06,sub_104,3,distance,cathedral,localisation_accuracy,3,34,babble,,,babble-reversed_n13_p229-three-p256-nine-p318-five-p248-one-p245-eight-p284-two.wav,93.08254427001975,30,0.11622238855120093,10,RX81,11,0.0,0.0,12.0,0,0,10.47800586510264,2.8278679847717285
0,,2024-06-27 15:19:09,sub_104,3,distance,cathedral,localisation_accuracy,3,35,babble,,,babble-reversed_n13_p307-five-p229-three-p318-nine-p245-four-p268-eight-p284-two.wav,90.36587590001096,30,0.03488104327698316,5,RX81,6,0.0,0.0,7.0,0,0,7.926686217008799,2.3747715950012207
0,,2024-06-27 15:19:13,sub_104,3,distance,cathedral,localisation_accuracy,3,36,babble,,,babble-reversed_n13_p229-three-p307-one-p318-two-p245-eight-p268-five-p284-four.wav,91.78599700547221,30,0.28221507303145865,6,RX81,7,0.0,0.0,8.0,0,0,9.260997067448681,2.906007766723633
0,,2024-06-27 15:19:18,sub_104,3,distance,cathedral,localisation_accuracy,3,37,babble,,,babble-reversed_n13_p256-eight-p318-five-p307-four-p245-three-p268-one-p284-nine.wav,92.03744474752418,30,0.416266871880306,7,RX81,8,0.0,0.0,9.0,0,0,9.818181818181818,3.4059557914733887
0,,2024-06-27 15:19:22,sub_104,3,distance,cathedral,localisation_accuracy,3,38,babble,,,babble-reversed_n13_p229-five-p256-three-p318-nine-p248-two-p284-four-p268-one.wav,84.39744471702329,30,-0.00495881763356576,0,RX81,1,0.0,0.0,2.0,0,0,4.041055718475073,3.2809622287750244
0,,2024-06-27 15:19:26,sub_104,3,distance,cathedral,localisation_accuracy,3,39,babble,,,babble-reversed_n13_p307-nine-p318-two-p256-one-p245-three-p268-four-p248-eight.wav,89.13312670339482,30,-0.24012853789371102,4,RX81,5,0.0,0.0,6.0,0,0,7.765395894428153,2.624752998352051
0,,2024-06-27 15:19:30,sub_104,3,distance,cathedral,localisation_accuracy,3,40,babble,,,babble-reversed_n13_p307-four-p318-three-p256-eight-p284-two-p245-nine-p248-five.wav,91.81840812980467,30,-0.26271615712415963,9,RX81,10,0.0,0.0,11.0,0,0,11.049853372434018,3.452824354171753
0,,2024-06-27 15:19:37,sub_104,3,distance,cathedral,localisation_accuracy,3,41,babble,,,babble-reversed_n13_p256-five-p229-one-p318-three-p248-nine-p284-eight-p268-two.wav,86.17052846065616,30,-0.04872717355538769,1,RX81,2,0.0,0.0,3.0,0,0,3.7184750733137832,5.405838966369629
0,,2024-06-27 15:19:42,sub_104,3,distance,cathedral,localisation_accuracy,3,42,babble,,,babble-reversed_n13_p229-three-p256-one-p307-two-p284-eight-p268-five-p248-nine.wav,91.97375450492328,30,-0.05860423486343991,8,RX81,9,0.0,0.0,10.0,0,0,9.363636363636365,4.077784061431885
0,,2024-06-27 15:19:47,sub_104,3,distance,cathedral,localisation_accuracy,3,43,babble,,,babble-reversed_n13_p229-nine-p256-four-p318-three-p268-eight-p248-two-p284-five.wav,87.8800984946243,30,0.45163177910824936,2,RX81,3,0.0,0.0,4.0,0,0,5.7272727272727275,3.3747048377990723
0,,2024-06-27 15:19:52,sub_104,3,distance,cathedral,localisation_accuracy,3,44,babble,,,babble-reversed_n13_p318-three-p307-one-p256-five-p248-nine-p245-two-p284-eight.wav,91.66984346444859,30,-0.4690244124815952,9,RX81,10,0.0,0.0,11.0,0,0,9.788856304985337,4.187171936035156
0,,2024-06-27 15:19:56,sub_104,3,distance,cathedral,localisation_accuracy,3,45,babble,,,babble-reversed_n13_p229-five-p256-one-p318-three-p248-nine-p268-four-p284-eight.wav,84.38327985169045,30,-0.026004489163568012,0,RX81,1,0.0,0.0,2.0,0,0,2.8826979472140764,3.312211275100708
0,,2024-06-27 15:20:00,sub_104,3,distance,cathedral,localisation_accuracy,3,46,babble,,,babble-reversed_n13_p229-five-p318-three-p307-two-p245-four-p284-nine-p248-eight.wav,91.57055376620565,30,-0.026175242860297043,6,RX81,7,0.0,0.0,8.0,0,0,8.087976539589443,2.515408754348755
0,,2024-06-27 15:20:03,sub_104,3,distance,cathedral,localisation_accuracy,3,47,babble,,,babble-reversed_n13_p229-three-p256-one-p307-two-p284-eight-p268-five-p248-nine.wav,89.19502800822627,30,-0.15802107168409063,4,RX81,5,0.0,0.0,6.0,0,0,6.680351906158359,1.9685490131378174
0,,2024-06-27 15:20:07,sub_104,3,distance,cathedral,localisation_accuracy,3,48,babble,,,babble-reversed_n13_p256-two-p307-five-p318-nine-p248-eight-p245-four-p284-one.wav,92.0109470631359,30,-0.006125017583670234,8,RX81,9,0.0,0.0,10.0,0,0,10.214076246334312,2.8278656005859375
0,,2024-06-27 15:20:11,sub_104,3,distance,cathedral,localisation_accuracy,3,49,babble,,,babble-reversed_n13_p256-four-p229-eight-p307-five-p248-three-p245-one-p284-two.wav,93.03011037442184,30,0.04231349211487201,10,RX81,11,0.0,0.0,12.0,0,0,11.211143695014664,3.3434581756591797
0,,2024-06-27 15:20:16,sub_104,3,distance,cathedral,localisation_accuracy,3,50,babble,,,babble-reversed_n13_p229-two-p307-five-p318-four-p284-one-p248-nine-p268-eight.wav,90.32491526893354,30,-0.023692031571960093,5,RX81,6,0.0,0.0,7.0,0,0,7.310850439882698,3.1559722423553467
0,,2024-06-27 15:20:19,sub_104,3,distance,cathedral,localisation_accuracy,3,51,babble,,,babble-reversed_n13_p229-one-p318-eight-p256-three-p268-two-p245-five-p248-nine.wav,87.72455670469968,30,0.22389408695373225,2,RX81,3,0.0,0.0,4.0,0,0,5.47800586510264,2.3435468673706055
0,,2024-06-27 15:20:22,sub_104,3,distance,cathedral,localisation_accuracy,3,52,babble,,,babble-reversed_n13_p229-one-p318-nine-p256-four-p284-eight-p268-five-p245-two.wav,86.1750735914795,30,-0.04208686952399132,1,RX81,2,0.0,0.0,3.0,0,0,4.085043988269795,2.093561887741089
0,,2024-06-27 15:20:26,sub_104,3,distance,cathedral,localisation_accuracy,3,53,babble,,,babble-reversed_n13_p318-five-p229-three-p256-four-p268-eight-p248-one-p245-nine.wav,89.0437225866964,30,-0.1497438923446398,3,RX81,4,0.0,0.0,5.0,0,0,6.75366568914956,2.499762773513794
0,,2024-06-27 15:20:31,sub_104,3,distance,cathedral,localisation_accuracy,3,54,babble,,,babble-reversed_n13_p318-four-p256-five-p229-three-p284-one-p245-eight-p248-nine.wav,91.78781487953827,30,0.06862104848157957,7,RX81,8,0.0,0.0,9.0,0,0,9.436950146627566,3.405954360961914
0,,2024-06-27 15:20:57,sub_104,3,distance,cathedral,localisation_accuracy,4,0,babble,,,babble-reversed_n13_p307-one-p318-five-p229-four-p268-eight-p284-two-p245-three.wav,89.2107558527291,30,0.08792810948850094,3,RX81,4,0.0,0.0,5.0,0,0,5.2434017595307925,3.562211751937866
0,,2024-06-27 15:21:01,sub_104,3,distance,cathedral,localisation_accuracy,4,1,babble,,,babble-reversed_n13_p256-four-p229-eight-p307-five-p248-three-p245-one-p284-two.wav,91.69424088560268,30,-0.4500749269289056,8,RX81,9,0.0,0.0,10.0,0,0,8.410557184750735,2.3123366832733154
0,,2024-06-27 15:21:04,sub_104,3,distance,cathedral,localisation_accuracy,4,2,babble,,,babble-reversed_n13_p229-three-p256-one-p307-two-p284-eight-p268-five-p248-nine.wav,89.34105931367753,30,0.03657727086993412,4,RX81,5,0.0,0.0,6.0,0,0,6.900293255131965,2.3435463905334473
0,,2024-06-27 15:21:07,sub_104,3,distance,cathedral,localisation_accuracy,4,3,babble,,,babble-reversed_n13_p256-three-p318-one-p307-two-p284-nine-p268-four-p245-eight.wav,92.01713426355757,30,0.015505341450855248,9,RX81,10,0.0,0.0,11.0,0,0,9.994134897360704,1.9841737747192383
0,,2024-06-27 15:21:12,sub_104,3,distance,cathedral,localisation_accuracy,4,4,babble,,,babble-reversed_n13_p256-eight-p318-five-p307-four-p245-three-p268-one-p284-nine.wav,84.41758500877026,30,0.02499038221459582,0,RX81,1,0.0,0.0,2.0,0,0,3.6011730205278596,3.765324831008911
0,,2024-06-27 15:21:15,sub_104,3,distance,cathedral,localisation_accuracy,4,5,babble,,,babble-reversed_n13_p256-four-p307-eight-p318-two-p248-three-p284-nine-p268-one.wav,86.16749556463321,30,-0.05315732771807369,1,RX81,2,0.0,0.0,3.0,0,0,4.627565982404692,1.8748266696929932
0,,2024-06-27 15:21:19,sub_104,3,distance,cathedral,localisation_accuracy,4,6,babble,,,babble-reversed_n13_p256-eight-p318-five-p307-four-p245-three-p268-one-p284-nine.wav,91.86958427943134,30,0.1820569709633948,7,RX81,8,0.0,0.0,9.0,0,0,7.105571847507331,2.3279006481170654
0,,2024-06-27 15:21:22,sub_104,3,distance,cathedral,localisation_accuracy,4,7,babble,,,babble-reversed_n13_p307-five-p229-three-p318-nine-p245-four-p268-eight-p284-two.wav,93.34291948500214,30,0.48593981915354867,10,RX81,11,0.0,0.0,12.0,0,0,8.747800586510264,2.1091864109039307
0,,2024-06-27 15:21:26,sub_104,3,distance,cathedral,localisation_accuracy,4,8,babble,,,babble-reversed_n13_p256-eight-p318-five-p307-four-p245-three-p268-one-p284-nine.wav,91.80771571038323,30,0.31347922983880006,6,RX81,7,0.0,0.0,8.0,0,0,9.612903225806452,3.187220811843872
0,,2024-06-27 15:21:30,sub_104,3,distance,cathedral,localisation_accuracy,4,9,babble,,,babble-reversed_n13_p256-eight-p318-two-p307-five-p245-four-p268-nine-p284-one.wav,87.49930792358685,30,-0.10288985862884603,2,RX81,3,0.0,0.0,4.0,0,0,5.771260997067449,3.0778706073760986
0,,2024-06-27 15:21:34,sub_104,3,distance,cathedral,localisation_accuracy,4,10,babble,,,babble-reversed_n13_p256-four-p307-eight-p318-two-p248-three-p284-nine-p268-one.wav,90.14571796055398,30,-0.2786013901104044,5,RX81,6,0.0,0.0,7.0,0,0,7.413489736070382,2.4841387271881104
0,,2024-06-27 15:21:40,sub_104,3,distance,cathedral,localisation_accuracy,4,11,babble,,,babble-reversed_n13_p307-nine-p318-two-p256-one-p245-three-p268-four-p248-eight.wav,91.85433932659637,30,-0.212603282946081,9,RX81,10,0.0,0.0,11.0,0,0,9.099706744868035,4.952723741531372
0,,2024-06-27 15:21:46,sub_104,3,distance,cathedral,localisation_accuracy,4,12,babble,,,babble-reversed_n13_p229-five-p256-one-p318-three-p248-nine-p268-four-p284-eight.wav,87.2646857190006,30,-0.43951621386918716,2,RX81,3,0.0,0.0,4.0,0,0,6.548387096774194,4.843377351760864
0,,2024-06-27 15:21:49,sub_104,3,distance,cathedral,localisation_accuracy,4,13,babble,,,babble-reversed_n13_p229-five-p256-one-p318-three-p248-nine-p268-four-p284-eight.wav,92.11702987341866,30,0.1440651835913519,8,RX81,9,0.0,0.0,10.0,0,0,8.997067448680353,2.109164237976074
0,,2024-06-27 15:21:54,sub_104,3,distance,cathedral,localisation_accuracy,4,14,babble,,,babble-reversed_n13_p307-five-p229-three-p318-nine-p245-four-p268-eight-p284-two.wav,86.41652925887095,30,0.31279748704263644,1,RX81,2,0.0,0.0,3.0,0,0,3.5718475073313787,3.2185492515563965
0,,2024-06-27 15:21:56,sub_104,3,distance,cathedral,localisation_accuracy,4,15,babble,,,babble-reversed_n13_p256-three-p318-one-p307-two-p284-nine-p268-four-p245-eight.wav,89.60202338151612,30,0.3874981613773517,4,RX81,5,0.0,0.0,6.0,0,0,5.624633431085044,1.5936336517333984
0,,2024-06-27 15:21:59,sub_104,3,distance,cathedral,localisation_accuracy,4,16,babble,,,babble-reversed_n13_p307-one-p318-five-p229-four-p268-eight-p284-two-p245-three.wav,90.56041722904575,30,0.3146386319341328,5,RX81,6,0.0,0.0,7.0,0,0,7.252199413489736,1.6873395442962646
0,,2024-06-27 15:22:02,sub_104,3,distance,cathedral,localisation_accuracy,4,17,babble,,,babble-reversed_n13_p229-five-p318-two-p307-eight-p268-three-p248-four-p245-one.wav,89.14859105890764,30,-0.0007465971998026344,3,RX81,4,0.0,0.0,5.0,0,0,5.2140762463343115,2.1404149532318115
0,,2024-06-27 15:22:06,sub_104,3,distance,cathedral,localisation_accuracy,4,18,babble,,,babble-reversed_n13_p229-three-p256-one-p307-two-p284-eight-p268-five-p248-nine.wav,93.16521073481161,30,0.23311549097198392,10,RX81,11,0.0,0.0,12.0,0,0,8.0,2.7341256141662598
0,,2024-06-27 15:22:09,sub_104,3,distance,cathedral,localisation_accuracy,4,19,babble,,,babble-reversed_n13_p318-nine-p256-five-p307-eight-p268-three-p248-one-p245-four.wav,91.39102460357732,30,-0.28075703467000857,6,RX81,7,0.0,0.0,8.0,0,0,9.187683284457478,1.6249077320098877
0,,2024-06-27 15:22:12,sub_104,3,distance,cathedral,localisation_accuracy,4,20,babble,,,babble-reversed_n13_p318-nine-p256-five-p307-eight-p268-three-p248-one-p245-four.wav,84.55141698350504,30,0.22476341106087683,0,RX81,1,0.0,0.0,2.0,0,0,3.3812316715542527,2.171663522720337
0,,2024-06-27 15:22:16,sub_104,3,distance,cathedral,localisation_accuracy,4,21,babble,,,babble-reversed_n13_p318-one-p307-two-p256-eight-p284-three-p248-five-p245-four.wav,91.59162265144278,30,-0.20181420887604729,7,RX81,8,0.0,0.0,9.0,0,0,8.29325513196481,2.468527317047119
0,,2024-06-27 15:22:20,sub_104,3,distance,cathedral,localisation_accuracy,4,22,babble,,,babble-reversed_n13_p229-nine-p318-one-p307-two-p248-eight-p245-five-p284-four.wav,87.63976300586438,30,0.10046089086633292,2,RX81,3,0.0,0.0,4.0,0,0,3.9530791788856305,3.312211513519287
0,,2024-06-27 15:22:23,sub_104,3,distance,cathedral,localisation_accuracy,4,23,babble,,,babble-reversed_n13_p318-three-p307-one-p256-five-p248-nine-p245-two-p284-eight.wav,92.14605309339441,30,0.19738543554339139,9,RX81,10,0.0,0.0,11.0,0,0,8.982404692082111,1.9217405319213867
0,,2024-06-27 15:22:27,sub_104,3,distance,cathedral,localisation_accuracy,4,24,babble,,,babble-reversed_n13_p318-five-p256-nine-p307-eight-p248-two-p245-four-p284-three.wav,86.24053540932044,30,0.053714398399051344,1,RX81,2,0.0,0.0,3.0,0,0,4.099706744868035,2.827866792678833
0,,2024-06-27 15:22:31,sub_104,3,distance,cathedral,localisation_accuracy,4,25,babble,,,babble-reversed_n13_p307-five-p229-three-p318-nine-p245-four-p268-eight-p284-two.wav,89.05647271876413,30,-0.34149131489630613,4,RX81,5,0.0,0.0,6.0,0,0,5.140762463343109,2.437276840209961
0,,2024-06-27 15:22:34,sub_104,3,distance,cathedral,localisation_accuracy,4,26,babble,,,babble-reversed_n13_p256-nine-p307-four-p229-one-p284-three-p248-two-p245-five.wav,91.95303576616296,30,0.2982676472611018,7,RX81,8,0.0,0.0,9.0,0,0,6.533724340175954,2.0935401916503906
0,,2024-06-27 15:22:37,sub_104,3,distance,cathedral,localisation_accuracy,4,27,babble,,,babble-reversed_n13_p256-eight-p318-two-p307-five-p245-four-p268-nine-p284-one.wav,91.87797998271424,30,0.4148462135223535,6,RX81,7,0.0,0.0,8.0,0,0,7.648093841642229,1.874854564666748
0,,2024-06-27 15:22:41,sub_104,3,distance,cathedral,localisation_accuracy,4,28,babble,,,babble-reversed_n13_p256-eight-p318-five-p307-four-p245-three-p268-one-p284-nine.wav,93.04171217685939,30,0.058651325102093144,10,RX81,11,0.0,0.0,12.0,0,0,9.480938416422289,2.531010150909424
0,,2024-06-27 15:22:45,sub_104,3,distance,cathedral,localisation_accuracy,4,29,babble,,,babble-reversed_n13_p229-three-p307-one-p318-two-p245-eight-p268-five-p284-four.wav,89.48170206565307,30,0.47748918382404304,3,RX81,4,0.0,0.0,5.0,0,0,5.17008797653959,2.9372782707214355
0,,2024-06-27 15:22:48,sub_104,3,distance,cathedral,localisation_accuracy,4,30,babble,,,babble-reversed_n13_p256-three-p318-two-p229-nine-p248-four-p284-one-p268-eight.wav,92.1280677634598,30,0.15973556892038698,8,RX81,9,0.0,0.0,10.0,0,0,10.038123167155426,2.359149694442749
0,,2024-06-27 15:22:52,sub_104,3,distance,cathedral,localisation_accuracy,4,31,babble,,,babble-reversed_n13_p256-five-p229-one-p318-three-p248-nine-p284-eight-p268-two.wav,90.42311181832716,30,0.11691927795929136,5,RX81,6,0.0,0.0,7.0,0,0,6.665689149560118,2.4528939723968506
0,,2024-06-27 15:22:55,sub_104,3,distance,cathedral,localisation_accuracy,4,32,babble,,,babble-reversed_n13_p256-nine-p307-four-p229-one-p284-three-p248-two-p245-five.wav,84.62912675899074,30,0.34137138766470654,0,RX81,1,0.0,0.0,2.0,0,0,5.023460410557185,1.9373228549957275
0,,2024-06-27 15:22:58,sub_104,3,distance,cathedral,localisation_accuracy,4,33,babble,,,babble-reversed_n13_p256-eight-p229-three-p307-nine-p245-five-p248-four-p268-two.wav,87.73405506471292,30,0.23775222555730235,2,RX81,3,0.0,0.0,4.0,0,0,6.533724340175954,2.1873059272766113
0,,2024-06-27 15:23:02,sub_104,3,distance,cathedral,localisation_accuracy,4,34,babble,,,babble-reversed_n13_p229-five-p256-one-p318-three-p248-nine-p268-four-p284-eight.wav,89.50100421997999,30,0.25117298081562034,4,RX81,5,0.0,0.0,6.0,0,0,8.131964809384165,2.7342092990875244
0,,2024-06-27 15:23:05,sub_104,3,distance,cathedral,localisation_accuracy,4,35,babble,,,babble-reversed_n13_p256-five-p307-nine-p318-three-p284-eight-p268-one-p248-two.wav,91.26608896407532,30,-0.456645282000509,6,RX81,7,0.0,0.0,8.0,0,0,9.085043988269796,1.8435561656951904
0,,2024-06-27 15:23:10,sub_104,3,distance,cathedral,localisation_accuracy,4,36,babble,,,babble-reversed_n13_p229-five-p318-three-p307-two-p245-four-p284-nine-p248-eight.wav,90.09040762354596,30,-0.35684206206339897,5,RX81,6,0.0,0.0,7.0,0,0,8.395894428152493,3.671579599380493
0,,2024-06-27 15:23:13,sub_104,3,distance,cathedral,localisation_accuracy,4,37,babble,,,babble-reversed_n13_p307-nine-p229-one-p256-eight-p248-four-p284-two-p268-three.wav,93.19391444314883,30,0.27380950950764127,10,RX81,11,0.0,0.0,12.0,0,0,10.111436950146627,1.9685702323913574
0,,2024-06-27 15:23:16,sub_104,3,distance,cathedral,localisation_accuracy,4,38,babble,,,babble-reversed_n13_p318-five-p256-nine-p307-two-p245-eight-p248-one-p284-four.wav,89.47567185162126,30,0.4687644239379447,3,RX81,4,0.0,0.0,5.0,0,0,6.299120234604105,2.0622951984405518
0,,2024-06-27 15:23:19,sub_104,3,distance,cathedral,localisation_accuracy,4,39,babble,,,babble-reversed_n13_p307-one-p318-five-p229-four-p268-eight-p284-two-p245-three.wav,91.65328467189102,30,-0.11708118935533818,7,RX81,8,0.0,0.0,9.0,0,0,8.161290322580646,2.031067132949829
0,,2024-06-27 15:23:23,sub_104,3,distance,cathedral,localisation_accuracy,4,40,babble,,,babble-reversed_n13_p318-five-p229-four-p256-eight-p284-one-p245-three-p248-two.wav,91.64747927054937,30,-0.49995685009825963,9,RX81,10,0.0,0.0,11.0,0,0,10.448680351906159,2.68725323677063
0,,2024-06-27 15:23:27,sub_104,3,distance,cathedral,localisation_accuracy,4,41,babble,,,babble-reversed_n13_p256-three-p318-one-p307-two-p284-nine-p268-four-p245-eight.wav,84.073753310585,30,-0.48221952887608743,0,RX81,1,0.0,0.0,2.0,0,0,3.909090909090909,2.6716296672821045
0,,2024-06-27 15:23:30,sub_104,3,distance,cathedral,localisation_accuracy,4,42,babble,,,babble-reversed_n13_p318-nine-p256-five-p307-eight-p268-three-p248-one-p245-four.wav,86.27528697350886,30,0.10469662152845993,1,RX81,2,0.0,0.0,3.0,0,0,4.964809384164223,2.1560580730438232
0,,2024-06-27 15:23:35,sub_104,3,distance,cathedral,localisation_accuracy,4,43,babble,,,babble-reversed_n13_p229-three-p256-one-p307-two-p284-eight-p268-five-p248-nine.wav,91.90438312728764,30,-0.15624298546230364,8,RX81,9,0.0,0.0,10.0,0,0,8.997067448680353,3.8278205394744873
0,,2024-06-27 15:23:39,sub_104,3,distance,cathedral,localisation_accuracy,4,44,babble,,,babble-reversed_n13_p256-eight-p229-three-p307-nine-p245-five-p248-four-p268-two.wav,93.13779064891392,30,0.19429238571785867,10,RX81,11,0.0,0.0,12.0,0,0,10.50733137829912,2.2185542583465576
0,,2024-06-27 15:23:42,sub_104,3,distance,cathedral,localisation_accuracy,4,45,babble,,,babble-reversed_n13_p318-one-p307-two-p256-eight-p284-three-p248-five-p245-four.wav,89.55932454924047,30,0.3298013658371235,4,RX81,5,0.0,0.0,6.0,0,0,6.196480938416423,2.6091339588165283
0,,2024-06-27 15:23:46,sub_104,3,distance,cathedral,localisation_accuracy,4,46,babble,,,babble-reversed_n13_p256-eight-p318-two-p307-five-p245-four-p268-nine-p284-one.wav,91.89908856205399,30,-0.16368188338850642,8,RX81,9,0.0,0.0,10.0,0,0,8.659824046920821,2.3903987407684326
0,,2024-06-27 15:23:49,sub_104,3,distance,cathedral,localisation_accuracy,4,47,babble,,,babble-reversed_n13_p229-two-p318-eight-p256-three-p268-one-p248-nine-p284-five.wav,86.38799534622706,30,0.2706411045665498,1,RX81,2,0.0,0.0,3.0,0,0,4.788856304985337,2.234178066253662
0,,2024-06-27 15:23:52,sub_104,3,distance,cathedral,localisation_accuracy,4,48,babble,,,babble-reversed_n13_p229-three-p307-one-p318-two-p245-eight-p268-five-p284-four.wav,89.19041574992731,30,0.05888524303802767,3,RX81,4,0.0,0.0,5.0,0,0,6.328445747800586,2.1247880458831787
0,,2024-06-27 15:23:56,sub_104,3,distance,cathedral,localisation_accuracy,4,49,babble,,,babble-reversed_n13_p229-five-p256-one-p318-three-p248-nine-p268-four-p284-eight.wav,91.90569203575262,30,0.45491824207942666,6,RX81,7,0.0,0.0,8.0,0,0,7.692082111436951,1.9998185634613037
0,,2024-06-27 15:23:59,sub_104,3,distance,cathedral,localisation_accuracy,4,50,babble,,,babble-reversed_n13_p256-five-p307-nine-p318-three-p284-eight-p268-one-p248-two.wav,87.56528940567094,30,-0.007533588491242527,2,RX81,3,0.0,0.0,4.0,0,0,5.683284457478006,2.0310440063476562
0,,2024-06-27 15:24:02,sub_104,3,distance,cathedral,localisation_accuracy,4,51,babble,,,babble-reversed_n13_p229-eight-p256-nine-p318-four-p245-three-p268-five-p284-two.wav,91.94611725494697,30,-0.08421786633638062,9,RX81,10,0.0,0.0,11.0,0,0,9.466275659824047,2.640378952026367
0,,2024-06-27 15:24:08,sub_104,3,distance,cathedral,localisation_accuracy,4,52,babble,,,babble-reversed_n13_p318-four-p256-five-p229-three-p284-one-p245-eight-p248-nine.wav,90.32407069937716,30,-0.024898550419535148,5,RX81,6,0.0,0.0,7.0,0,0,8.117302052785924,4.1402809619903564
0,,2024-06-27 15:24:11,sub_104,3,distance,cathedral,localisation_accuracy,4,53,babble,,,babble-reversed_n13_p307-five-p229-two-p318-four-p248-three-p245-nine-p268-eight.wav,92.0167133202932,30,0.38724294380727897,7,RX81,8,0.0,0.0,9.0,0,0,6.958944281524927,2.390418291091919
0,,2024-06-27 15:24:16,sub_104,3,distance,cathedral,localisation_accuracy,4,54,babble,,,babble-reversed_n13_p229-one-p318-nine-p256-four-p284-eight-p268-five-p245-two.wav,84.62366545952364,30,0.3331617173882513,0,RX81,1,0.0,0.0,2.0,0,0,3.5278592375366573,3.8746986389160156
