,event_id,subject_id,timestamp,session_index,plane,setup,task,block,trial_index,stim_number,stim_type,stim_country_ids,stim_sexes,stim_talker_ids,speaker_ids,stim_level,resp_number,is_correct,speaker_distance_mean,speaker_distance_st_dev,reaction_time,spectral_coverage
0,,101,2024-06-21 12:29:29,3,distance,cathedral,numerosity_judgement,99,0,4,countries_forward,"['_Oman_', '_Belgium_', '_Yemen_', '_Peru_']","['f', 'm', 'm', 'f']","['p248', 'p229', 'p256', 'p268']","[1, 2, 10, 3]","[86.2038576498559, 87.57049330475357, 93.00003341222717, 89.14911522239515]",3,False,6.0,4.08248290463863,16.030155658721924,0.769424582907729
0,,101,2024-06-21 12:29:35,3,distance,cathedral,numerosity_judgement,99,1,6,countries_forward,"['_Syria_', '_Peru_', '_Yemen_', '_Sudan_', '_Togo_', '_Congo_']","['f', 'm', 'f', 'f', 'm', 'm']","['p248', 'p229', 'p284', 'p268', 'p307', 'p318']","[6, 5, 7, 2, 4, 1]","[91.58892582949886, 90.34149293193902, 91.73820004985969, 87.57049330475357, 89.31368318402099, 86.2038576498559]",6,True,6.166666666666667,2.316606713852541,3.4216415882110596,0.8665758710702531
0,,101,2024-06-21 12:29:39,3,distance,cathedral,numerosity_judgement,99,2,3,countries_forward,"['_Britain_', '_Syria_', '_Congo_']","['m', 'f', 'm']","['p307', 'p245', 'p229']","[2, 8, 0]","[87.57049330475357, 92.0152836843556, 84.40078082039426]",3,True,5.333333333333333,4.163331998932266,2.546701669692993,0.9132221087277268
0,,101,2024-06-21 12:29:44,3,distance,cathedral,numerosity_judgement,99,3,5,countries_forward,"['_Oman_', '_Togo_', '_Congo_', '_Tonga_', '_Yemen_']","['m', 'm', 'm', 'f', 'm']","['p229', 'p256', 'p307', 'p268', 'p318']","[3, 0, 5, 2, 7]","[89.14911522239515, 84.40078082039426, 90.34149293193902, 87.57049330475357, 91.73820004985969]",5,True,5.4,2.701851217221259,2.1717262268066406,0.7775961865849507
0,,101,2024-06-21 12:29:48,3,distance,cathedral,numerosity_judgement,99,4,2,countries_forward,"['_Britain_', '_Yemen_']","['f', 'm']","['p245', 'p307']","[3, 8]","[89.14911522239515, 92.0152836843556]",2,True,7.5,3.5355339059327378,2.202974319458008,0.5798206786970832
0,,101,2024-06-21 12:29:52,3,distance,cathedral,numerosity_judgement,99,5,5,countries_forward,"['_Syria_', '_Togo_', '_Peru_', '_Mali_', '_Belgium_']","['m', 'f', 'f', 'm', 'f']","['p229', 'p268', 'p245', 'p307', 'p284']","[9, 1, 0, 2, 7]","[92.00610777531934, 86.2038576498559, 84.40078082039426, 87.57049330475357, 91.73820004985969]",5,True,5.8,3.96232255123179,2.3435897827148438,0.938883214164113
0,,101,2024-06-21 12:29:57,3,distance,cathedral,numerosity_judgement,99,6,2,countries_forward,"['_Cuba_', '_Togo_']","['m', 'f']","['p229', 'p245']","[0, 1]","[84.40078082039426, 86.2038576498559]",2,True,2.5,0.7071067811865476,2.296719789505005,0.9433662467370332
0,,101,2024-06-21 12:30:01,3,distance,cathedral,numerosity_judgement,99,7,3,countries_forward,"['_Sudan_', '_Yemen_', '_Britain_']","['f', 'm', 'm']","['p248', 'p307', 'p256']","[2, 8, 5]","[87.57049330475357, 92.0152836843556, 90.34149293193902]",5,False,7.0,3.0,2.3904619216918945,0.6826807399841107
0,,101,2024-06-21 12:30:06,3,distance,cathedral,numerosity_judgement,99,8,6,countries_forward,"['_Oman_', '_Belgium_', '_Japan_', '_Tonga_', '_Congo_', '_Togo_']","['m', 'f', 'f', 'f', 'm', 'm']","['p307', 'p248', 'p284', 'p245', 'p256', 'p229']","[0, 9, 8, 1, 4, 7]","[84.40078082039426, 92.00610777531934, 92.0152836843556, 86.2038576498559, 89.31368318402099, 91.73820004985969]",2,False,6.833333333333333,3.763863263545405,2.906052350997925,0.9315741686528204
0,,101,2024-06-21 12:30:14,3,distance,cathedral,numerosity_judgement,99,9,4,countries_forward,"['_Cuba_', '_Belgium_', '_Yemen_', '_Oman_']","['f', 'm', 'f', 'm']","['p245', 'p229', 'p248', 'p318']","[1, 9, 10, 7]","[86.2038576498559, 92.00610777531934, 93.00003341222717, 91.73820004985969]",2,False,8.75,4.031128874149275,5.1246514320373535,0.8298490523209624
0,,101,2024-06-21 12:31:29,3,distance,cathedral,numerosity_judgement,99,0,4,countries_forward,"['_Britain_', '_Cuba_', '_Peru_', '_Japan_']","['m', 'm', 'f', 'f']","['p229', 'p307', 'p284', 'p245']","[5, 1, 7, 4]","[90.34149293193902, 86.2038576498559, 91.73820004985969, 89.31368318402099]",3.0,False,6.25,2.5,14.561505794525146,0.8685052774940415
0,,101,2024-06-21 12:31:32,3,distance,cathedral,numerosity_judgement,99,1,6,countries_forward,"['_Congo_', '_Peru_', '_Syria_', '_Sudan_', '_Belgium_', '_Oman_']","['f', 'm', 'f', 'm', 'm', 'f']","['p268', 'p256', 'p248', 'p229', 'p318', 'p245']","[5, 4, 2, 7, 3, 1]","[90.34149293193902, 89.31368318402099, 87.57049330475357, 91.73820004985969, 89.14911522239515, 86.2038576498559]",4.0,False,5.666666666666667,2.160246899469287,0.07811999320983887,0.8933946203609126
0,,101,2024-06-21 12:31:49,3,distance,cathedral,numerosity_judgement,99,2,3,countries_forward,"['_Oman_', '_Cuba_', '_Yemen_']","['m', 'm', 'm']","['p307', 'p318', 'p256']","[5, 2, 9]","[90.34149293193902, 87.57049330475357, 92.00610777531934]",2.0,False,7.333333333333333,3.5118845842842465,15.530188798904419,0.641913517194416
0,,101,2024-06-21 12:31:52,3,distance,cathedral,numerosity_judgement,99,3,5,countries_forward,"['_Peru_', '_Togo_', '_Japan_', '_Oman_', '_Cuba_']","['m', 'm', 'f', 'm', 'f']","['p307', 'p229', 'p248', 'p256', 'p245']","[6, 7, 0, 8, 5]","[91.58892582949886, 91.73820004985969, 84.40078082039426, 92.0152836843556, 90.34149293193902]",4.0,False,7.2,3.1144823004794877,0.2656090259552002,0.6893428668709568
0,,101,2024-06-21 12:32:47,3,distance,cathedral,numerosity_judgement,99,0,4,countries_forward,"['_Mali_', '_Yemen_', '_Syria_', '_Tonga_']","['m', 'm', 'f', 'f']","['p229', 'p318', 'p248', 'p245']","[8, 0, 10, 1]","[92.0152836843556, 84.40078082039426, 93.00003341222717, 86.2038576498559]",5.0,False,6.75,4.9916597106239795,1.999861717224121,0.936749517648394
0,,101,2024-06-21 12:32:50,3,distance,cathedral,numerosity_judgement,99,1,5,countries_forward,"['_Japan_', '_Britain_', '_Tonga_', '_Mali_', '_Peru_']","['f', 'f', 'm', 'f', 'm']","['p268', 'p245', 'p307', 'p248', 'p229']","[3, 5, 2, 8, 4]","[89.14911522239515, 90.34149293193902, 87.57049330475357, 92.0152836843556, 89.31368318402099]",3.0,False,6.4,2.3021728866442674,1.2655389308929443,0.7871410736579276
0,,101,2024-06-21 12:32:54,3,distance,cathedral,numerosity_judgement,99,2,2,countries_forward,"['_Mali_', '_Belgium_']","['m', 'm']","['p256', 'p318']","[8, 9]","[92.0152836843556, 92.00610777531934]",5.0,False,10.5,0.7071067811865476,1.9373664855957031,0.8195664510271252
0,,101,2024-06-21 12:32:58,3,distance,cathedral,numerosity_judgement,99,3,3,countries_forward,"['_Congo_', '_Sudan_', '_Yemen_']","['m', 'm', 'm']","['p307', 'p229', 'p318']","[9, 7, 6]","[92.00610777531934, 91.73820004985969, 91.58892582949886]",2.0,False,9.333333333333334,1.5275252316519468,1.8279995918273926,0.8988310066961752
0,,101,2024-06-21 12:33:03,3,distance,cathedral,numerosity_judgement,99,4,6,countries_forward,"['_Syria_', '_Tonga_', '_Yemen_', '_Oman_', '_Sudan_', '_Mali_']","['m', 'm', 'f', 'm', 'f', 'm']","['p256', 'p229', 'p284', 'p307', 'p268', 'p318']","[1, 0, 4, 7, 3, 6]","[86.2038576498559, 84.40078082039426, 89.31368318402099, 91.73820004985969, 89.14911522239515, 91.58892582949886]",3.0,False,5.5,2.7386127875258306,1.9217417240142822,0.8914992622857791
0,,101,2024-06-21 12:33:06,3,distance,cathedral,numerosity_judgement,99,5,4,countries_forward,"['_Peru_', '_Togo_', '_Britain_', '_Yemen_']","['f', 'm', 'm', 'f']","['p245', 'p307', 'p229', 'p268']","[9, 7, 4, 10]","[92.00610777531934, 91.73820004985969, 89.31368318402099, 93.00003341222717]",2.0,False,9.5,2.6457513110645907,1.7655045986175537,0.7637498581318806
0,,101,2024-06-21 12:33:11,3,distance,cathedral,numerosity_judgement,99,6,2,countries_forward,"['_Peru_', '_Mali_']","['m', 'm']","['p229', 'p318']","[1, 0]","[86.2038576498559, 84.40078082039426]",3.0,False,2.5,0.7071067811865476,2.2967183589935303,0.9145272954261718
0,,101,2024-06-21 12:33:15,3,distance,cathedral,numerosity_judgement,99,7,5,countries_forward,"['_Syria_', '_Togo_', '_Belgium_', '_Sudan_', '_Oman_']","['m', 'f', 'f', 'f', 'f']","['p307', 'p245', 'p268', 'p284', 'p248']","[1, 2, 8, 10, 9]","[86.2038576498559, 87.57049330475357, 92.0152836843556, 93.00003341222717, 92.00610777531934]",5.0,True,8.0,4.183300132670378,1.8280000686645508,0.933231188287368
0,,101,2024-06-21 12:33:18,3,distance,cathedral,numerosity_judgement,99,8,6,countries_forward,"['_Mali_', '_Peru_', '_Cuba_', '_Belgium_', '_Syria_', '_Oman_']","['m', 'm', 'm', 'f', 'f', 'f']","['p256', 'p307', 'p229', 'p284', 'p245', 'p268']","[9, 6, 8, 5, 4, 2]","[92.00610777531934, 91.58892582949886, 92.0152836843556, 90.34149293193902, 89.31368318402099, 87.57049330475357]",2.0,False,7.666666666666667,2.581988897471611,1.2967865467071533,0.7968675519237317
0,,101,2024-06-21 12:34:51,3,distance,cathedral,numerosity_judgement,99,0,5,countries_forward,"['_Congo_', '_Japan_', '_Sudan_', '_Syria_', '_Peru_']","['m', 'm', 'f', 'f', 'm']","['p318', 'p229', 'p245', 'p248', 'p307']","[1, 8, 2, 4, 5]","[86.2038576498559, 92.0152836843556, 87.57049330475357, 89.31368318402099, 90.34149293193902]",3.0,False,6.0,2.7386127875258306,2.1560986042022705,0.9154239019407558
0,,101,2024-06-21 12:34:55,3,distance,cathedral,numerosity_judgement,99,1,6,countries_forward,"['_Japan_', '_Britain_', '_Yemen_', '_Togo_', '_Cuba_', '_Syria_']","['m', 'f', 'f', 'f', 'm', 'm']","['p229', 'p245', 'p268', 'p284', 'p307', 'p256']","[4, 3, 5, 1, 0, 7]","[89.31368318402099, 89.14911522239515, 90.34149293193902, 86.2038576498559, 84.40078082039426, 91.73820004985969]",2.0,False,5.333333333333333,2.581988897471611,0.8124432563781738,0.7602655771195097
0,,101,2024-06-21 12:34:59,3,distance,cathedral,numerosity_judgement,99,2,2,countries_forward,"['_Yemen_', '_Cuba_']","['f', 'f']","['p248', 'p268']","[4, 5]","[89.31368318402099, 90.34149293193902]",2.0,True,6.5,0.7071067811865476,1.999863624572754,0.6571104301441381
0,,101,2024-06-21 12:35:03,3,distance,cathedral,numerosity_judgement,99,3,4,countries_forward,"['_Togo_', '_Cuba_', '_Congo_', '_Yemen_']","['f', 'f', 'm', 'm']","['p268', 'p245', 'p318', 'p229']","[1, 5, 2, 0]","[86.2038576498559, 90.34149293193902, 87.57049330475357, 84.40078082039426]",4.0,True,4.0,2.160246899469287,1.4686496257781982,0.7917262512768131
0,,101,2024-06-21 12:35:08,3,distance,cathedral,numerosity_judgement,99,4,3,countries_forward,"['_Congo_', '_Tonga_', '_Syria_']","['f', 'm', 'f']","['p245', 'p229', 'p268']","[4, 7, 5]","[89.31368318402099, 91.73820004985969, 90.34149293193902]",2.0,False,7.333333333333333,1.5275252316519465,2.593571901321411,0.8829531267733515
0,,101,2024-06-21 12:35:12,3,distance,cathedral,numerosity_judgement,99,5,5,countries_forward,"['_Peru_', '_Yemen_', '_Syria_', '_Tonga_', '_Belgium_']","['f', 'f', 'f', 'm', 'm']","['p245', 'p248', 'p284', 'p256', 'p307']","[6, 5, 8, 10, 7]","[91.58892582949886, 90.34149293193902, 92.0152836843556, 93.00003341222717, 91.73820004985969]",3.0,False,9.2,1.9235384061671346,1.0624265670776367,0.8523550107819771
0,,101,2024-06-21 12:36:08,3,distance,cathedral,numerosity_judgement,99,0,2,countries_forward,"['_Yemen_', '_Peru_']","['f', 'm']","['p268', 'p307']","[6, 3]","[91.58892582949886, 89.14911522239515]",2.0,True,6.5,2.1213203435596424,1.5155224800109863,0.6054023379866077
0,,101,2024-06-21 12:36:12,3,distance,cathedral,numerosity_judgement,99,1,3,countries_forward,"['_Peru_', '_Cuba_', '_Oman_']","['f', 'm', 'm']","['p245', 'p307', 'p256']","[6, 4, 8]","[91.58892582949886, 89.31368318402099, 92.0152836843556]",2.0,False,8.0,2.0,1.9373681545257568,0.6717966178640336
0,,101,2024-06-21 12:36:17,3,distance,cathedral,numerosity_judgement,99,2,6,countries_forward,"['_Togo_', '_Oman_', '_Sudan_', '_Britain_', '_Peru_', '_Mali_']","['m', 'f', 'm', 'f', 'f', 'm']","['p229', 'p284', 'p318', 'p248', 'p245', 'p256']","[6, 3, 4, 1, 5, 7]","[91.58892582949886, 89.14911522239515, 89.31368318402099, 86.2038576498559, 90.34149293193902, 91.73820004985969]",3.0,False,6.333333333333333,2.160246899469287,1.8123745918273926,0.7633299284984678
0,,101,2024-06-21 12:36:21,3,distance,cathedral,numerosity_judgement,99,3,5,countries_forward,"['_Cuba_', '_Yemen_', '_Congo_', '_Mali_', '_Japan_']","['f', 'f', 'f', 'm', 'm']","['p245', 'p284', 'p268', 'p318', 'p256']","[0, 5, 10, 7, 8]","[84.40078082039426, 90.34149293193902, 93.00003341222717, 91.73820004985969, 92.0152836843556]",4.0,False,8.0,3.8078865529319543,1.4530251026153564,0.8015321756894791
0,,101,2024-06-21 12:36:26,3,distance,cathedral,numerosity_judgement,99,4,4,countries_forward,"['_Yemen_', '_Congo_', '_Japan_', '_Sudan_']","['m', 'm', 'f', 'f']","['p318', 'p307', 'p284', 'p245']","[7, 2, 10, 3]","[91.73820004985969, 87.57049330475357, 93.00003341222717, 89.14911522239515]",5.0,False,7.5,3.696845502136472,2.4176173210144043,0.8673249347406651
0,,101,2024-06-21 12:36:31,3,distance,cathedral,numerosity_judgement,99,5,5,countries_forward,"['_Togo_', '_Congo_', '_Syria_', '_Mali_', '_Belgium_']","['m', 'f', 'f', 'm', 'f']","['p307', 'p284', 'p268', 'p229', 'p245']","[1, 2, 9, 5, 3]","[86.2038576498559, 87.57049330475357, 92.00610777531934, 90.34149293193902, 89.14911522239515]",3.0,False,6.0,3.1622776601683795,1.601790189743042,0.9520485756440812
0,,101,2024-06-21 12:36:36,3,distance,cathedral,numerosity_judgement,99,6,6,countries_forward,"['_Cuba_', '_Togo_', '_Yemen_', '_Japan_', '_Britain_', '_Belgium_']","['f', 'm', 'f', 'f', 'f', 'm']","['p248', 'p256', 'p268', 'p284', 'p245', 'p307']","[4, 10, 9, 0, 1, 7]","[89.31368318402099, 93.00003341222717, 92.00610777531934, 84.40078082039426, 86.2038576498559, 91.73820004985969]",2.0,False,7.166666666666667,4.167333280008532,1.9533965587615967,0.7522415162864601
0,,101,2024-06-21 12:36:39,3,distance,cathedral,numerosity_judgement,99,7,2,countries_forward,"['_Yemen_', '_Oman_']","['m', 'm']","['p256', 'p307']","[0, 7]","[84.40078082039426, 91.73820004985969]",2.0,True,5.5,4.949747468305833,1.2735862731933594,0.6244126659856997
0,,101,2024-06-21 12:36:44,3,distance,cathedral,numerosity_judgement,99,8,4,countries_forward,"['_Tonga_', '_Sudan_', '_Togo_', '_Congo_']","['m', 'f', 'm', 'f']","['p229', 'p284', 'p256', 'p245']","[8, 4, 3, 6]","[92.0152836843556, 89.31368318402099, 89.14911522239515, 91.58892582949886]",2.0,False,7.25,2.217355782608345,1.8595983982086182,0.8961184882533197
0,,101,2024-06-21 12:36:48,3,distance,cathedral,numerosity_judgement,99,9,3,countries_forward,"['_Oman_', '_Peru_', '_Congo_']","['m', 'm', 'm']","['p229', 'p256', 'p307']","[0, 5, 3]","[84.40078082039426, 90.34149293193902, 89.14911522239515]",3.0,True,4.666666666666667,2.516611478423583,1.5936436653137207,0.7159119282714789
0,,101,2024-06-21 12:36:52,3,distance,cathedral,numerosity_judgement,99,10,2,countries_forward,"['_Peru_', '_Oman_']","['f', 'm']","['p245', 'p318']","[3, 5]","[89.14911522239515, 90.34149293193902]",3.0,False,6.0,1.4142135623730951,1.3905320167541504,0.7718874134604472
0,,101,2024-06-21 12:36:56,3,distance,cathedral,numerosity_judgement,99,11,4,countries_forward,"['_Oman_', '_Yemen_', '_Mali_', '_Tonga_']","['m', 'm', 'f', 'm']","['p307', 'p256', 'p248', 'p318']","[5, 3, 8, 1]","[90.34149293193902, 89.14911522239515, 92.0152836843556, 86.2038576498559]",2.0,False,6.25,2.9860788111948193,1.7030103206634521,0.6610600385881285
0,,101,2024-06-21 12:37:00,3,distance,cathedral,numerosity_judgement,99,12,6,countries_forward,"['_Sudan_', '_Cuba_', '_Yemen_', '_Tonga_', '_Syria_', '_Peru_']","['m', 'f', 'm', 'f', 'f', 'm']","['p229', 'p268', 'p307', 'p248', 'p284', 'p318']","[9, 0, 5, 6, 10, 1]","[92.00610777531934, 84.40078082039426, 90.34149293193902, 91.58892582949886, 93.00003341222717, 86.2038576498559]",3.0,False,7.166666666666667,4.070217029430577,1.0219852924346924,0.9406196799455226
0,,101,2024-06-21 12:37:04,3,distance,cathedral,numerosity_judgement,99,13,3,countries_forward,"['_Peru_', '_Congo_', '_Tonga_']","['m', 'm', 'f']","['p318', 'p229', 'p248']","[3, 6, 9]","[89.14911522239515, 91.58892582949886, 92.00610777531934]",2.0,False,8.0,3.0,1.4820139408111572,0.7799455226421519
0,,101,2024-06-21 12:37:08,3,distance,cathedral,numerosity_judgement,99,14,5,countries_forward,"['_Oman_', '_Togo_', '_Japan_', '_Syria_', '_Peru_']","['m', 'm', 'm', 'f', 'f']","['p318', 'p256', 'p307', 'p284', 'p268']","[7, 4, 10, 0, 1]","[91.73820004985969, 89.31368318402099, 93.00003341222717, 84.40078082039426, 86.2038576498559]",2.0,False,6.4,4.159326868617084,1.140547513961792,0.8790716150266712
0,,101,2024-06-21 12:37:13,3,distance,cathedral,numerosity_judgement,99,15,3,countries_forward,"['_Oman_', '_Peru_', '_Mali_']","['m', 'f', 'f']","['p256', 'p268', 'p248']","[7, 4, 6]","[91.73820004985969, 89.31368318402099, 91.58892582949886]",3.0,True,7.666666666666667,1.5275252316519465,1.5623929500579834,0.6973215299057995
0,,101,2024-06-21 12:37:17,3,distance,cathedral,numerosity_judgement,99,16,6,countries_forward,"['_Togo_', '_Oman_', '_Mali_', '_Cuba_', '_Yemen_', '_Britain_']","['m', 'f', 'm', 'm', 'f', 'f']","['p307', 'p284', 'p318', 'p229', 'p248', 'p245']","[6, 1, 5, 2, 10, 7]","[91.58892582949886, 86.2038576498559, 90.34149293193902, 87.57049330475357, 93.00003341222717, 91.73820004985969]",3.0,False,7.166666666666667,3.3115957885386114,1.9373688697814941,0.7023379866076496
0,,101,2024-06-21 12:37:22,3,distance,cathedral,numerosity_judgement,99,17,5,countries_forward,"['_Togo_', '_Peru_', '_Britain_', '_Oman_', '_Mali_']","['f', 'm', 'f', 'm', 'f']","['p284', 'p229', 'p245', 'p307', 'p268']","[10, 6, 7, 5, 9]","[93.00003341222717, 91.58892582949886, 91.73820004985969, 90.34149293193902, 92.00610777531934]",5.0,True,9.4,2.073644135332772,2.3123421669006348,0.7569401884008625
0,,101,2024-06-21 12:37:26,3,distance,cathedral,numerosity_judgement,99,18,2,countries_forward,"['_Belgium_', '_Tonga_']","['m', 'm']","['p318', 'p229']","[1, 0]","[86.2038576498559, 84.40078082039426]",2.0,True,2.5,0.7071067811865476,1.5155208110809326,0.9440812620587902
0,,101,2024-06-21 12:37:31,3,distance,cathedral,numerosity_judgement,99,19,4,countries_forward,"['_Tonga_', '_Syria_', '_Sudan_', '_Cuba_']","['f', 'f', 'm', 'm']","['p268', 'p284', 'p307', 'p229']","[3, 2, 7, 1]","[89.14911522239515, 87.57049330475357, 91.73820004985969, 86.2038576498559]",3.0,False,5.25,2.6299556396765835,1.3575079441070557,0.8875723527408921
0,,101,2024-06-21 12:37:35,3,distance,cathedral,numerosity_judgement,99,20,3,countries_forward,"['_Congo_', '_Mali_', '_Oman_']","['m', 'f', 'm']","['p256', 'p248', 'p307']","[7, 2, 9]","[91.73820004985969, 87.57049330475357, 92.00610777531934]",3.0,True,8.0,3.605551275463989,1.4172725677490234,0.6561457269322438
0,,101,2024-06-21 12:37:38,3,distance,cathedral,numerosity_judgement,99,21,5,countries_forward,"['_Peru_', '_Cuba_', '_Sudan_', '_Britain_', '_Syria_']","['m', 'm', 'f', 'f', 'm']","['p318', 'p256', 'p268', 'p284', 'p307']","[3, 10, 5, 4, 6]","[89.14911522239515, 93.00003341222717, 90.34149293193902, 89.31368318402099, 91.58892582949886]",2.0,False,7.6,2.701851217221259,0.8749401569366455,0.8559641357394167
0,,101,2024-06-21 12:37:42,3,distance,cathedral,numerosity_judgement,99,22,2,countries_forward,"['_Togo_', '_Britain_']","['m', 'm']","['p318', 'p229']","[7, 3]","[91.73820004985969, 89.14911522239515]",3.0,False,7.0,2.8284271247461903,1.5311448574066162,0.8452956531608217
0,,101,2024-06-21 12:37:52,3,distance,cathedral,numerosity_judgement,99,23,6,countries_forward,"['_Britain_', '_Belgium_', '_Syria_', '_Mali_', '_Togo_', '_Peru_']","['f', 'f', 'm', 'f', 'm', 'f']","['p268', 'p284', 'p256', 'p245', 'p318', 'p248']","[5, 6, 2, 8, 7, 4]","[90.34149293193902, 91.58892582949886, 87.57049330475357, 92.0152836843556, 91.73820004985969, 89.31368318402099]",2.0,False,7.333333333333333,2.160246899469287,6.953916311264038,0.8856883441153104
0,,101,2024-06-21 12:37:56,3,distance,cathedral,numerosity_judgement,99,24,4,countries_forward,"['_Yemen_', '_Cuba_', '_Belgium_', '_Congo_']","['f', 'f', 'm', 'm']","['p248', 'p268', 'p307', 'p318']","[5, 2, 10, 8]","[90.34149293193902, 87.57049330475357, 93.00003341222717, 92.0152836843556]",2.0,False,8.25,3.5,1.7389092445373535,0.7841107706276246
0,,101,2024-06-21 12:38:01,3,distance,cathedral,numerosity_judgement,99,25,6,countries_forward,"['_Yemen_', '_Peru_', '_Sudan_', '_Japan_', '_Oman_', '_Togo_']","['f', 'm', 'm', 'f', 'm', 'm']","['p284', 'p307', 'p256', 'p268', 'p229', 'p318']","[2, 9, 7, 6, 4, 0]","[87.57049330475357, 92.00610777531934, 91.73820004985969, 91.58892582949886, 89.31368318402099, 84.40078082039426]",3.0,False,6.666666666666667,3.32665998663324,2.2451624870300293,0.7453637498581319
0,,101,2024-06-21 12:38:05,3,distance,cathedral,numerosity_judgement,99,26,3,countries_forward,"['_Togo_', '_Yemen_', '_Britain_']","['f', 'f', 'm']","['p284', 'p248', 'p256']","[0, 9, 2]","[84.40078082039426, 92.00610777531934, 87.57049330475357]",2.0,False,5.666666666666667,4.725815626252608,1.5295450687408447,0.73899670865963
0,,101,2024-06-21 12:38:10,3,distance,cathedral,numerosity_judgement,99,27,2,countries_forward,"['_Congo_', '_Belgium_']","['f', 'f']","['p284', 'p248']","[8, 7]","[92.0152836843556, 91.73820004985969]",2.0,True,9.5,0.7071067811865476,2.000911235809326,0.8964930200885257
0,,101,2024-06-21 12:38:15,3,distance,cathedral,numerosity_judgement,99,28,5,countries_forward,"['_Congo_', '_Syria_', '_Sudan_', '_Mali_', '_Yemen_']","['f', 'f', 'm', 'f', 'm']","['p268', 'p248', 'p229', 'p284', 'p318']","[10, 0, 9, 4, 1]","[93.00003341222717, 84.40078082039426, 92.00610777531934, 89.31368318402099, 86.2038576498559]",4.0,False,6.8,4.54972526643093,2.2351367473602295,0.9440018159119282
0,,101,2024-06-21 12:38:19,3,distance,cathedral,numerosity_judgement,99,29,4,countries_forward,"['_Sudan_', '_Belgium_', '_Syria_', '_Tonga_']","['f', 'm', 'f', 'f']","['p284', 'p229', 'p245', 'p268']","[8, 5, 3, 2]","[92.0152836843556, 90.34149293193902, 89.14911522239515, 87.57049330475357]",3.0,False,6.5,2.6457513110645907,1.5457284450531006,0.930802406083305
0,,101,2024-06-21 12:38:23,3,distance,cathedral,numerosity_judgement,99,30,2,countries_forward,"['_Togo_', '_Syria_']","['m', 'f']","['p318', 'p268']","[8, 9]","[92.0152836843556, 92.00610777531934]",2.0,True,10.5,0.7071067811865476,1.890495777130127,0.8800703665872205
0,,101,2024-06-21 12:38:29,3,distance,cathedral,numerosity_judgement,99,31,5,countries_forward,"['_Cuba_', '_Congo_', '_Sudan_', '_Peru_', '_Oman_']","['m', 'm', 'm', 'f', 'm']","['p229', 'p307', 'p256', 'p248', 'p318']","[7, 2, 5, 6, 1]","[91.73820004985969, 87.57049330475357, 90.34149293193902, 91.58892582949886, 86.2038576498559]",3.0,False,6.2,2.588435821108957,2.1092286109924316,0.7741005561230281
0,,101,2024-06-21 12:38:32,3,distance,cathedral,numerosity_judgement,99,32,3,countries_forward,"['_Tonga_', '_Cuba_', '_Yemen_']","['f', 'm', 'm']","['p268', 'p318', 'p256']","[3, 2, 7]","[89.14911522239515, 87.57049330475357, 91.73820004985969]",5.0,False,6.0,2.6457513110645907,1.171797275543213,0.6928384973328794
0,,101,2024-06-21 12:38:38,3,distance,cathedral,numerosity_judgement,99,33,6,countries_forward,"['_Mali_', '_Japan_', '_Belgium_', '_Syria_', '_Yemen_', '_Cuba_']","['f', 'm', 'f', 'f', 'm', 'f']","['p248', 'p318', 'p284', 'p245', 'p307', 'p268']","[3, 1, 5, 9, 7, 6]","[89.14911522239515, 86.2038576498559, 90.34149293193902, 92.00610777531934, 91.73820004985969, 91.58892582949886]",5.0,False,7.166666666666667,2.857738033247041,2.890429735183716,0.8747815230961299
0,,101,2024-06-21 12:38:43,3,distance,cathedral,numerosity_judgement,99,34,4,countries_forward,"['_Peru_', '_Japan_', '_Oman_', '_Sudan_']","['f', 'f', 'm', 'f']","['p248', 'p245', 'p307', 'p284']","[1, 9, 4, 10]","[86.2038576498559, 92.00610777531934, 89.31368318402099, 93.00003341222717]",2.0,False,8.0,4.242640687119285,1.8280012607574463,0.8806378390648053
0,,101,2024-06-21 12:38:48,3,distance,cathedral,numerosity_judgement,99,35,6,countries_forward,"['_Belgium_', '_Mali_', '_Yemen_', '_Syria_', '_Cuba_', '_Congo_']","['f', 'f', 'm', 'm', 'f', 'f']","['p245', 'p268', 'p318', 'p229', 'p248', 'p284']","[1, 7, 10, 6, 0, 5]","[86.2038576498559, 91.73820004985969, 93.00003341222717, 91.58892582949886, 84.40078082039426, 90.34149293193902]",3.0,False,6.833333333333333,3.763863263545405,2.3279664516448975,0.8977187606401089
0,,101,2024-06-21 12:39:02,3,distance,cathedral,numerosity_judgement,99,36,2,countries_forward,"['_Peru_', '_Oman_']","['f', 'm']","['p248', 'p307']","[2, 6]","[87.57049330475357, 91.58892582949886]",2.0,True,6.0,2.8284271247461903,11.422855138778687,0.6570990806945863
0,,101,2024-06-24 08:26:16,3,distance,cathedral,numerosity_judgement,99,0,2,countries_forward,"['_Oman_', '_Yemen_']","['m', 'm']","['p318', 'p256']","[2, 9]","[87.57049330475357, 92.00610777531934]",2.0,True,7.5,4.949747468305833,4.187210321426392,0.6811939620928384
0,,101,2024-06-24 08:26:24,3,distance,cathedral,numerosity_judgement,99,1,2,countries_forward,"['_Oman_', '_Britain_']","['f', 'm']","['p248', 'p229']","[3, 2]","[89.14911522239515, 87.57049330475357]",2.0,True,4.5,0.7071067811865476,5.812161922454834,0.7311655884689593
0,,101,2024-06-24 08:27:16,3,distance,cathedral,numerosity_judgement,99,2,2,countries_forward,"['_Yemen_', '_Peru_']","['f', 'm']","['p268', 'p307']","[6, 3]","[91.58892582949886, 89.14911522239515]",2.0,True,6.5,2.1213203435596424,49.12428069114685,0.6054023379866077
0,,101,2024-06-24 08:27:20,3,distance,cathedral,numerosity_judgement,99,3,2,countries_forward,"['_Mali_', '_Congo_']","['m', 'f']","['p256', 'p245']","[4, 0]","[89.31368318402099, 84.40078082039426]",2.0,True,4.0,2.8284271247461903,1.4997971057891846,0.8167858358869595
0,,101,2024-06-24 08:27:24,3,distance,cathedral,numerosity_judgement,99,4,2,countries_forward,"['_Congo_', '_Belgium_']","['f', 'f']","['p284', 'p248']","[10, 2]","[93.00003341222717, 87.57049330475357]",2.0,True,8.0,5.656854249492381,1.9373657703399658,0.9280331403926908
0,,101,2024-06-24 08:27:28,3,distance,cathedral,numerosity_judgement,99,5,2,countries_forward,"['_Peru_', '_Belgium_']","['m', 'm']","['p256', 'p229']","[9, 5]","[92.00610777531934, 90.34149293193902]",2.0,True,9.0,2.8284271247461903,1.4373998641967773,0.7986040177051413
0,,101,2024-06-24 08:27:32,3,distance,cathedral,numerosity_judgement,99,6,2,countries_forward,"['_Oman_', '_Congo_']","['m', 'm']","['p307', 'p318']","[3, 1]","[89.14911522239515, 86.2038576498559]",2.0,True,4.0,1.4142135623730951,1.440462350845337,0.6282828282828283
0,,101,2024-06-24 08:27:37,3,distance,cathedral,numerosity_judgement,99,7,2,countries_forward,"['_Mali_', '_Britain_']","['m', 'm']","['p307', 'p256']","[8, 2]","[92.0152836843556, 87.57049330475357]",2.0,True,7.0,4.242640687119285,2.1874377727508545,0.7518102372034956
0,,101,2024-06-24 08:27:41,3,distance,cathedral,numerosity_judgement,99,8,2,countries_forward,"['_Syria_', '_Britain_']","['f', 'f']","['p284', 'p245']","[9, 2]","[92.00610777531934, 87.57049330475357]",2.0,True,7.5,4.949747468305833,1.3763906955718994,0.930802406083305
0,,101,2024-06-24 08:27:50,3,distance,cathedral,numerosity_judgement,99,9,2,countries_forward,"['_Britain_', '_Peru_']","['f', 'f']","['p268', 'p245']","[8, 0]","[92.0152836843556, 84.40078082039426]",2.0,True,6.0,5.656854249492381,7.12602424621582,0.8737146748382704
0,,101,2024-06-24 08:27:55,3,distance,cathedral,numerosity_judgement,99,10,2,countries_forward,"['_Congo_', '_Britain_']","['m', 'f']","['p318', 'p248']","[0, 3]","[84.40078082039426, 89.14911522239515]",2.0,True,3.5,2.1213203435596424,2.5595948696136475,0.900374531835206
0,,101,2024-06-24 08:28:00,3,distance,cathedral,numerosity_judgement,99,11,2,countries_forward,"['_Britain_', '_Oman_']","['m', 'm']","['p256', 'p307']","[7, 6]","[91.73820004985969, 91.58892582949886]",2.0,True,8.5,0.7071067811865476,2.1846818923950195,0.5944955169674271
0,,101,2024-06-24 08:28:05,3,distance,cathedral,numerosity_judgement,99,12,2,countries_forward,"['_Yemen_', '_Tonga_']","['f', 'm']","['p248', 'p318']","[10, 2]","[93.00003341222717, 87.57049330475357]",2.0,True,8.0,5.656854249492381,2.441911458969116,0.8217682442401544
0,,101,2024-06-24 08:28:10,3,distance,cathedral,numerosity_judgement,99,13,2,countries_forward,"['_Britain_', '_Congo_']","['m', 'f']","['p256', 'p284']","[4, 8]","[89.31368318402099, 92.0152836843556]",2.0,True,8.0,2.8284271247461903,2.8739945888519287,0.8465440926115083
0,,101,2024-06-24 08:28:15,3,distance,cathedral,numerosity_judgement,99,14,2,countries_forward,"['_Syria_', '_Tonga_']","['f', 'm']","['p268', 'p307']","[3, 0]","[89.14911522239515, 84.40078082039426]",2.0,True,3.5,2.1213203435596424,2.444700002670288,0.9485869935308138
0,,101,2024-06-24 08:28:20,3,distance,cathedral,numerosity_judgement,99,15,2,countries_forward,"['_Sudan_', '_Japan_']","['m', 'm']","['p318', 'p229']","[0, 6]","[84.40078082039426, 91.58892582949886]",2.0,True,5.0,4.242640687119285,2.3781349658966064,0.9152650096470322
0,,101,2024-06-24 08:28:24,3,distance,cathedral,numerosity_judgement,99,16,2,countries_forward,"['_Congo_', '_Yemen_']","['f', 'm']","['p284', 'p307']","[3, 9]","[89.14911522239515, 92.00610777531934]",2.0,True,8.0,4.242640687119285,1.5623252391815186,0.7754965384178867
0,,101,2024-06-24 08:28:28,3,distance,cathedral,numerosity_judgement,99,17,2,countries_forward,"['_Togo_', '_Oman_']","['m', 'f']","['p229', 'p268']","[3, 8]","[89.14911522239515, 92.0152836843556]",2.0,True,7.5,3.5355339059327378,1.499896764755249,0.8502780615140165
0,,101,2024-06-24 08:28:33,3,distance,cathedral,numerosity_judgement,99,18,2,countries_forward,"['_Oman_', '_Yemen_']","['m', 'f']","['p256', 'p248']","[7, 5]","[91.73820004985969, 90.34149293193902]",2.0,True,8.0,1.4142135623730951,2.309941291809082,0.5631596867551923
0,,101,2024-06-24 08:28:38,3,distance,cathedral,numerosity_judgement,99,19,2,countries_forward,"['_Peru_', '_Congo_']","['f', 'f']","['p245', 'p268']","[2, 8]","[87.57049330475357, 92.0152836843556]",2.0,True,7.0,4.242640687119285,2.0013046264648438,0.7170582226762002
0,,101,2024-06-24 08:28:42,3,distance,cathedral,numerosity_judgement,99,20,2,countries_forward,"['_Mali_', '_Yemen_']","['m', 'm']","['p256', 'p229']","[6, 5]","[91.58892582949886, 90.34149293193902]",2.0,True,7.5,0.7071067811865476,1.5600340366363525,0.6313698785608898
0,,101,2024-06-24 08:28:45,3,distance,cathedral,numerosity_judgement,99,21,2,countries_forward,"['_Belgium_', '_Peru_']","['f', 'm']","['p284', 'p256']","[2, 8]","[87.57049330475357, 92.0152836843556]",2.0,True,7.0,4.242640687119285,1.5019276142120361,0.8839291794347974
0,,101,2024-06-24 08:28:50,3,distance,cathedral,numerosity_judgement,99,22,2,countries_forward,"['_Peru_', '_Yemen_']","['f', 'm']","['p268', 'p256']","[8, 2]","[92.0152836843556, 87.57049330475357]",2.0,True,7.0,4.242640687119285,1.5623908042907715,0.6912155260469868
0,,101,2024-06-24 08:29:20,3,distance,cathedral,numerosity_judgement,99,23,2,countries_forward,"['_Yemen_', '_Togo_']","['m', 'f']","['p307', 'p268']","[6, 4]","[91.58892582949886, 89.31368318402099]",2.0,True,7.0,1.4142135623730951,27.908116340637207,0.7633639768471229
0,,101,2024-06-24 08:29:25,3,distance,cathedral,numerosity_judgement,99,24,2,countries_forward,"['_Yemen_', '_Peru_']","['m', 'f']","['p229', 'p245']","[4, 3]","[89.31368318402099, 89.14911522239515]",2.0,True,5.5,0.7071067811865476,1.9982008934020996,0.6646578140960163
0,,101,2024-06-24 08:29:29,3,distance,cathedral,numerosity_judgement,99,25,2,countries_forward,"['_Mali_', '_Yemen_']","['f', 'm']","['p248', 'p318']","[4, 3]","[89.31368318402099, 89.14911522239515]",2.0,True,5.5,0.7071067811865476,1.8123726844787598,0.7877312450346158
0,,101,2024-06-24 08:29:34,3,distance,cathedral,numerosity_judgement,99,26,2,countries_forward,"['_Britain_', '_Yemen_']","['m', 'm']","['p256', 'p307']","[3, 6]","[89.14911522239515, 91.58892582949886]",2.0,True,6.5,2.1213203435596424,1.687382459640503,0.6556917489501759
0,,101,2024-06-24 08:29:38,3,distance,cathedral,numerosity_judgement,99,27,2,countries_forward,"['_Tonga_', '_Sudan_']","['f', 'm']","['p245', 'p229']","[2, 5]","[87.57049330475357, 90.34149293193902]",2.0,True,5.5,2.1213203435596424,1.4998962879180908,0.9661105436386336
0,,101,2024-06-24 08:29:42,3,distance,cathedral,numerosity_judgement,99,28,2,countries_forward,"['_Britain_', '_Yemen_']","['f', 'f']","['p248', 'p268']","[4, 3]","[89.31368318402099, 89.14911522239515]",2.0,True,5.5,0.7071067811865476,1.6875762939453125,0.7014640789921689
0,,101,2024-06-24 08:29:46,3,distance,cathedral,numerosity_judgement,99,29,2,countries_forward,"['_Britain_', '_Yemen_']","['f', 'm']","['p245', 'p307']","[3, 8]","[89.14911522239515, 92.0152836843556]",2.0,True,7.5,3.5355339059327378,1.438581943511963,0.5798206786970832
0,,101,2024-06-24 14:46:55,3,distance,cathedral,numerosity_judgement,1,0,6,countries_forward,"['_Syria_', '_Oman_', '_Congo_', '_Mali_', '_Sudan_', '_Peru_']","['f', 'm', 'm', 'f', 'f', 'f']","['p268', 'p307', 'p229', 'p248', 'p245', 'p284']","[3, 4, 6, 1, 7, 5]","[89.14911522239515, 89.31368318402099, 91.58892582949886, 86.2038576498559, 91.73820004985969, 90.34149293193902]",6,True,6.333333333333333,2.160246899469287,3.0934698581695557,0.8672568380433548
0,,101,2024-06-24 14:47:00,3,distance,cathedral,numerosity_judgement,1,1,2,countries_forward,"['_Yemen_', '_Peru_']","['m', 'm']","['p229', 'p307']","[5, 10]","[90.34149293193902, 93.00003341222717]",2,True,9.5,3.5355339059327378,3.2653915882110596,0.5941436840313244
0,,101,2024-06-24 14:47:04,3,distance,cathedral,numerosity_judgement,1,2,3,countries_forward,"['_Togo_', '_Peru_', '_Belgium_']","['f', 'm', 'f']","['p268', 'p318', 'p248']","[3, 1, 2]","[89.14911522239515, 86.2038576498559, 87.57049330475357]",6,False,4.0,1.0,2.406017303466797,0.8598002496878902
0,,101,2024-06-24 14:47:08,3,distance,cathedral,numerosity_judgement,1,3,5,countries_forward,"['_Sudan_', '_Cuba_', '_Britain_', '_Togo_', '_Peru_']","['m', 'm', 'f', 'f', 'f']","['p229', 'p256', 'p268', 'p245', 'p284']","[8, 6, 2, 9, 5]","[92.0152836843556, 91.58892582949886, 87.57049330475357, 92.00610777531934, 90.34149293193902]",6,False,8.0,2.7386127875258306,2.1717798709869385,0.940381341504937
0,,101,2024-06-24 14:47:12,3,distance,cathedral,numerosity_judgement,1,4,4,countries_forward,"['_Cuba_', '_Yemen_', '_Togo_', '_Congo_']","['f', 'f', 'm', 'm']","['p268', 'p248', 'p318', 'p229']","[6, 5, 3, 1]","[91.58892582949886, 90.34149293193902, 89.14911522239515, 86.2038576498559]",2,False,5.75,2.217355782608345,1.8904573917388916,0.7653160821700148
0,,101,2024-06-24 14:47:16,3,distance,cathedral,numerosity_judgement,1,5,5,countries_forward,"['_Peru_', '_Sudan_', '_Cuba_', '_Togo_', '_Yemen_']","['f', 'm', 'm', 'f', 'm']","['p245', 'p256', 'p229', 'p248', 'p318']","[3, 6, 5, 0, 2]","[89.14911522239515, 91.58892582949886, 90.34149293193902, 84.40078082039426, 87.57049330475357]",6,False,5.2,2.3874672772626644,1.7965006828308105,0.7395868800363182
0,,101,2024-06-24 14:48:40,3,distance,cathedral,numerosity_judgement,1,0,6,countries_forward,"['_Belgium_', '_Britain_', '_Yemen_', '_Togo_', '_Congo_', '_Cuba_']","['m', 'f', 'm', 'f', 'm', 'f']","['p229', 'p268', 'p318', 'p248', 'p256', 'p284']","[6, 8, 5, 1, 3, 10]","[91.58892582949886, 92.0152836843556, 90.34149293193902, 86.2038576498559, 89.14911522239515, 93.00003341222717]",3,False,7.5,3.271085446759225,3.0309767723083496,0.8329588014981273
0,,101,2024-06-24 14:48:43,3,distance,cathedral,numerosity_judgement,1,1,3,countries_forward,"['_Togo_', '_Mali_', '_Tonga_']","['m', 'm', 'm']","['p307', 'p256', 'p318']","[2, 8, 6]","[87.57049330475357, 92.0152836843556, 91.58892582949886]",4,False,7.333333333333333,3.0550504633038935,1.8439598083496094,0.8247418000226989
0,,101,2024-06-24 14:48:47,3,distance,cathedral,numerosity_judgement,1,2,4,countries_forward,"['_Togo_', '_Sudan_', '_Japan_', '_Tonga_']","['f', 'f', 'm', 'f']","['p245', 'p268', 'p307', 'p284']","[10, 7, 6, 0]","[93.00003341222717, 91.73820004985969, 91.58892582949886, 84.40078082039426]",2,False,7.75,4.193248541803041,1.3329532146453857,0.9620020429009192
0,,101,2024-06-24 14:48:50,3,distance,cathedral,numerosity_judgement,1,3,2,countries_forward,"['_Peru_', '_Mali_']","['m', 'f']","['p307', 'p268']","[3, 4]","[89.14911522239515, 89.31368318402099]",2,True,5.5,0.7071067811865476,2.2810347080230713,0.7533083645443196
0,,101,2024-06-24 14:48:54,3,distance,cathedral,numerosity_judgement,1,4,5,countries_forward,"['_Syria_', '_Sudan_', '_Togo_', '_Congo_', '_Peru_']","['m', 'f', 'f', 'f', 'm']","['p229', 'p268', 'p284', 'p245', 'p318']","[1, 6, 5, 7, 0]","[86.2038576498559, 91.58892582949886, 90.34149293193902, 91.73820004985969, 84.40078082039426]",4,False,5.8,3.1144823004794877,1.6717596054077148,0.9378504142549088
0,,101,2024-06-24 14:48:57,3,distance,cathedral,numerosity_judgement,1,5,3,countries_forward,"['_Oman_', '_Britain_', '_Yemen_']","['f', 'm', 'm']","['p284', 'p229', 'p318']","[0, 2, 7]","[84.40078082039426, 87.57049330475357, 91.73820004985969]",3,True,5.0,3.605551275463989,1.624812126159668,0.6936329588014981
0,,101,2024-06-24 14:49:00,3,distance,cathedral,numerosity_judgement,1,6,2,countries_forward,"['_Peru_', '_Japan_']","['f', 'f']","['p248', 'p268']","[9, 7]","[92.00610777531934, 91.73820004985969]",5,False,10.0,1.4142135623730951,1.4530253410339355,0.8210532289183975
0,,101,2024-06-24 14:49:03,3,distance,cathedral,numerosity_judgement,1,7,5,countries_forward,"['_Peru_', '_Cuba_', '_Togo_', '_Mali_', '_Oman_']","['f', 'm', 'm', 'm', 'm']","['p268', 'p318', 'p256', 'p307', 'p229']","[8, 9, 6, 1, 3]","[92.0152836843556, 92.00610777531934, 91.58892582949886, 86.2038576498559, 89.14911522239515]",3,False,7.4,3.361547262794322,1.1720056533813477,0.7480422199523323
0,,101,2024-06-24 14:49:06,3,distance,cathedral,numerosity_judgement,1,8,4,countries_forward,"['_Peru_', '_Belgium_', '_Yemen_', '_Japan_']","['f', 'm', 'm', 'f']","['p248', 'p229', 'p318', 'p245']","[5, 8, 1, 10]","[90.34149293193902, 92.0152836843556, 86.2038576498559, 93.00003341222717]",4,True,8.0,3.9157800414902435,1.40580415725708,0.8779707184201566
0,,101,2024-06-24 14:49:09,3,distance,cathedral,numerosity_judgement,1,9,6,countries_forward,"['_Togo_', '_Oman_', '_Mali_', '_Cuba_', '_Yemen_', '_Britain_']","['m', 'f', 'm', 'm', 'f', 'f']","['p307', 'p284', 'p318', 'p229', 'p248', 'p245']","[6, 1, 5, 2, 10, 7]","[91.58892582949886, 86.2038576498559, 90.34149293193902, 87.57049330475357, 93.00003341222717, 91.73820004985969]",4,False,7.166666666666667,3.3115957885386114,1.1404967308044434,0.7023379866076496
0,,101,2024-06-24 14:49:12,3,distance,cathedral,numerosity_judgement,1,10,2,countries_forward,"['_Yemen_', '_Peru_']","['f', 'm']","['p268', 'p307']","[6, 3]","[91.58892582949886, 89.14911522239515]",4,False,6.5,2.1213203435596424,0.9408526420593262,0.6054023379866077
0,,101,2024-06-24 14:49:15,3,distance,cathedral,numerosity_judgement,1,11,6,countries_forward,"['_Belgium_', '_Peru_', '_Oman_', '_Togo_', '_Congo_', '_Cuba_']","['m', 'm', 'f', 'f', 'm', 'f']","['p256', 'p229', 'p245', 'p268', 'p318', 'p248']","[5, 1, 9, 2, 4, 3]","[90.34149293193902, 86.2038576498559, 92.00610777531934, 87.57049330475357, 89.31368318402099, 89.14911522239515]",4,False,6.0,2.8284271247461903,0.7499470710754395,0.8828623311769379
0,,101,2024-06-24 14:49:17,3,distance,cathedral,numerosity_judgement,1,12,3,countries_forward,"['_Togo_', '_Cuba_', '_Britain_']","['m', 'f', 'm']","['p229', 'p284', 'p307']","[7, 5, 8]","[91.73820004985969, 90.34149293193902, 92.0152836843556]",3,True,8.666666666666666,1.5275252316519468,0.7173078060150146,0.7515265009647032
0,,101,2024-06-24 14:49:20,3,distance,cathedral,numerosity_judgement,1,13,5,countries_forward,"['_Togo_', '_Congo_', '_Japan_', '_Britain_', '_Peru_']","['f', 'f', 'm', 'm', 'f']","['p248', 'p268', 'p229', 'p318', 'p284']","[5, 2, 4, 9, 0]","[90.34149293193902, 87.57049330475357, 89.31368318402099, 92.00610777531934, 84.40078082039426]",2,False,6.0,3.391164991562634,0.7499098777770996,0.8838156849392804
0,,101,2024-06-24 14:49:22,3,distance,cathedral,numerosity_judgement,1,14,4,countries_forward,"['_Cuba_', '_Togo_', '_Oman_', '_Congo_']","['m', 'm', 'f', 'f']","['p307', 'p256', 'p248', 'p245']","[2, 1, 10, 0]","[87.57049330475357, 86.2038576498559, 93.00003341222717, 84.40078082039426]",3,False,5.25,4.573474244670748,0.6082861423492432,0.7508909317898081
0,,101,2024-06-24 14:49:24,3,distance,cathedral,numerosity_judgement,1,15,3,countries_forward,"['_Japan_', '_Syria_', '_Belgium_']","['m', 'f', 'f']","['p229', 'p248', 'p284']","[3, 2, 7]","[89.14911522239515, 87.57049330475357, 91.73820004985969]",4,False,6.0,2.6457513110645907,0.6718361377716064,0.937282941777324
0,,101,2024-06-24 14:49:26,3,distance,cathedral,numerosity_judgement,1,16,2,countries_forward,"['_Yemen_', '_Peru_']","['m', 'f']","['p229', 'p245']","[4, 3]","[89.31368318402099, 89.14911522239515]",3,False,5.5,0.7071067811865476,0.5883374214172363,0.6646578140960163
0,,101,2024-06-24 14:49:29,3,distance,cathedral,numerosity_judgement,1,17,4,countries_forward,"['_Yemen_', '_Belgium_', '_Mali_', '_Togo_']","['m', 'f', 'f', 'm']","['p256', 'p268', 'p248', 'p307']","[3, 4, 10, 7]","[89.14911522239515, 89.31368318402099, 93.00003341222717, 91.73820004985969]",5,False,8.0,3.1622776601683795,0.7343242168426514,0.7026898195437521
0,,101,2024-06-24 14:49:31,3,distance,cathedral,numerosity_judgement,1,18,6,countries_forward,"['_Cuba_', '_Congo_', '_Sudan_', '_Tonga_', '_Belgium_', '_Mali_']","['f', 'm', 'f', 'm', 'm', 'm']","['p268', 'p256', 'p248', 'p229', 'p318', 'p307']","[10, 1, 7, 4, 9, 6]","[93.00003341222717, 86.2038576498559, 91.73820004985969, 89.31368318402099, 92.00610777531934, 91.58892582949886]",3,False,8.166666666666666,3.3115957885386114,0.6701641082763672,0.8032005447735785
0,,101,2024-06-24 14:49:34,3,distance,cathedral,numerosity_judgement,1,19,5,countries_forward,"['_Congo_', '_Cuba_', '_Togo_', '_Britain_', '_Peru_']","['f', 'f', 'm', 'm', 'm']","['p268', 'p245', 'p229', 'p318', 'p307']","[7, 9, 4, 8, 3]","[91.73820004985969, 92.00610777531934, 89.31368318402099, 92.0152836843556, 89.14911522239515]",2,False,8.2,2.588435821108957,0.828068733215332,0.7372488934286687
0,,101,2024-06-24 14:49:37,3,distance,cathedral,numerosity_judgement,1,20,3,countries_forward,"['_Britain_', '_Mali_', '_Cuba_']","['m', 'm', 'f']","['p318', 'p229', 'p245']","[7, 3, 10]","[91.73820004985969, 89.14911522239515, 93.00003341222717]",4,False,8.666666666666666,3.511884584284246,0.8264491558074951,0.7864487572352741
0,,101,2024-06-24 14:49:39,3,distance,cathedral,numerosity_judgement,1,21,4,countries_forward,"['_Peru_', '_Syria_', '_Yemen_', '_Tonga_']","['f', 'f', 'm', 'f']","['p245', 'p268', 'p229', 'p248']","[10, 5, 4, 2]","[93.00003341222717, 90.34149293193902, 89.31368318402099, 87.57049330475357]",5,False,7.25,3.4034296427770228,0.7655715942382812,0.9139144251503802
0,,101,2024-06-24 14:49:42,3,distance,cathedral,numerosity_judgement,1,22,5,countries_forward,"['_Togo_', '_Congo_', '_Oman_', '_Yemen_', '_Britain_']","['m', 'm', 'm', 'm', 'f']","['p318', 'p256', 'p229', 'p307', 'p248']","[5, 0, 3, 8, 4]","[90.34149293193902, 84.40078082039426, 89.14911522239515, 92.0152836843556, 89.31368318402099]",3,False,6.0,2.9154759474226504,0.812828540802002,0.6904891612756782
0,,101,2024-06-24 14:49:45,3,distance,cathedral,numerosity_judgement,1,23,6,countries_forward,"['_Japan_', '_Britain_', '_Yemen_', '_Togo_', '_Cuba_', '_Syria_']","['m', 'f', 'f', 'f', 'm', 'm']","['p229', 'p245', 'p268', 'p284', 'p307', 'p256']","[4, 3, 5, 1, 0, 7]","[89.31368318402099, 89.14911522239515, 90.34149293193902, 86.2038576498559, 84.40078082039426, 91.73820004985969]",2,False,5.333333333333333,2.581988897471611,0.8749394416809082,0.7602655771195097
0,,101,2024-06-24 14:49:47,3,distance,cathedral,numerosity_judgement,1,24,2,countries_forward,"['_Oman_', '_Yemen_']","['f', 'm']","['p248', 'p318']","[9, 3]","[92.00610777531934, 89.14911522239515]",3,False,8.0,4.242640687119285,0.7728333473205566,0.7150039723073431
0,,101,2024-06-24 14:49:49,3,distance,cathedral,numerosity_judgement,1,25,4,countries_forward,"['_Congo_', '_Syria_', '_Cuba_', '_Togo_']","['m', 'm', 'f', 'm']","['p229', 'p307', 'p268', 'p318']","[2, 7, 0, 4]","[87.57049330475357, 91.73820004985969, 84.40078082039426, 89.31368318402099]",5,False,5.25,2.9860788111948193,0.7186365127563477,0.844648734536375
0,,101,2024-06-24 14:49:52,3,distance,cathedral,numerosity_judgement,1,26,5,countries_forward,"['_Yemen_', '_Tonga_', '_Mali_', '_Belgium_', '_Japan_']","['m', 'm', 'f', 'f', 'f']","['p256', 'p307', 'p248', 'p245', 'p284']","[1, 5, 6, 2, 4]","[86.2038576498559, 90.34149293193902, 91.58892582949886, 87.57049330475357, 89.31368318402099]",3,False,5.6,2.073644135332772,0.6327109336853027,0.8286914084666893
0,,101,2024-06-24 14:49:54,3,distance,cathedral,numerosity_judgement,1,27,3,countries_forward,"['_Oman_', '_Tonga_', '_Yemen_']","['m', 'm', 'm']","['p229', 'p318', 'p307']","[8, 6, 9]","[92.0152836843556, 91.58892582949886, 92.00610777531934]",2,False,9.666666666666666,1.5275252316519468,0.703010082244873,0.7087163772557031
0,,101,2024-06-24 14:49:56,3,distance,cathedral,numerosity_judgement,1,28,2,countries_forward,"['_Oman_', '_Yemen_']","['m', 'f']","['p256', 'p248']","[7, 5]","[91.73820004985969, 90.34149293193902]",3,False,8.0,1.4142135623730951,0.8240721225738525,0.5631596867551923
0,,101,2024-06-24 14:49:59,3,distance,cathedral,numerosity_judgement,1,29,6,countries_forward,"['_Oman_', '_Syria_', '_Belgium_', '_Peru_', '_Mali_', '_Congo_']","['m', 'f', 'f', 'm', 'm', 'f']","['p229', 'p284', 'p268', 'p318', 'p307', 'p245']","[6, 0, 1, 2, 3, 10]","[91.58892582949886, 84.40078082039426, 86.2038576498559, 87.57049330475357, 89.14911522239515, 93.00003341222717]",4,False,5.666666666666667,3.723797345005051,0.7186934947967529,0.7856769946657587
0,,101,2024-06-24 14:50:02,3,distance,cathedral,numerosity_judgement,1,30,4,countries_forward,"['_Belgium_', '_Peru_', '_Oman_', '_Japan_']","['m', 'f', 'm', 'f']","['p318', 'p268', 'p256', 'p245']","[5, 4, 10, 7]","[90.34149293193902, 89.31368318402099, 93.00003341222717, 91.73820004985969]",5,False,8.5,2.6457513110645907,0.6565392017364502,0.8127681307456588
0,,101,2024-06-24 14:50:04,3,distance,cathedral,numerosity_judgement,1,31,6,countries_forward,"['_Mali_', '_Belgium_', '_Britain_', '_Tonga_', '_Togo_', '_Syria_']","['f', 'm', 'm', 'f', 'm', 'f']","['p284', 'p318', 'p307', 'p245', 'p229', 'p248']","[8, 9, 3, 1, 5, 0]","[92.0152836843556, 92.00610777531934, 89.14911522239515, 86.2038576498559, 90.34149293193902, 84.40078082039426]",3,False,6.333333333333333,3.669695718539436,0.49995851516723633,0.9342639881965724
0,,101,2024-06-24 14:50:07,3,distance,cathedral,numerosity_judgement,1,32,2,countries_forward,"['_Yemen_', '_Belgium_']","['f', 'f']","['p284', 'p248']","[10, 1]","[93.00003341222717, 86.2038576498559]",3,False,7.5,6.363961030678928,1.177898645401001,0.9260923845193508
0,,101,2024-06-24 14:50:10,3,distance,cathedral,numerosity_judgement,1,33,5,countries_forward,"['_Japan_', '_Cuba_', '_Oman_', '_Britain_', '_Mali_']","['m', 'm', 'f', 'f', 'f']","['p318', 'p229', 'p245', 'p248', 'p284']","[7, 10, 3, 5, 2]","[91.73820004985969, 93.00003341222717, 89.14911522239515, 90.34149293193902, 87.57049330475357]",5,True,7.4,3.2093613071762426,1.1405463218688965,0.8206446487345364
0,,101,2024-06-24 14:50:36,3,distance,cathedral,numerosity_judgement,1,0,4,countries_forward,"['_Mali_', '_Britain_', '_Japan_', '_Syria_']","['f', 'm', 'm', 'm']","['p284', 'p307', 'p256', 'p318']","[0, 4, 5, 6]","[84.40078082039426, 89.31368318402099, 90.34149293193902, 91.58892582949886]",3,False,5.75,2.6299556396765835,1.044675350189209,0.8657246623538758
0,,101,2024-06-24 14:50:39,3,distance,cathedral,numerosity_judgement,1,1,2,countries_forward,"['_Belgium_', '_Togo_']","['m', 'f']","['p256', 'p245']","[8, 10]","[92.0152836843556, 93.00003341222717]",4,False,11.0,1.4142135623730951,0.7811884880065918,0.9390421064578368
0,,101,2024-06-24 14:50:47,3,distance,cathedral,numerosity_judgement,1,2,5,countries_forward,"['_Congo_', '_Sudan_', '_Oman_', '_Tonga_', '_Mali_']","['m', 'f', 'm', 'm', 'f']","['p229', 'p268', 'p318', 'p307', 'p284']","[7, 9, 10, 0, 1]","[91.73820004985969, 92.00610777531934, 93.00003341222717, 84.40078082039426, 86.2038576498559]",2,False,7.4,4.61519230368573,7.047174453735352,0.9270911360799
0,,101,2024-06-24 14:50:50,3,distance,cathedral,numerosity_judgement,1,3,6,countries_forward,"['_Tonga_', '_Syria_', '_Oman_', '_Yemen_', '_Britain_', '_Japan_']","['m', 'f', 'f', 'f', 'm', 'm']","['p256', 'p268', 'p245', 'p248', 'p318', 'p229']","[8, 7, 5, 10, 2, 9]","[92.0152836843556, 91.73820004985969, 90.34149293193902, 93.00003341222717, 87.57049330475357, 92.00610777531934]",2,False,8.833333333333334,2.9268868558020253,0.7187001705169678,0.8887413460447169
0,,101,2024-06-24 14:50:52,3,distance,cathedral,numerosity_judgement,1,4,3,countries_forward,"['_Cuba_', '_Togo_', '_Mali_']","['m', 'f', 'f']","['p307', 'p284', 'p248']","[0, 5, 4]","[84.40078082039426, 90.34149293193902, 89.31368318402099]",2,False,5.0,2.6457513110645907,0.6886050701141357,0.8389059130632164
0,,101,2024-06-24 14:50:55,3,distance,cathedral,numerosity_judgement,1,5,4,countries_forward,"['_Mali_', '_Peru_', '_Britain_', '_Yemen_']","['f', 'm', 'f', 'f']","['p245', 'p307', 'p268', 'p248']","[2, 7, 6, 10]","[87.57049330475357, 91.73820004985969, 91.58892582949886, 93.00003341222717]",3,False,8.25,3.304037933599835,0.6874518394470215,0.7362841902167745
0,,101,2024-06-24 14:50:58,3,distance,cathedral,numerosity_judgement,1,6,6,countries_forward,"['_Cuba_', '_Congo_', '_Peru_', '_Britain_', '_Yemen_', '_Tonga_']","['m', 'f', 'f', 'f', 'm', 'f']","['p307', 'p284', 'p268', 'p248', 'p229', 'p245']","[4, 0, 3, 6, 10, 5]","[89.31368318402099, 84.40078082039426, 89.14911522239515, 91.58892582949886, 93.00003341222717, 90.34149293193902]",4,False,6.666666666666667,3.32665998663324,0.5954453945159912,0.7448530246283055
0,,101,2024-06-24 14:51:00,3,distance,cathedral,numerosity_judgement,1,7,3,countries_forward,"['_Cuba_', '_Yemen_', '_Tonga_']","['m', 'm', 'f']","['p318', 'p307', 'p284']","[3, 0, 10]","[89.14911522239515, 84.40078082039426, 93.00003341222717]",3,True,6.333333333333333,5.131601439446884,0.8748738765716553,0.8695494268527977
0,,101,2024-06-24 14:51:03,3,distance,cathedral,numerosity_judgement,1,8,5,countries_forward,"['_Oman_', '_Tonga_', '_Yemen_', '_Congo_', '_Mali_']","['m', 'm', 'f', 'f', 'f']","['p229', 'p307', 'p248', 'p268', 'p245']","[3, 8, 6, 2, 4]","[89.14911522239515, 92.0152836843556, 91.58892582949886, 87.57049330475357, 89.31368318402099]",5,True,6.6,2.4083189157584592,1.3451838493347168,0.7125070934059698
0,,101,2024-06-24 14:51:05,3,distance,cathedral,numerosity_judgement,1,9,2,countries_forward,"['_Yemen_', '_Congo_']","['f', 'm']","['p248', 'p307']","[3, 7]","[89.14911522239515, 91.73820004985969]",3,False,7.0,2.8284271247461903,0.8123805522918701,0.7058449665191239
0,,101,2024-06-24 14:51:08,3,distance,cathedral,numerosity_judgement,1,10,4,countries_forward,"['_Syria_', '_Sudan_', '_Tonga_', '_Japan_']","['m', 'f', 'f', 'm']","['p318', 'p268', 'p284', 'p307']","[2, 6, 0, 1]","[87.57049330475357, 91.58892582949886, 84.40078082039426, 86.2038576498559]",2,False,4.25,2.6299556396765835,0.7655723094940186,0.9491885143570536
0,,101,2024-06-24 14:51:11,3,distance,cathedral,numerosity_judgement,1,11,6,countries_forward,"['_Mali_', '_Peru_', '_Togo_', '_Oman_', '_Yemen_', '_Congo_']","['f', 'm', 'm', 'f', 'm', 'f']","['p248', 'p318', 'p307', 'p268', 'p229', 'p284']","[3, 5, 8, 4, 6, 1]","[89.14911522239515, 90.34149293193902, 92.0152836843556, 89.31368318402099, 91.58892582949886, 86.2038576498559]",1,False,6.5,2.4289915602982237,0.843691349029541,0.6986040177051414
0,,101,2024-06-24 14:51:13,3,distance,cathedral,numerosity_judgement,1,12,2,countries_forward,"['_Syria_', '_Cuba_']","['m', 'f']","['p229', 'p284']","[8, 3]","[92.0152836843556, 89.14911522239515]",3,False,7.5,3.5355339059327378,0.7499005794525146,0.8410850073771422
0,,101,2024-06-24 14:51:15,3,distance,cathedral,numerosity_judgement,1,13,3,countries_forward,"['_Yemen_', '_Togo_', '_Congo_']","['m', 'f', 'f']","['p256', 'p245', 'p268']","[5, 6, 4]","[90.34149293193902, 91.58892582949886, 89.31368318402099]",2,False,7.0,1.0,0.7811954021453857,0.8173987061627511
0,,101,2024-06-24 14:51:18,3,distance,cathedral,numerosity_judgement,1,14,5,countries_forward,"['_Cuba_', '_Sudan_', '_Peru_', '_Tonga_', '_Oman_']","['f', 'm', 'f', 'f', 'f']","['p245', 'p256', 'p248', 'p268', 'p284']","[4, 5, 3, 1, 8]","[89.31368318402099, 90.34149293193902, 89.14911522239515, 86.2038576498559, 92.0152836843556]",3,False,6.2,2.588435821108957,0.9061794281005859,0.7607876517988877
0,,101,2024-06-24 14:51:21,3,distance,cathedral,numerosity_judgement,1,15,6,countries_forward,"['_Mali_', '_Tonga_', '_Belgium_', '_Syria_', '_Yemen_', '_Japan_']","['f', 'm', 'm', 'f', 'm', 'f']","['p284', 'p256', 'p229', 'p268', 'p318', 'p248']","[0, 10, 3, 5, 8, 7]","[84.40078082039426, 93.00003341222717, 89.14911522239515, 90.34149293193902, 92.0152836843556, 91.73820004985969]",2,False,7.5,3.6193922141707713,0.7499475479125977,0.8504710021563954
0,,101,2024-06-24 14:51:23,3,distance,cathedral,numerosity_judgement,1,16,3,countries_forward,"['_Oman_', '_Togo_', '_Tonga_']","['m', 'm', 'f']","['p307', 'p318', 'p268']","[5, 3, 2]","[90.34149293193902, 89.14911522239515, 87.57049330475357]",1,False,5.333333333333333,1.5275252316519465,0.8280234336853027,0.7082964476222903
0,,101,2024-06-24 14:51:26,3,distance,cathedral,numerosity_judgement,1,17,2,countries_forward,"['_Tonga_', '_Oman_']","['f', 'm']","['p248', 'p307']","[4, 5]","[89.31368318402099, 90.34149293193902]",2,True,6.5,0.7071067811865476,0.6718292236328125,0.6183974577233005
0,,101,2024-06-24 14:51:28,3,distance,cathedral,numerosity_judgement,1,18,4,countries_forward,"['_Sudan_', '_Togo_', '_Japan_', '_Peru_']","['m', 'f', 'm', 'f']","['p256', 'p284', 'p307', 'p245']","[7, 1, 6, 0]","[91.73820004985969, 86.2038576498559, 91.58892582949886, 84.40078082039426]",3,False,5.5,3.5118845842842465,0.7342796325683594,0.8149812734082397
0,,101,2024-06-24 14:51:31,3,distance,cathedral,numerosity_judgement,1,19,5,countries_forward,"['_Cuba_', '_Britain_', '_Tonga_', '_Syria_', '_Belgium_']","['m', 'f', 'm', 'm', 'f']","['p229', 'p245', 'p318', 'p256', 'p284']","[3, 0, 5, 6, 9]","[89.14911522239515, 84.40078082039426, 90.34149293193902, 91.58892582949886, 92.00610777531934]",4,False,6.6,3.361547262794322,0.7968196868896484,0.8472931562819204
0,,101,2024-06-24 14:51:33,3,distance,cathedral,numerosity_judgement,1,20,2,countries_forward,"['_Belgium_', '_Congo_']","['f', 'f']","['p268', 'p248']","[6, 10]","[91.58892582949886, 93.00003341222717]",5,False,10.0,2.8284271247461903,0.734389066696167,0.7792418567699466
0,,101,2024-06-24 14:51:35,3,distance,cathedral,numerosity_judgement,1,21,4,countries_forward,"['_Cuba_', '_Yemen_', '_Congo_', '_Britain_']","['m', 'f', 'f', 'm']","['p318', 'p284', 'p248', 'p256']","[2, 0, 9, 8]","[87.57049330475357, 84.40078082039426, 92.00610777531934, 92.0152836843556]",3,False,6.75,4.425306015783918,0.6093552112579346,0.7990693451367609
0,,101,2024-06-24 14:51:38,3,distance,cathedral,numerosity_judgement,1,22,5,countries_forward,"['_Japan_', '_Peru_', '_Yemen_', '_Britain_', '_Cuba_']","['f', 'm', 'm', 'f', 'm']","['p248', 'p256', 'p318', 'p245', 'p307']","[3, 8, 6, 2, 7]","[89.14911522239515, 92.0152836843556, 91.58892582949886, 87.57049330475357, 91.73820004985969]",2,False,7.2,2.588435821108957,0.7365529537200928,0.7278288503007604
0,,101,2024-06-24 14:51:41,3,distance,cathedral,numerosity_judgement,1,23,6,countries_forward,"['_Japan_', '_Yemen_', '_Belgium_', '_Mali_', '_Cuba_', '_Oman_']","['m', 'm', 'f', 'm', 'f', 'm']","['p307', 'p318', 'p245', 'p229', 'p268', 'p256']","[9, 3, 7, 10, 6, 1]","[92.00610777531934, 89.14911522239515, 91.73820004985969, 93.00003341222717, 91.58892582949886, 86.2038576498559]",3,False,8.0,3.4641016151377544,0.6873857975006104,0.7635001702417433
0,,101,2024-06-24 14:51:43,3,distance,cathedral,numerosity_judgement,1,24,3,countries_forward,"['_Tonga_', '_Cuba_', '_Syria_']","['m', 'f', 'f']","['p256', 'p248', 'p268']","[8, 0, 6]","[92.0152836843556, 84.40078082039426, 91.58892582949886]",2,False,6.666666666666667,4.163331998932266,0.6562049388885498,0.9228464419475656
0,,101,2024-06-24 14:51:46,3,distance,cathedral,numerosity_judgement,1,25,6,countries_forward,"['_Sudan_', '_Syria_', '_Yemen_', '_Britain_', '_Cuba_', '_Belgium_']","['f', 'f', 'f', 'm', 'm', 'f']","['p248', 'p284', 'p245', 'p229', 'p318', 'p268']","[4, 10, 2, 9, 1, 6]","[89.31368318402099, 93.00003341222717, 87.57049330475357, 92.00610777531934, 86.2038576498559, 91.58892582949886]",2,False,7.333333333333333,3.669695718539436,0.796821117401123,0.9368970604925662
0,,101,2024-06-24 14:51:48,3,distance,cathedral,numerosity_judgement,1,26,5,countries_forward,"['_Cuba_', '_Britain_', '_Belgium_', '_Sudan_', '_Tonga_']","['m', 'm', 'f', 'm', 'f']","['p307', 'p318', 'p248', 'p229', 'p284']","[1, 9, 8, 6, 4]","[86.2038576498559, 92.00610777531934, 92.0152836843556, 91.58892582949886, 89.31368318402099]",3,False,7.6,3.2093613071762426,0.734262228012085,0.9403132448076268
0,,101,2024-06-24 14:51:51,3,distance,cathedral,numerosity_judgement,1,27,2,countries_forward,"['_Mali_', '_Japan_']","['m', 'f']","['p307', 'p268']","[4, 6]","[89.31368318402099, 91.58892582949886]",4,False,7.0,1.4142135623730951,0.7187037467956543,0.7533878106911814
0,,101,2024-06-24 14:51:53,3,distance,cathedral,numerosity_judgement,1,28,3,countries_forward,"['_Peru_', '_Yemen_', '_Tonga_']","['f', 'f', 'm']","['p268', 'p284', 'p307']","[6, 7, 9]","[91.58892582949886, 91.73820004985969, 92.00610777531934]",3,True,9.333333333333334,1.5275252316519468,0.7140941619873047,0.6838837816365906
0,,101,2024-06-24 14:51:55,3,distance,cathedral,numerosity_judgement,1,29,4,countries_forward,"['_Peru_', '_Tonga_', '_Cuba_', '_Togo_']","['m', 'm', 'm', 'f']","['p229', 'p256', 'p307', 'p268']","[5, 3, 4, 8]","[90.34149293193902, 89.14911522239515, 89.31368318402099, 92.0152836843556]",4,True,7.0,2.160246899469287,0.6249496936798096,0.711678583588696
0,,101,2024-06-24 14:51:58,3,distance,cathedral,numerosity_judgement,1,30,5,countries_forward,"['_Oman_', '_Tonga_', '_Japan_', '_Congo_', '_Belgium_']","['m', 'm', 'm', 'f', 'f']","['p229', 'p256', 'p318', 'p245', 'p268']","[2, 3, 6, 4, 0]","[87.57049330475357, 89.14911522239515, 91.58892582949886, 89.31368318402099, 84.40078082039426]",2,False,5.0,2.23606797749979,0.7807364463806152,0.8993076835773465
0,,101,2024-06-24 14:52:01,3,distance,cathedral,numerosity_judgement,1,31,6,countries_forward,"['_Congo_', '_Syria_', '_Togo_', '_Cuba_', '_Oman_', '_Yemen_']","['m', 'm', 'm', 'f', 'f', 'f']","['p307', 'p256', 'p318', 'p245', 'p268', 'p284']","[8, 5, 0, 7, 4, 6]","[92.0152836843556, 90.34149293193902, 84.40078082039426, 91.73820004985969, 89.31368318402099, 91.58892582949886]",1,False,7.0,2.8284271247461903,0.7343242168426514,0.8170468732266485
0,,101,2024-06-24 14:52:03,3,distance,cathedral,numerosity_judgement,1,32,2,countries_forward,"['_Togo_', '_Belgium_']","['m', 'f']","['p229', 'p284']","[2, 8]","[87.57049330475357, 92.0152836843556]",2,True,7.0,4.242640687119285,0.6213104724884033,0.9020769492679604
0,,101,2024-06-24 14:52:05,3,distance,cathedral,numerosity_judgement,1,33,3,countries_forward,"['_Congo_', '_Cuba_', '_Belgium_']","['f', 'f', 'm']","['p284', 'p268', 'p229']","[1, 6, 0]","[86.2038576498559, 91.58892582949886, 84.40078082039426]",3,True,4.333333333333333,3.2145502536643185,0.6718282699584961,0.7927930995346726
0,,101,2024-06-24 14:52:07,3,distance,cathedral,numerosity_judgement,1,34,4,countries_forward,"['_Congo_', '_Cuba_', '_Tonga_', '_Sudan_']","['m', 'f', 'm', 'f']","['p307', 'p245', 'p318', 'p284']","[8, 7, 10, 0]","[92.0152836843556, 91.73820004985969, 93.00003341222717, 84.40078082039426]",2,False,8.25,4.349329450233296,0.7036497592926025,0.7761888548405402
0,,101,2024-06-24 14:52:10,3,distance,cathedral,numerosity_judgement,1,35,2,countries_forward,"['_Cuba_', '_Yemen_']","['m', 'm']","['p318', 'p307']","[3, 10]","[89.14911522239515, 93.00003341222717]",3,False,8.5,4.949747468305833,0.7030766010284424,0.6811485642946317
0,,101,2024-06-24 14:52:12,3,distance,cathedral,numerosity_judgement,1,36,5,countries_forward,"['_Mali_', '_Yemen_', '_Togo_', '_Cuba_', '_Japan_']","['m', 'm', 'f', 'm', 'f']","['p229', 'p318', 'p268', 'p256', 'p248']","[8, 3, 7, 10, 1]","[92.0152836843556, 89.14911522239515, 91.73820004985969, 93.00003341222717, 86.2038576498559]",2,False,7.8,3.7013511046643495,0.8290865421295166,0.785030076041312
0,,101,2024-06-24 14:52:17,3,distance,cathedral,numerosity_judgement,1,37,4,countries_forward,"['_Cuba_', '_Oman_', '_Yemen_', '_Mali_']","['f', 'm', 'm', 'f']","['p268', 'p307', 'p256', 'p248']","[3, 7, 2, 10]","[89.14911522239515, 91.73820004985969, 87.57049330475357, 93.00003341222717]",1,False,7.5,3.696845502136472,2.781486749649048,0.6738168198842356
0,,101,2024-06-24 14:52:20,3,distance,cathedral,numerosity_judgement,1,38,3,countries_forward,"['_Britain_', '_Mali_', '_Peru_']","['m', 'f', 'f']","['p256', 'p245', 'p268']","[7, 0, 9]","[91.73820004985969, 84.40078082039426, 92.00610777531934]",3,True,7.333333333333333,4.725815626252608,1.0154893398284912,0.752956531608217
0,,101,2024-06-24 14:52:22,3,distance,cathedral,numerosity_judgement,1,39,6,countries_forward,"['_Congo_', '_Tonga_', '_Togo_', '_Belgium_', '_Cuba_', '_Britain_']","['m', 'm', 'f', 'm', 'm', 'f']","['p256', 'p318', 'p284', 'p307', 'p229', 'p245']","[0, 3, 8, 5, 6, 4]","[84.40078082039426, 89.14911522239515, 92.0152836843556, 90.34149293193902, 91.58892582949886, 89.31368318402099]",4,False,6.333333333333333,2.7325202042558927,0.7972805500030518,0.8279990920440359
0,,101,2024-06-24 14:52:25,3,distance,cathedral,numerosity_judgement,1,40,4,countries_forward,"['_Togo_', '_Syria_', '_Congo_', '_Peru_']","['m', 'f', 'f', 'm']","['p318', 'p268', 'p284', 'p307']","[0, 1, 10, 2]","[84.40078082039426, 86.2038576498559, 93.00003341222717, 87.57049330475357]",3,False,5.25,4.573474244670748,0.7812604904174805,0.9283055271819316
0,,101,2024-06-24 14:52:28,3,distance,cathedral,numerosity_judgement,1,41,6,countries_forward,"['_Peru_', '_Tonga_', '_Belgium_', '_Congo_', '_Cuba_', '_Oman_']","['m', 'm', 'm', 'f', 'f', 'f']","['p307', 'p229', 'p318', 'p245', 'p268', 'p248']","[0, 2, 5, 10, 7, 3]","[84.40078082039426, 87.57049330475357, 90.34149293193902, 93.00003341222717, 91.73820004985969, 89.14911522239515]",2,False,6.5,3.6193922141707713,0.8270909786224365,0.7971739870616276
0,,101,2024-06-24 14:52:30,3,distance,cathedral,numerosity_judgement,1,42,2,countries_forward,"['_Oman_', '_Yemen_']","['m', 'f']","['p256', 'p248']","[7, 5]","[91.73820004985969, 90.34149293193902]",2,True,8.0,1.4142135623730951,1.046802282333374,0.5631596867551923
0,,101,2024-06-24 14:52:33,3,distance,cathedral,numerosity_judgement,1,43,5,countries_forward,"['_Syria_', '_Togo_', '_Mali_', '_Oman_', '_Belgium_']","['m', 'm', 'f', 'm', 'f']","['p318', 'p307', 'p268', 'p229', 'p284']","[6, 10, 2, 8, 4]","[91.58892582949886, 93.00003341222717, 87.57049330475357, 92.0152836843556, 89.31368318402099]",4,False,8.0,3.1622776601683795,0.8892056941986084,0.8539325842696629
0,,101,2024-06-24 14:52:35,3,distance,cathedral,numerosity_judgement,1,44,3,countries_forward,"['_Syria_', '_Cuba_', '_Sudan_']","['f', 'm', 'f']","['p268', 'p318', 'p284']","[9, 0, 8]","[92.00610777531934, 84.40078082039426, 92.0152836843556]",5,False,7.666666666666667,4.932882862316247,0.781198263168335,0.9466235387583702
0,,101,2024-06-24 14:52:38,3,distance,cathedral,numerosity_judgement,1,45,6,countries_forward,"['_Congo_', '_Oman_', '_Tonga_', '_Cuba_', '_Belgium_', '_Sudan_']","['f', 'f', 'm', 'f', 'm', 'm']","['p248', 'p284', 'p318', 'p245', 'p307', 'p229']","[10, 7, 9, 8, 0, 4]","[93.00003341222717, 91.73820004985969, 92.00610777531934, 92.0152836843556, 84.40078082039426, 89.31368318402099]",4,False,8.333333333333334,3.723797345005051,0.7186737060546875,0.9098172738622176
0,,101,2024-06-24 14:52:41,3,distance,cathedral,numerosity_judgement,1,46,4,countries_forward,"['_Congo_', '_Belgium_', '_Britain_', '_Tonga_']","['f', 'm', 'f', 'm']","['p248', 'p229', 'p284', 'p307']","[5, 7, 10, 8]","[90.34149293193902, 91.73820004985969, 93.00003341222717, 92.0152836843556]",3,False,9.5,2.0816659994661326,1.249913215637207,0.8835773464986948
0,,101,2024-06-24 14:52:44,3,distance,cathedral,numerosity_judgement,1,47,5,countries_forward,"['_Yemen_', '_Congo_', '_Syria_', '_Cuba_', '_Togo_']","['f', 'm', 'm', 'm', 'm']","['p245', 'p307', 'p256', 'p229', 'p318']","[7, 3, 6, 8, 5]","[91.73820004985969, 89.14911522239515, 91.58892582949886, 92.0152836843556, 90.34149293193902]",2,False,7.8,1.9235384061671346,0.8593156337738037,0.8171830666212688
0,,101,2024-06-24 14:52:46,3,distance,cathedral,numerosity_judgement,1,48,2,countries_forward,"['_Japan_', '_Belgium_']","['f', 'm']","['p284', 'p307']","[8, 2]","[92.0152836843556, 87.57049330475357]",3,False,7.0,4.242640687119285,0.734325647354126,0.8824083531948701
0,,101,2024-06-24 14:52:48,3,distance,cathedral,numerosity_judgement,1,49,3,countries_forward,"['_Yemen_', '_Oman_', '_Congo_']","['m', 'm', 'm']","['p318', 'p229', 'p256']","[7, 6, 10]","[91.73820004985969, 91.58892582949886, 93.00003341222717]",1,False,9.666666666666666,2.0816659994661326,0.7499475479125977,0.6298831006696175
