,event_id,subject_id,timestamp,session_index,plane,setup,task,block,trial_index,stim_number,stim_type,stim_country_ids,stim_sexes,stim_talker_ids,speaker_ids,stim_level,resp_number,is_correct,speaker_distance_mean,speaker_distance_st_dev,reaction_time,spectral_coverage
0,,sub_121,2024-08-02 15:53:12,3,distance,cathedral,numerosity_judgement,1,0,5,countries_reversed,"['_Belgium_reversed', '_Togo_reversed', '_Cuba_reversed', '_Oman_reversed', '_Mali_reversed']","['m', 'f', 'm', 'm', 'm']","['p229', 'p284', 'p318', 'p307', 'p256']","[7, 8, 5, 6, 4]","[91.73820004985969, 92.0152836843556, 90.34149293193902, 91.58892582949886, 89.31368318402099]",3.0,False,8.0,1.5811388300841898,2.2498667240142822,0.7994098286233118
0,,sub_121,2024-08-02 15:53:15,3,distance,cathedral,numerosity_judgement,1,1,3,countries_reversed,"['_Japan_reversed', '_Oman_reversed', '_Belgium_reversed']","['f', 'f', 'm']","['p284', 'p268', 'p256']","[6, 10, 4]","[91.58892582949886, 93.00003341222717, 89.31368318402099]",3.0,True,8.666666666666666,3.055050463303893,1.7498791217803955,0.8875950516399954
0,,sub_121,2024-08-02 15:53:19,3,distance,cathedral,numerosity_judgement,1,2,6,countries_reversed,"['_Japan_reversed', '_Cuba_reversed', '_Yemen_reversed', '_Tonga_reversed', '_Mali_reversed', '_Belgium_reversed']","['f', 'f', 'f', 'm', 'f', 'm']","['p248', 'p284', 'p245', 'p318', 'p268', 'p256']","[1, 2, 0, 5, 10, 4]","[86.2038576498559, 87.57049330475357, 84.40078082039426, 90.34149293193902, 93.00003341222717, 89.31368318402099]",4.0,False,5.666666666666667,3.6147844564602556,2.312340497970581,0.9302462830552718
0,,sub_121,2024-08-02 15:53:23,3,distance,cathedral,numerosity_judgement,1,3,2,countries_reversed,"['_Yemen_reversed', '_Oman_reversed']","['f', 'f']","['p268', 'p248']","[6, 4]","[91.58892582949886, 89.31368318402099]",2.0,True,7.0,1.4142135623730951,2.4998257160186768,0.6817273862217682
0,,sub_121,2024-08-02 15:53:27,3,distance,cathedral,numerosity_judgement,1,4,4,countries_reversed,"['_Mali_reversed', '_Oman_reversed', '_Britain_reversed', '_Peru_reversed']","['m', 'm', 'm', 'f']","['p318', 'p307', 'p256', 'p248']","[1, 5, 8, 3]","[86.2038576498559, 90.34149293193902, 92.0152836843556, 89.14911522239515]",2.0,False,6.25,2.9860788111948193,3.2497763633728027,0.6719441607082056
0,,sub_121,2024-08-02 15:53:30,3,distance,cathedral,numerosity_judgement,1,5,3,countries_reversed,"['_Britain_reversed', '_Cuba_reversed', '_Oman_reversed']","['f', 'm', 'm']","['p248', 'p256', 'p307']","[7, 8, 4]","[91.73820004985969, 92.0152836843556, 89.31368318402099]",3.0,True,8.333333333333334,2.0816659994661326,1.3749268054962158,0.6941777323799796
0,,sub_121,2024-08-02 15:53:34,3,distance,cathedral,numerosity_judgement,1,6,5,countries_reversed,"['_Peru_reversed', '_Belgium_reversed', '_Sudan_reversed', '_Cuba_reversed', '_Syria_reversed']","['f', 'm', 'f', 'm', 'f']","['p245', 'p229', 'p284', 'p318', 'p268']","[1, 4, 10, 8, 2]","[86.2038576498559, 89.31368318402099, 93.00003341222717, 92.0152836843556, 87.57049330475357]",3.0,False,7.0,3.872983346207417,3.3747904300689697,0.9468959255476108
0,,sub_121,2024-08-02 15:53:37,3,distance,cathedral,numerosity_judgement,1,7,4,countries_reversed,"['_Togo_reversed', '_Yemen_reversed', '_Sudan_reversed', '_Cuba_reversed']","['f', 'm', 'f', 'm']","['p248', 'p229', 'p268', 'p307']","[10, 5, 0, 7]","[93.00003341222717, 90.34149293193902, 84.40078082039426, 91.73820004985969]",2.0,False,7.5,4.203173404306164,1.5623719692230225,0.7270116899330382
0,,sub_121,2024-08-02 15:53:40,3,distance,cathedral,numerosity_judgement,1,8,2,countries_reversed,"['_Cuba_reversed', '_Japan_reversed']","['f', 'f']","['p284', 'p248']","[9, 8]","[92.00610777531934, 92.0152836843556]",2.0,True,10.5,0.7071067811865476,1.749901533126831,0.793076835773465
0,,sub_121,2024-08-02 15:53:45,3,distance,cathedral,numerosity_judgement,1,9,6,countries_reversed,"['_Sudan_reversed', '_Syria_reversed', '_Yemen_reversed', '_Oman_reversed', '_Congo_reversed', '_Japan_reversed']","['f', 'm', 'm', 'm', 'f', 'f']","['p245', 'p229', 'p256', 'p318', 'p268', 'p284']","[8, 7, 9, 5, 10, 1]","[92.0152836843556, 91.73820004985969, 92.00610777531934, 90.34149293193902, 93.00003341222717, 86.2038576498559]",4.0,False,8.666666666666666,3.265986323710904,3.2497966289520264,0.872193848598343
0,,sub_121,2024-08-02 15:53:48,3,distance,cathedral,numerosity_judgement,1,10,4,countries_reversed,"['_Peru_reversed', '_Yemen_reversed', '_Britain_reversed', '_Congo_reversed']","['m', 'm', 'f', 'm']","['p307', 'p229', 'p245', 'p256']","[3, 6, 8, 2]","[89.14911522239515, 91.58892582949886, 92.0152836843556, 87.57049330475357]",2.0,False,6.75,2.753785273643051,1.6873829364776611,0.6608330495970945
0,,sub_121,2024-08-02 15:53:51,3,distance,cathedral,numerosity_judgement,1,11,6,countries_reversed,"['_Sudan_reversed', '_Oman_reversed', '_Mali_reversed', '_Belgium_reversed', '_Yemen_reversed', '_Japan_reversed']","['f', 'm', 'f', 'm', 'f', 'm']","['p268', 'p307', 'p284', 'p256', 'p245', 'p229']","[9, 0, 2, 7, 1, 5]","[92.00610777531934, 84.40078082039426, 87.57049330475357, 91.73820004985969, 86.2038576498559, 90.34149293193902]",4.0,False,6.0,3.5777087639996634,1.562373161315918,0.9558960390421064
0,,sub_121,2024-08-02 15:53:54,3,distance,cathedral,numerosity_judgement,1,12,3,countries_reversed,"['_Britain_reversed', '_Cuba_reversed', '_Yemen_reversed']","['f', 'f', 'm']","['p245', 'p268', 'p307']","[7, 3, 6]","[91.73820004985969, 89.14911522239515, 91.58892582949886]",3.0,True,7.333333333333333,2.0816659994661326,2.312343120574951,0.6668482578594939
0,,sub_121,2024-08-02 15:53:58,3,distance,cathedral,numerosity_judgement,1,13,2,countries_reversed,"['_Congo_reversed', '_Sudan_reversed']","['f', 'm']","['p245', 'p256']","[4, 8]","[89.31368318402099, 92.0152836843556]",2.0,True,8.0,2.8284271247461903,2.812286615371704,0.7253887186471456
0,,sub_121,2024-08-02 15:54:03,3,distance,cathedral,numerosity_judgement,1,14,5,countries_reversed,"['_Cuba_reversed', '_Togo_reversed', '_Peru_reversed', '_Sudan_reversed', '_Syria_reversed']","['f', 'f', 'f', 'm', 'm']","['p245', 'p268', 'p248', 'p307', 'p256']","[0, 7, 9, 1, 10]","[84.40078082039426, 91.73820004985969, 92.00610777531934, 86.2038576498559, 93.00003341222717]",4.0,False,7.4,4.61519230368573,3.8747546672821045,0.7926342072409488
0,,sub_121,2024-08-02 15:54:09,3,distance,cathedral,numerosity_judgement,1,15,4,countries_reversed,"['_Yemen_reversed', '_Oman_reversed', '_Mali_reversed', '_Togo_reversed']","['f', 'f', 'm', 'm']","['p284', 'p245', 'p318', 'p229']","[2, 1, 0, 7]","[87.57049330475357, 86.2038576498559, 84.40078082039426, 91.73820004985969]",3.0,False,4.5,3.1091263510296048,4.124715805053711,0.7980138463284531
0,,sub_121,2024-08-02 15:54:12,3,distance,cathedral,numerosity_judgement,1,16,3,countries_reversed,"['_Oman_reversed', '_Mali_reversed', '_Yemen_reversed']","['f', 'm', 'f']","['p284', 'p256', 'p248']","[7, 4, 6]","[91.73820004985969, 89.31368318402099, 91.58892582949886]",2.0,False,7.666666666666667,1.5275252316519465,2.374817371368408,0.7458744750879582
0,,sub_121,2024-08-02 15:54:15,3,distance,cathedral,numerosity_judgement,1,17,5,countries_reversed,"['_Peru_reversed', '_Syria_reversed', '_Cuba_reversed', '_Yemen_reversed', '_Togo_reversed']","['f', 'm', 'f', 'f', 'm']","['p284', 'p256', 'p245', 'p248', 'p229']","[3, 5, 6, 7, 8]","[89.14911522239515, 90.34149293193902, 91.58892582949886, 91.73820004985969, 92.0152836843556]",3.0,False,7.8,1.9235384061671346,1.687364101409912,0.7078651685393258
0,,sub_121,2024-08-02 15:54:20,3,distance,cathedral,numerosity_judgement,1,18,2,countries_reversed,"['_Britain_reversed', '_Togo_reversed']","['f', 'm']","['p284', 'p229']","[8, 0]","[92.0152836843556, 84.40078082039426]",3.0,False,6.0,5.656854249492381,3.6247503757476807,0.9388151174668028
0,,sub_121,2024-08-02 15:54:25,3,distance,cathedral,numerosity_judgement,1,19,6,countries_reversed,"['_Togo_reversed', '_Japan_reversed', '_Tonga_reversed', '_Syria_reversed', '_Yemen_reversed', '_Cuba_reversed']","['f', 'm', 'm', 'f', 'f', 'f']","['p284', 'p307', 'p256', 'p245', 'p268', 'p248']","[4, 7, 5, 6, 3, 2]","[89.31368318402099, 91.73820004985969, 90.34149293193902, 91.58892582949886, 89.14911522239515, 87.57049330475357]",3.0,False,6.5,1.8708286933869707,3.3747684955596924,0.714708886618999
0,,sub_121,2024-08-02 15:54:28,3,distance,cathedral,numerosity_judgement,1,20,5,countries_reversed,"['_Syria_reversed', '_Oman_reversed', '_Congo_reversed', '_Tonga_reversed', '_Cuba_reversed']","['f', 'm', 'f', 'm', 'f']","['p268', 'p229', 'p248', 'p256', 'p245']","[10, 4, 8, 6, 7]","[93.00003341222717, 89.31368318402099, 92.0152836843556, 91.58892582949886, 91.73820004985969]",4.0,False,9.0,2.23606797749979,1.437422275543213,0.7485302462830553
0,,sub_121,2024-08-02 15:54:30,3,distance,cathedral,numerosity_judgement,1,21,3,countries_reversed,"['_Oman_reversed', '_Belgium_reversed', '_Yemen_reversed']","['f', 'm', 'm']","['p268', 'p229', 'p307']","[4, 1, 7]","[89.31368318402099, 86.2038576498559, 91.73820004985969]",2.0,False,6.0,3.0,1.3749051094055176,0.8446714334354783
0,,sub_121,2024-08-02 15:54:33,3,distance,cathedral,numerosity_judgement,1,22,4,countries_reversed,"['_Oman_reversed', '_Belgium_reversed', '_Togo_reversed', '_Congo_reversed']","['m', 'f', 'f', 'f']","['p229', 'p268', 'p248', 'p284']","[3, 0, 5, 8]","[89.14911522239515, 84.40078082039426, 90.34149293193902, 92.0152836843556]",3.0,False,6.0,3.366501646120693,1.6873841285705566,0.9138236295539668
0,,sub_121,2024-08-02 15:54:38,3,distance,cathedral,numerosity_judgement,1,23,2,countries_reversed,"['_Cuba_reversed', '_Yemen_reversed']","['m', 'm']","['p307', 'p256']","[7, 0]","[91.73820004985969, 84.40078082039426]",2.0,True,5.5,4.949747468305833,4.062220335006714,0.6241289297469073
0,,sub_121,2024-08-02 15:54:44,3,distance,cathedral,numerosity_judgement,1,24,6,countries_reversed,"['_Peru_reversed', '_Tonga_reversed', '_Congo_reversed', '_Syria_reversed', '_Belgium_reversed', '_Oman_reversed']","['m', 'm', 'f', 'f', 'm', 'f']","['p318', 'p256', 'p268', 'p284', 'p307', 'p245']","[4, 3, 6, 5, 10, 8]","[89.31368318402099, 89.14911522239515, 91.58892582949886, 90.34149293193902, 93.00003341222717, 92.0152836843556]",3.0,False,8.0,2.6076809620810595,4.062201023101807,0.8273748723186926
0,,sub_121,2024-08-02 15:54:50,3,distance,cathedral,numerosity_judgement,1,25,3,countries_reversed,"['_Yemen_reversed', '_Tonga_reversed', '_Belgium_reversed']","['m', 'f', 'm']","['p307', 'p248', 'p256']","[8, 6, 9]","[92.0152836843556, 91.58892582949886, 92.00610777531934]",3.0,True,9.666666666666666,1.5275252316519468,4.687199354171753,0.761752355010782
0,,sub_121,2024-08-02 15:54:55,3,distance,cathedral,numerosity_judgement,1,26,6,countries_reversed,"['_Togo_reversed', '_Oman_reversed', '_Peru_reversed', '_Yemen_reversed', '_Congo_reversed', '_Syria_reversed']","['m', 'm', 'm', 'f', 'm', 'f']","['p307', 'p256', 'p318', 'p245', 'p229', 'p284']","[0, 8, 9, 1, 3, 2]","[84.40078082039426, 92.0152836843556, 92.00610777531934, 86.2038576498559, 89.14911522239515, 87.57049330475357]",3.0,False,5.833333333333333,3.763863263545405,3.8747329711914062,0.8994211780728635
0,,sub_121,2024-08-02 15:55:00,3,distance,cathedral,numerosity_judgement,1,27,4,countries_reversed,"['_Syria_reversed', '_Congo_reversed', '_Sudan_reversed', '_Togo_reversed']","['f', 'f', 'm', 'm']","['p245', 'p268', 'p318', 'p307']","[0, 2, 8, 4]","[84.40078082039426, 87.57049330475357, 92.0152836843556, 89.31368318402099]",2.0,False,5.5,3.415650255319866,3.6247501373291016,0.8573147202360686
0,,sub_121,2024-08-02 15:55:02,3,distance,cathedral,numerosity_judgement,1,28,2,countries_reversed,"['_Syria_reversed', '_Japan_reversed']","['f', 'm']","['p245', 'p229']","[3, 9]","[89.14911522239515, 92.00610777531934]",2.0,True,8.0,4.242640687119285,1.499896764755249,0.8778004766768812
0,,sub_121,2024-08-02 15:55:05,3,distance,cathedral,numerosity_judgement,1,29,5,countries_reversed,"['_Togo_reversed', '_Peru_reversed', '_Congo_reversed', '_Mali_reversed', '_Cuba_reversed']","['m', 'm', 'f', 'f', 'm']","['p256', 'p318', 'p268', 'p248', 'p307']","[3, 10, 5, 0, 4]","[89.14911522239515, 93.00003341222717, 90.34149293193902, 84.40078082039426, 89.31368318402099]",5.0,True,6.4,3.646916505762094,1.4373793601989746,0.89056860742254
0,,sub_121,2024-08-02 15:55:08,3,distance,cathedral,numerosity_judgement,1,30,2,countries_reversed,"['_Syria_reversed', '_Mali_reversed']","['m', 'm']","['p256', 'p229']","[9, 5]","[92.00610777531934, 90.34149293193902]",2.0,True,9.0,2.8284271247461903,1.6874010562896729,0.9123709000113496
0,,sub_121,2024-08-02 15:55:11,3,distance,cathedral,numerosity_judgement,1,31,5,countries_reversed,"['_Tonga_reversed', '_Japan_reversed', '_Peru_reversed', '_Yemen_reversed', '_Cuba_reversed']","['f', 'f', 'm', 'm', 'f']","['p245', 'p248', 'p318', 'p229', 'p284']","[5, 7, 1, 2, 3]","[90.34149293193902, 91.73820004985969, 86.2038576498559, 87.57049330475357, 89.14911522239515]",4.0,False,5.6,2.4083189157584592,1.6873624324798584,0.7167631369878561
0,,sub_121,2024-08-02 15:55:15,3,distance,cathedral,numerosity_judgement,1,32,6,countries_reversed,"['_Syria_reversed', '_Yemen_reversed', '_Oman_reversed', '_Peru_reversed', '_Sudan_reversed', '_Cuba_reversed']","['m', 'f', 'm', 'f', 'f', 'm']","['p256', 'p248', 'p307', 'p268', 'p284', 'p318']","[2, 3, 5, 6, 0, 10]","[87.57049330475357, 89.14911522239515, 90.34149293193902, 91.58892582949886, 84.40078082039426, 93.00003341222717]",4.0,False,6.333333333333333,3.5023801430836525,2.9997739791870117,0.6612870275791624
0,,sub_121,2024-08-02 15:55:20,3,distance,cathedral,numerosity_judgement,1,33,4,countries_reversed,"['_Cuba_reversed', '_Togo_reversed', '_Mali_reversed', '_Peru_reversed']","['f', 'f', 'f', 'm']","['p248', 'p268', 'p284', 'p307']","[7, 6, 9, 0]","[91.73820004985969, 91.58892582949886, 92.00610777531934, 84.40078082039426]",3.0,False,7.5,3.872983346207417,3.6247506141662598,0.899511973669277
0,,sub_121,2024-08-02 15:55:26,3,distance,cathedral,numerosity_judgement,1,34,3,countries_reversed,"['_Cuba_reversed', '_Yemen_reversed', '_Peru_reversed']","['f', 'm', 'f']","['p284', 'p318', 'p268']","[5, 1, 4]","[90.34149293193902, 86.2038576498559, 89.31368318402099]",3.0,True,5.333333333333333,2.0816659994661326,4.624680757522583,0.7957439564181137
0,,sub_121,2024-08-02 15:55:31,3,distance,cathedral,numerosity_judgement,1,35,4,countries_reversed,"['_Japan_reversed', '_Congo_reversed', '_Britain_reversed', '_Mali_reversed']","['f', 'm', 'f', 'f']","['p245', 'p307', 'p284', 'p268']","[0, 8, 10, 7]","[84.40078082039426, 92.0152836843556, 93.00003341222717, 91.73820004985969]",4.0,True,8.25,4.349329450233296,4.0621984004974365,0.9402451481103168
0,,sub_121,2024-08-02 15:55:38,3,distance,cathedral,numerosity_judgement,1,36,6,countries_reversed,"['_Belgium_reversed', '_Mali_reversed', '_Britain_reversed', '_Cuba_reversed', '_Peru_reversed', '_Yemen_reversed']","['m', 'm', 'm', 'f', 'f', 'f']","['p307', 'p256', 'p318', 'p268', 'p245', 'p284']","[7, 5, 3, 1, 8, 9]","[91.73820004985969, 90.34149293193902, 89.14911522239515, 86.2038576498559, 92.0152836843556, 92.00610777531934]",4.0,False,7.5,3.082207001484488,4.905892372131348,0.7314266258086483
0,,sub_121,2024-08-02 15:55:42,3,distance,cathedral,numerosity_judgement,1,37,3,countries_reversed,"['_Congo_reversed', '_Peru_reversed', '_Syria_reversed']","['m', 'm', 'f']","['p307', 'p229', 'p284']","[1, 0, 4]","[86.2038576498559, 84.40078082039426, 89.31368318402099]",2.0,False,3.6666666666666665,2.081665999466133,2.374835968017578,0.9377028714107366
0,,sub_121,2024-08-02 15:55:45,3,distance,cathedral,numerosity_judgement,1,38,2,countries_reversed,"['_Peru_reversed', '_Cuba_reversed']","['m', 'f']","['p307', 'p245']","[2, 7]","[87.57049330475357, 91.73820004985969]",2.0,True,6.5,3.5355339059327378,1.7498841285705566,0.575076608784474
0,,sub_121,2024-08-02 15:55:52,3,distance,cathedral,numerosity_judgement,1,39,5,countries_reversed,"['_Cuba_reversed', '_Congo_reversed', '_Japan_reversed', '_Britain_reversed', '_Togo_reversed']","['f', 'm', 'm', 'f', 'm']","['p245', 'p307', 'p256', 'p248', 'p229']","[2, 9, 7, 1, 8]","[87.57049330475357, 92.00610777531934, 91.73820004985969, 86.2038576498559, 92.0152836843556]",3.0,False,7.4,3.6469165057620936,6.187092542648315,0.8340823970037453
0,,sub_121,2024-08-02 15:55:55,3,distance,cathedral,numerosity_judgement,1,40,2,countries_reversed,"['_Tonga_reversed', '_Japan_reversed']","['m', 'f']","['p256', 'p248']","[6, 10]","[91.58892582949886, 93.00003341222717]",2.0,True,10.0,2.8284271247461903,1.6873841285705566,0.8532516172965611
0,,sub_121,2024-08-02 15:55:58,3,distance,cathedral,numerosity_judgement,1,41,3,countries_reversed,"['_Cuba_reversed', '_Oman_reversed', '_Yemen_reversed']","['m', 'm', 'f']","['p307', 'p256', 'p284']","[7, 8, 10]","[91.73820004985969, 92.0152836843556, 93.00003341222717]",4.0,False,10.333333333333334,1.5275252316519468,2.1248536109924316,0.6293837248893429
0,,sub_121,2024-08-02 15:56:02,3,distance,cathedral,numerosity_judgement,1,42,5,countries_reversed,"['_Belgium_reversed', '_Peru_reversed', '_Sudan_reversed', '_Togo_reversed', '_Syria_reversed']","['f', 'f', 'f', 'm', 'f']","['p284', 'p248', 'p245', 'p256', 'p268']","[0, 1, 4, 6, 5]","[84.40078082039426, 86.2038576498559, 89.31368318402099, 91.58892582949886, 90.34149293193902]",3.0,False,5.2,2.588435821108957,1.9998621940612793,0.955237770968108
0,,sub_121,2024-08-02 15:56:05,3,distance,cathedral,numerosity_judgement,1,43,6,countries_reversed,"['_Peru_reversed', '_Japan_reversed', '_Togo_reversed', '_Oman_reversed', '_Syria_reversed', '_Cuba_reversed']","['f', 'f', 'f', 'm', 'm', 'm']","['p268', 'p245', 'p284', 'p307', 'p256', 'p318']","[6, 0, 5, 4, 9, 10]","[91.58892582949886, 84.40078082039426, 90.34149293193902, 89.31368318402099, 92.00610777531934, 93.00003341222717]",5.0,False,7.666666666666667,3.6147844564602556,2.1248538494110107,0.7537963908750426
0,,sub_121,2024-08-02 15:56:08,3,distance,cathedral,numerosity_judgement,1,44,4,countries_reversed,"['_Oman_reversed', '_Togo_reversed', '_Cuba_reversed', '_Mali_reversed']","['m', 'f', 'f', 'f']","['p318', 'p284', 'p268', 'p245']","[3, 8, 2, 10]","[89.14911522239515, 92.0152836843556, 87.57049330475357, 93.00003341222717]",3.0,False,7.75,3.8622100754188224,1.9998841285705566,0.736715469299739
0,,sub_121,2024-08-02 15:56:11,3,distance,cathedral,numerosity_judgement,1,45,5,countries_reversed,"['_Togo_reversed', '_Tonga_reversed', '_Oman_reversed', '_Mali_reversed', '_Yemen_reversed']","['f', 'm', 'm', 'm', 'f']","['p245', 'p256', 'p307', 'p318', 'p248']","[10, 3, 6, 9, 5]","[93.00003341222717, 89.14911522239515, 91.58892582949886, 92.00610777531934, 90.34149293193902]",5.0,True,8.6,2.8809720581775866,1.8123559951782227,0.6536828963795256
0,,sub_121,2024-08-02 15:56:14,3,distance,cathedral,numerosity_judgement,1,46,2,countries_reversed,"['_Yemen_reversed', '_Britain_reversed']","['f', 'm']","['p248', 'p256']","[9, 5]","[92.00610777531934, 90.34149293193902]",2.0,True,9.0,2.8284271247461903,1.8123753070831299,0.7481216660991942
0,,sub_121,2024-08-02 15:56:18,3,distance,cathedral,numerosity_judgement,1,47,3,countries_reversed,"['_Tonga_reversed', '_Congo_reversed', '_Britain_reversed']","['f', 'm', 'f']","['p268', 'p318', 'p245']","[0, 7, 9]","[84.40078082039426, 91.73820004985969, 92.00610777531934]",3.0,True,7.333333333333333,4.725815626252608,2.6247990131378174,0.94595392123482
0,,sub_121,2024-08-02 15:56:21,3,distance,cathedral,numerosity_judgement,1,48,4,countries_reversed,"['_Britain_reversed', '_Oman_reversed', '_Yemen_reversed', '_Congo_reversed']","['f', 'f', 'f', 'm']","['p284', 'p245', 'p268', 'p307']","[1, 10, 5, 2]","[86.2038576498559, 93.00003341222717, 90.34149293193902, 87.57049330475357]",4.0,True,6.5,4.041451884327381,1.6279618740081787,0.6935194643059812
0,,sub_121,2024-08-02 15:56:24,3,distance,cathedral,numerosity_judgement,1,49,6,countries_reversed,"['_Congo_reversed', '_Mali_reversed', '_Belgium_reversed', '_Yemen_reversed', '_Peru_reversed', '_Cuba_reversed']","['f', 'f', 'f', 'm', 'm', 'm']","['p268', 'p248', 'p284', 'p229', 'p307', 'p318']","[2, 8, 10, 0, 6, 9]","[87.57049330475357, 92.0152836843556, 93.00003341222717, 84.40078082039426, 91.58892582949886, 92.00610777531934]",5.0,False,7.833333333333333,4.02077936060494,1.8123555183410645,0.8637385086823289
0,,sub_121,2024-08-02 15:56:29,3,distance,cathedral,numerosity_judgement,1,50,5,countries_reversed,"['_Congo_reversed', '_Tonga_reversed', '_Yemen_reversed', '_Mali_reversed', '_Britain_reversed']","['f', 'f', 'f', 'f', 'm']","['p248', 'p245', 'p284', 'p268', 'p307']","[4, 3, 1, 7, 0]","[89.31368318402099, 89.14911522239515, 86.2038576498559, 91.73820004985969, 84.40078082039426]",4.0,False,5.0,2.7386127875258306,3.3747878074645996,0.772863466121893
0,,sub_121,2024-08-02 15:56:32,3,distance,cathedral,numerosity_judgement,1,51,3,countries_reversed,"['_Peru_reversed', '_Togo_reversed', '_Tonga_reversed']","['m', 'f', 'f']","['p256', 'p248', 'p268']","[0, 7, 4]","[84.40078082039426, 91.73820004985969, 89.31368318402099]",2.0,False,5.666666666666667,3.5118845842842465,2.0623555183410645,0.9187606401089548
0,,sub_121,2024-08-02 15:56:36,3,distance,cathedral,numerosity_judgement,1,52,6,countries_reversed,"['_Yemen_reversed', '_Tonga_reversed', '_Mali_reversed', '_Togo_reversed', '_Britain_reversed', '_Cuba_reversed']","['m', 'f', 'f', 'm', 'm', 'm']","['p307', 'p248', 'p245', 'p256', 'p318', 'p229']","[6, 7, 1, 2, 4, 5]","[91.58892582949886, 91.73820004985969, 86.2038576498559, 87.57049330475357, 89.31368318402099, 90.34149293193902]",6.0,True,6.166666666666667,2.316606713852541,3.0623085498809814,0.7777210305300193
0,,sub_121,2024-08-02 15:56:39,3,distance,cathedral,numerosity_judgement,1,53,4,countries_reversed,"['_Oman_reversed', '_Yemen_reversed', '_Britain_reversed', '_Mali_reversed']","['m', 'm', 'm', 'm']","['p229', 'p318', 'p307', 'p256']","[5, 7, 9, 6]","[90.34149293193902, 91.73820004985969, 92.00610777531934, 91.58892582949886]",6.0,False,8.75,1.707825127659933,1.2499332427978516,0.6135966405629327
0,,sub_121,2024-08-02 15:56:42,3,distance,cathedral,numerosity_judgement,1,54,2,countries_reversed,"['_Oman_reversed', '_Yemen_reversed']","['m', 'f']","['p318', 'p245']","[8, 5]","[92.0152836843556, 90.34149293193902]",5.0,False,8.5,2.1213203435596424,1.9373445510864258,0.7589263420724095
0,,sub_121,2024-08-02 15:56:45,3,distance,cathedral,numerosity_judgement,1,55,4,countries_reversed,"['_Mali_reversed', '_Congo_reversed', '_Tonga_reversed', '_Cuba_reversed']","['f', 'm', 'f', 'm']","['p284', 'p229', 'p248', 'p256']","[2, 5, 4, 10]","[87.57049330475357, 90.34149293193902, 89.31368318402099, 93.00003341222717]",4.0,True,7.25,3.4034296427770228,1.562394380569458,0.7777210305300193
0,,sub_121,2024-08-02 15:56:48,3,distance,cathedral,numerosity_judgement,1,56,5,countries_reversed,"['_Peru_reversed', '_Britain_reversed', '_Mali_reversed', '_Yemen_reversed', '_Oman_reversed']","['f', 'm', 'f', 'm', 'f']","['p245', 'p256', 'p268', 'p307', 'p248']","[1, 10, 4, 7, 2]","[86.2038576498559, 93.00003341222717, 89.31368318402099, 91.73820004985969, 87.57049330475357]",3.0,False,6.8,3.7013511046643495,1.4374208450317383,0.6829304278742481
0,,sub_121,2024-08-02 15:56:51,3,distance,cathedral,numerosity_judgement,1,57,2,countries_reversed,"['_Oman_reversed', '_Yemen_reversed']","['f', 'f']","['p245', 'p248']","[6, 0]","[91.58892582949886, 84.40078082039426]",2.0,True,5.0,4.242640687119285,2.12485408782959,0.6441266598569969
0,,sub_121,2024-08-02 15:56:54,3,distance,cathedral,numerosity_judgement,1,58,3,countries_reversed,"['_Oman_reversed', '_Peru_reversed', '_Yemen_reversed']","['f', 'f', 'm']","['p245', 'p268', 'p307']","[5, 7, 2]","[90.34149293193902, 91.73820004985969, 87.57049330475357]",3.0,True,6.666666666666667,2.516611478423583,1.687382459640503,0.7282828282828283
0,,sub_121,2024-08-02 15:56:57,3,distance,cathedral,numerosity_judgement,1,59,6,countries_reversed,"['_Cuba_reversed', '_Belgium_reversed', '_Congo_reversed', '_Tonga_reversed', '_Japan_reversed', '_Togo_reversed']","['m', 'f', 'm', 'f', 'm', 'f']","['p256', 'p248', 'p307', 'p268', 'p318', 'p245']","[10, 6, 4, 8, 9, 1]","[93.00003341222717, 91.58892582949886, 89.31368318402099, 92.0152836843556, 92.00610777531934, 86.2038576498559]",4.0,False,8.333333333333334,3.3862466931200785,1.6249079704284668,0.8183634093746454
0,,sub_121,2024-08-02 15:57:01,3,distance,cathedral,numerosity_judgement,1,60,4,countries_reversed,"['_Tonga_reversed', '_Yemen_reversed', '_Japan_reversed', '_Syria_reversed']","['m', 'm', 'm', 'f']","['p318', 'p256', 'p229', 'p284']","[3, 6, 7, 4]","[89.14911522239515, 91.58892582949886, 91.73820004985969, 89.31368318402099]",5.0,False,7.0,1.8257418583505538,2.812326431274414,0.8453637498581319
0,,sub_121,2024-08-02 15:57:03,3,distance,cathedral,numerosity_judgement,1,61,3,countries_reversed,"['_Mali_reversed', '_Oman_reversed', '_Yemen_reversed']","['m', 'm', 'm']","['p318', 'p229', 'p256']","[8, 6, 3]","[92.0152836843556, 91.58892582949886, 89.14911522239515]",5.0,False,7.666666666666667,2.516611478423583,1.3749265670776367,0.6290886392009988
0,,sub_121,2024-08-02 15:57:06,3,distance,cathedral,numerosity_judgement,1,62,5,countries_reversed,"['_Congo_reversed', '_Oman_reversed', '_Tonga_reversed', '_Japan_reversed', '_Syria_reversed']","['f', 'm', 'm', 'f', 'm']","['p245', 'p318', 'p256', 'p248', 'p307']","[9, 5, 6, 4, 3]","[92.00610777531934, 90.34149293193902, 91.58892582949886, 89.31368318402099, 89.14911522239515]",4.0,False,7.4,2.3021728866442674,1.7498812675476074,0.8643059811599137
0,,sub_121,2024-08-02 15:57:10,3,distance,cathedral,numerosity_judgement,1,63,6,countries_reversed,"['_Tonga_reversed', '_Japan_reversed', '_Oman_reversed', '_Mali_reversed', '_Congo_reversed', '_Cuba_reversed']","['f', 'f', 'f', 'f', 'm', 'm']","['p268', 'p248', 'p284', 'p245', 'p318', 'p307']","[6, 10, 2, 5, 1, 7]","[91.58892582949886, 93.00003341222717, 87.57049330475357, 90.34149293193902, 86.2038576498559, 91.73820004985969]",4.0,False,7.166666666666667,3.3115957885386114,2.0623583793640137,0.6877879922823743
0,,sub_121,2024-08-02 15:57:13,3,distance,cathedral,numerosity_judgement,1,64,2,countries_reversed,"['_Sudan_reversed', '_Belgium_reversed']","['f', 'm']","['p284', 'p229']","[7, 2]","[91.73820004985969, 87.57049330475357]",2.0,True,6.5,3.5355339059327378,2.374835968017578,0.9680739984110772
0,,sub_121,2024-08-02 15:57:17,3,distance,cathedral,numerosity_judgement,1,65,4,countries_reversed,"['_Peru_reversed', '_Cuba_reversed', '_Sudan_reversed', '_Japan_reversed']","['m', 'm', 'f', 'm']","['p307', 'p256', 'p284', 'p229']","[2, 1, 0, 6]","[87.57049330475357, 86.2038576498559, 84.40078082039426, 91.58892582949886]",2.0,False,4.25,2.6299556396765835,2.124872922897339,0.9524912041765974
0,,sub_121,2024-08-02 15:57:22,3,distance,cathedral,numerosity_judgement,1,66,2,countries_reversed,"['_Congo_reversed', '_Belgium_reversed']","['m', 'f']","['p256', 'p245']","[3, 7]","[89.14911522239515, 91.73820004985969]",3.0,False,7.0,2.8284271247461903,4.499690294265747,0.8160481216660992
0,,sub_121,2024-08-02 15:57:26,3,distance,cathedral,numerosity_judgement,1,67,6,countries_reversed,"['_Cuba_reversed', '_Tonga_reversed', '_Mali_reversed', '_Peru_reversed', '_Syria_reversed', '_Sudan_reversed']","['m', 'm', 'f', 'm', 'f', 'm']","['p307', 'p256', 'p284', 'p318', 'p248', 'p229']","[1, 9, 6, 3, 2, 10]","[86.2038576498559, 92.00610777531934, 91.58892582949886, 89.14911522239515, 87.57049330475357, 93.00003341222717]",4.0,False,7.166666666666667,3.763863263545405,2.5623044967651367,0.9126319373510384
0,,sub_121,2024-08-02 15:57:30,3,distance,cathedral,numerosity_judgement,1,68,3,countries_reversed,"['_Yemen_reversed', '_Oman_reversed', '_Tonga_reversed']","['m', 'm', 'f']","['p256', 'p307', 'p245']","[2, 5, 10]","[87.57049330475357, 90.34149293193902, 93.00003341222717]",3.0,True,7.666666666666667,4.041451884327381,2.499847173690796,0.5832936102599023
0,,sub_121,2024-08-02 15:57:33,3,distance,cathedral,numerosity_judgement,1,69,5,countries_reversed,"['_Peru_reversed', '_Mali_reversed', '_Belgium_reversed', '_Sudan_reversed', '_Tonga_reversed']","['m', 'f', 'm', 'f', 'f']","['p229', 'p268', 'p307', 'p245', 'p248']","[6, 9, 1, 3, 7]","[91.58892582949886, 92.00610777531934, 86.2038576498559, 89.14911522239515, 91.73820004985969]",2.0,False,7.2,3.1937438845342623,1.6874055862426758,0.9188060379071616
0,,sub_121,2024-08-02 15:57:40,3,distance,cathedral,numerosity_judgement,1,70,2,countries_reversed,"['_Congo_reversed', '_Cuba_reversed']","['f', 'f']","['p268', 'p245']","[4, 7]","[89.31368318402099, 91.73820004985969]",3.0,False,7.5,2.1213203435596424,5.499619007110596,0.6048462149585745
0,,sub_121,2024-08-02 15:57:45,3,distance,cathedral,numerosity_judgement,1,71,3,countries_reversed,"['_Mali_reversed', '_Peru_reversed', '_Belgium_reversed']","['f', 'f', 'm']","['p248', 'p268', 'p256']","[6, 3, 8]","[91.58892582949886, 89.14911522239515, 92.0152836843556]",2.0,False,7.666666666666667,2.516611478423583,4.312223672866821,0.8194075587334014
0,,sub_121,2024-08-02 15:57:48,3,distance,cathedral,numerosity_judgement,1,72,5,countries_reversed,"['_Congo_reversed', '_Peru_reversed', '_Britain_reversed', '_Japan_reversed', '_Tonga_reversed']","['f', 'm', 'f', 'm', 'm']","['p284', 'p307', 'p248', 'p256', 'p318']","[5, 3, 4, 9, 1]","[90.34149293193902, 89.14911522239515, 89.31368318402099, 92.00610777531934, 86.2038576498559]",4.0,False,6.4,2.9664793948382653,1.4998753070831299,0.8419362160935194
0,,sub_121,2024-08-02 15:57:51,3,distance,cathedral,numerosity_judgement,1,73,6,countries_reversed,"['_Belgium_reversed', '_Peru_reversed', '_Togo_reversed', '_Yemen_reversed', '_Cuba_reversed', '_Japan_reversed']","['f', 'f', 'f', 'm', 'm', 'f']","['p245', 'p268', 'p284', 'p318', 'p256', 'p248']","[3, 8, 7, 9, 10, 0]","[89.14911522239515, 92.0152836843556, 91.73820004985969, 92.00610777531934, 93.00003341222717, 84.40078082039426]",3.0,False,8.166666666666666,3.8686776379877745,1.5624136924743652,0.7997503121098627
0,,sub_121,2024-08-02 15:57:54,3,distance,cathedral,numerosity_judgement,1,74,4,countries_reversed,"['_Belgium_reversed', '_Japan_reversed', '_Congo_reversed', '_Cuba_reversed']","['m', 'f', 'm', 'f']","['p307', 'p245', 'p229', 'p268']","[8, 3, 2, 7]","[92.0152836843556, 89.14911522239515, 87.57049330475357, 91.73820004985969]",2.0,False,7.0,2.943920288775949,1.812396764755249,0.8209624333219839
0,,sub_121,2024-08-02 15:58:34,3,distance,cathedral,numerosity_judgement,2,0,2,countries_reversed,"['_Yemen_reversed', '_Oman_reversed']","['f', 'm']","['p284', 'p229']","[7, 6]","[91.73820004985969, 91.58892582949886]",3.0,False,8.5,0.7071067811865476,2.874802589416504,0.6040971512881625
0,,sub_121,2024-08-02 15:58:37,3,distance,cathedral,numerosity_judgement,2,1,4,countries_reversed,"['_Britain_reversed', '_Mali_reversed', '_Oman_reversed', '_Peru_reversed']","['m', 'm', 'm', 'f']","['p256', 'p307', 'p318', 'p245']","[10, 6, 2, 4]","[93.00003341222717, 91.58892582949886, 87.57049330475357, 89.31368318402099]",4.0,True,7.5,3.415650255319866,1.6873645782470703,0.7474974463738508
0,,sub_121,2024-08-02 15:58:40,3,distance,cathedral,numerosity_judgement,2,2,5,countries_reversed,"['_Oman_reversed', '_Mali_reversed', '_Peru_reversed', '_Yemen_reversed', '_Tonga_reversed']","['m', 'f', 'f', 'f', 'm']","['p318', 'p268', 'p245', 'p248', 'p256']","[8, 0, 7, 5, 4]","[92.0152836843556, 84.40078082039426, 91.73820004985969, 90.34149293193902, 89.31368318402099]",4.0,False,6.8,3.1144823004794877,1.6874053478240967,0.7505958461014641
0,,sub_121,2024-08-02 15:58:43,3,distance,cathedral,numerosity_judgement,2,3,6,countries_reversed,"['_Peru_reversed', '_Congo_reversed', '_Togo_reversed', '_Yemen_reversed', '_Japan_reversed', '_Belgium_reversed']","['m', 'm', 'm', 'f', 'f', 'm']","['p318', 'p307', 'p256', 'p245', 'p284', 'p229']","[4, 1, 3, 0, 2, 8]","[89.31368318402099, 86.2038576498559, 89.14911522239515, 84.40078082039426, 87.57049330475357, 92.0152836843556]",5.0,False,5.0,2.8284271247461903,1.9373466968536377,0.9359550561797751
0,,sub_121,2024-08-02 15:58:46,3,distance,cathedral,numerosity_judgement,2,4,3,countries_reversed,"['_Cuba_reversed', '_Yemen_reversed', '_Tonga_reversed']","['m', 'm', 'f']","['p307', 'p256', 'p245']","[9, 1, 5]","[92.00610777531934, 86.2038576498559, 90.34149293193902]",3.0,True,7.0,4.0,1.7498791217803955,0.7020315514697537
0,,sub_121,2024-08-02 15:58:49,3,distance,cathedral,numerosity_judgement,2,5,5,countries_reversed,"['_Britain_reversed', '_Syria_reversed', '_Tonga_reversed', '_Congo_reversed', '_Peru_reversed']","['f', 'f', 'm', 'm', 'm']","['p248', 'p268', 'p307', 'p318', 'p229']","[6, 2, 0, 4, 7]","[91.58892582949886, 87.57049330475357, 84.40078082039426, 89.31368318402099, 91.73820004985969]",4.0,False,5.8,2.863564212655271,1.5623931884765625,0.9639427987742596
0,,sub_121,2024-08-02 15:58:52,3,distance,cathedral,numerosity_judgement,2,6,4,countries_reversed,"['_Japan_reversed', '_Togo_reversed', '_Cuba_reversed', '_Mali_reversed']","['f', 'f', 'm', 'm']","['p248', 'p245', 'p318', 'p256']","[5, 0, 10, 9]","[90.34149293193902, 84.40078082039426, 93.00003341222717, 92.00610777531934]",4.0,True,8.0,4.546060565661952,1.562392234802246,0.8254454658949041
0,,sub_121,2024-08-02 15:58:55,3,distance,cathedral,numerosity_judgement,2,7,6,countries_reversed,"['_Peru_reversed', '_Yemen_reversed', '_Oman_reversed', '_Togo_reversed', '_Japan_reversed', '_Mali_reversed']","['f', 'm', 'm', 'm', 'f', 'f']","['p284', 'p307', 'p318', 'p229', 'p248', 'p268']","[9, 2, 3, 7, 8, 0]","[92.00610777531934, 87.57049330475357, 89.14911522239515, 91.73820004985969, 92.0152836843556, 84.40078082039426]",5.0,False,6.833333333333333,3.65604522218567,1.6248888969421387,0.8375439791170128
0,,sub_121,2024-08-02 15:58:59,3,distance,cathedral,numerosity_judgement,2,8,2,countries_reversed,"['_Congo_reversed', '_Sudan_reversed']","['f', 'f']","['p268', 'p284']","[8, 10]","[92.0152836843556, 93.00003341222717]",3.0,False,11.0,1.4142135623730951,2.3123414516448975,0.9193508114856428
0,,sub_121,2024-08-02 15:59:01,3,distance,cathedral,numerosity_judgement,2,9,3,countries_reversed,"['_Yemen_reversed', '_Oman_reversed', '_Tonga_reversed']","['m', 'm', 'f']","['p256', 'p307', 'p245']","[2, 5, 10]","[87.57049330475357, 90.34149293193902, 93.00003341222717]",3.0,True,7.666666666666667,4.041451884327381,1.3749256134033203,0.5832936102599023
0,,sub_121,2024-08-02 15:59:04,3,distance,cathedral,numerosity_judgement,2,10,5,countries_reversed,"['_Yemen_reversed', '_Cuba_reversed', '_Oman_reversed', '_Mali_reversed', '_Britain_reversed']","['f', 'm', 'm', 'm', 'm']","['p284', 'p229', 'p318', 'p256', 'p307']","[6, 3, 5, 2, 9]","[91.58892582949886, 89.14911522239515, 90.34149293193902, 87.57049330475357, 92.00610777531934]",4.0,False,7.0,2.7386127875258306,1.49989652633667,0.7608670979457496
0,,sub_121,2024-08-02 15:59:07,3,distance,cathedral,numerosity_judgement,2,11,3,countries_reversed,"['_Syria_reversed', '_Congo_reversed', '_Cuba_reversed']","['f', 'm', 'm']","['p268', 'p256', 'p307']","[10, 1, 5]","[93.00003341222717, 86.2038576498559, 90.34149293193902]",2.0,False,7.333333333333333,4.509249752822894,2.31234073638916,0.8111678583588696
0,,sub_121,2024-08-02 15:59:10,3,distance,cathedral,numerosity_judgement,2,12,6,countries_reversed,"['_Belgium_reversed', '_Peru_reversed', '_Syria_reversed', '_Congo_reversed', '_Oman_reversed', '_Sudan_reversed']","['m', 'f', 'f', 'm', 'f', 'f']","['p318', 'p248', 'p268', 'p229', 'p245', 'p284']","[7, 2, 5, 10, 9, 1]","[91.73820004985969, 87.57049330475357, 90.34149293193902, 93.00003341222717, 92.00610777531934, 86.2038576498559]",4.0,False,7.666666666666667,3.669695718539436,1.5624117851257324,0.9520485756440812
0,,sub_121,2024-08-02 15:59:13,3,distance,cathedral,numerosity_judgement,2,13,4,countries_reversed,"['_Mali_reversed', '_Oman_reversed', '_Sudan_reversed', '_Syria_reversed']","['f', 'f', 'f', 'm']","['p268', 'p284', 'p245', 'p229']","[5, 7, 4, 10]","[90.34149293193902, 91.73820004985969, 89.31368318402099, 93.00003341222717]",4.0,True,8.5,2.6457513110645907,1.4373784065246582,0.9378277153558052
0,,sub_121,2024-08-02 15:59:16,3,distance,cathedral,numerosity_judgement,2,14,2,countries_reversed,"['_Britain_reversed', '_Yemen_reversed']","['m', 'f']","['p256', 'p248']","[8, 6]","[92.0152836843556, 91.58892582949886]",2.0,True,9.0,1.4142135623730951,1.9373655319213867,0.6960617410055613
0,,sub_121,2024-08-02 15:59:19,3,distance,cathedral,numerosity_judgement,2,15,3,countries_reversed,"['_Sudan_reversed', '_Togo_reversed', '_Peru_reversed']","['m', 'f', 'f']","['p256', 'p268', 'p248']","[8, 5, 2]","[92.0152836843556, 90.34149293193902, 87.57049330475357]",2.0,False,7.0,3.0,1.7498984336853027,0.7723300419929633
0,,sub_121,2024-08-02 15:59:22,3,distance,cathedral,numerosity_judgement,2,16,6,countries_reversed,"['_Japan_reversed', '_Britain_reversed', '_Yemen_reversed', '_Belgium_reversed', '_Mali_reversed', '_Tonga_reversed']","['f', 'm', 'f', 'm', 'm', 'f']","['p268', 'p318', 'p284', 'p229', 'p307', 'p248']","[0, 2, 10, 7, 4, 5]","[84.40078082039426, 87.57049330475357, 93.00003341222717, 91.73820004985969, 89.31368318402099, 90.34149293193902]",3.0,False,6.666666666666667,3.559026084010437,1.9373865127563477,0.8729883100669618
0,,sub_121,2024-08-02 15:59:26,3,distance,cathedral,numerosity_judgement,2,17,5,countries_reversed,"['_Mali_reversed', '_Togo_reversed', '_Congo_reversed', '_Syria_reversed', '_Tonga_reversed']","['f', 'm', 'm', 'f', 'f']","['p245', 'p256', 'p229', 'p248', 'p284']","[5, 0, 8, 6, 4]","[90.34149293193902, 84.40078082039426, 92.0152836843556, 91.58892582949886, 89.31368318402099]",3.0,False,6.6,2.9664793948382653,1.9998621940612793,0.850187265917603
0,,sub_121,2024-08-02 15:59:29,3,distance,cathedral,numerosity_judgement,2,18,2,countries_reversed,"['_Tonga_reversed', '_Peru_reversed']","['f', 'f']","['p245', 'p284']","[6, 8]","[91.58892582949886, 92.0152836843556]",3.0,False,9.0,1.4142135623730951,2.06235671043396,0.7718874134604472
0,,sub_121,2024-08-02 15:59:32,3,distance,cathedral,numerosity_judgement,2,19,4,countries_reversed,"['_Oman_reversed', '_Congo_reversed', '_Tonga_reversed', '_Japan_reversed']","['m', 'f', 'f', 'm']","['p229', 'p248', 'p245', 'p256']","[5, 8, 0, 3]","[90.34149293193902, 92.0152836843556, 84.40078082039426, 89.14911522239515]",3.0,False,6.0,3.366501646120693,2.312343120574951,0.7783906480535694
0,,sub_121,2024-08-02 15:59:35,3,distance,cathedral,numerosity_judgement,2,20,5,countries_reversed,"['_Oman_reversed', '_Syria_reversed', '_Togo_reversed', '_Yemen_reversed', '_Tonga_reversed']","['f', 'm', 'f', 'm', 'f']","['p284', 'p307', 'p268', 'p256', 'p245']","[5, 4, 0, 1, 6]","[90.34149293193902, 89.31368318402099, 84.40078082039426, 86.2038576498559, 91.58892582949886]",4.0,False,5.2,2.588435821108957,1.874870777130127,0.8663148337305641
0,,sub_121,2024-08-02 15:59:38,3,distance,cathedral,numerosity_judgement,2,21,6,countries_reversed,"['_Cuba_reversed', '_Peru_reversed', '_Tonga_reversed', '_Syria_reversed', '_Oman_reversed', '_Belgium_reversed']","['m', 'm', 'f', 'm', 'm', 'f']","['p318', 'p256', 'p248', 'p307', 'p229', 'p245']","[10, 9, 4, 8, 5, 0]","[93.00003341222717, 92.00610777531934, 89.31368318402099, 92.0152836843556, 90.34149293193902, 84.40078082039426]",5.0,False,8.0,3.7416573867739413,1.687361717224121,0.7762569515378505
0,,sub_121,2024-08-02 15:59:41,3,distance,cathedral,numerosity_judgement,2,22,4,countries_reversed,"['_Belgium_reversed', '_Congo_reversed', '_Mali_reversed', '_Oman_reversed']","['f', 'f', 'm', 'm']","['p245', 'p248', 'p256', 'p307']","[7, 8, 3, 4]","[91.73820004985969, 92.0152836843556, 89.14911522239515, 89.31368318402099]",4.0,True,7.5,2.3804761428476167,1.6873846054077148,0.7302462830552718
0,,sub_121,2024-08-02 15:59:46,3,distance,cathedral,numerosity_judgement,2,23,3,countries_reversed,"['_Oman_reversed', '_Belgium_reversed', '_Tonga_reversed']","['f', 'f', 'f']","['p248', 'p245', 'p284']","[6, 1, 2]","[91.58892582949886, 86.2038576498559, 87.57049330475357]",4.0,False,5.0,2.6457513110645907,3.4997594356536865,0.8827034388832141
0,,sub_121,2024-08-02 15:59:50,3,distance,cathedral,numerosity_judgement,2,24,2,countries_reversed,"['_Oman_reversed', '_Cuba_reversed']","['m', 'f']","['p256', 'p248']","[0, 2]","[84.40078082039426, 87.57049330475357]",2.0,True,3.0,1.4142135623730951,2.3123607635498047,0.854681647940075
0,,sub_121,2024-08-02 15:59:52,3,distance,cathedral,numerosity_judgement,2,25,3,countries_reversed,"['_Oman_reversed', '_Peru_reversed', '_Tonga_reversed']","['f', 'm', 'm']","['p284', 'p307', 'p256']","[8, 6, 5]","[92.0152836843556, 91.58892582949886, 90.34149293193902]",4.0,False,8.333333333333334,1.5275252316519468,1.624908208847046,0.6790262172284645
0,,sub_121,2024-08-02 15:59:55,3,distance,cathedral,numerosity_judgement,2,26,5,countries_reversed,"['_Belgium_reversed', '_Peru_reversed', '_Congo_reversed', '_Cuba_reversed', '_Yemen_reversed']","['m', 'f', 'm', 'f', 'm']","['p318', 'p284', 'p229', 'p248', 'p307']","[1, 6, 10, 0, 2]","[86.2038576498559, 91.58892582949886, 93.00003341222717, 84.40078082039426, 87.57049330475357]",3.0,False,5.8,4.147288270665544,1.4998753070831299,0.9144138009306548
0,,sub_121,2024-08-02 16:00:01,3,distance,cathedral,numerosity_judgement,2,27,6,countries_reversed,"['_Yemen_reversed', '_Cuba_reversed', '_Peru_reversed', '_Congo_reversed', '_Oman_reversed', '_Britain_reversed']","['m', 'f', 'f', 'm', 'f', 'f']","['p256', 'p245', 'p268', 'p229', 'p248', 'p284']","[10, 6, 3, 2, 4, 5]","[93.00003341222717, 91.58892582949886, 89.14911522239515, 87.57049330475357, 89.31368318402099, 90.34149293193902]",4.0,False,7.0,2.8284271247461903,4.874644994735718,0.8005674724775849
0,,sub_121,2024-08-02 16:00:04,3,distance,cathedral,numerosity_judgement,2,28,4,countries_reversed,"['_Congo_reversed', '_Peru_reversed', '_Yemen_reversed', '_Oman_reversed']","['m', 'f', 'f', 'm']","['p256', 'p284', 'p245', 'p307']","[10, 8, 2, 4]","[93.00003341222717, 92.0152836843556, 87.57049330475357, 89.31368318402099]",5.0,False,8.0,3.6514837167011076,1.3124291896820068,0.6674611281352855
0,,sub_121,2024-08-02 16:00:06,3,distance,cathedral,numerosity_judgement,2,29,2,countries_reversed,"['_Japan_reversed', '_Yemen_reversed']","['m', 'f']","['p318', 'p268']","[2, 5]","[87.57049330475357, 90.34149293193902]",4.0,False,5.5,2.1213203435596424,1.2499330043792725,0.8741232550221314
0,,sub_121,2024-08-02 16:00:09,3,distance,cathedral,numerosity_judgement,2,30,4,countries_reversed,"['_Syria_reversed', '_Sudan_reversed', '_Mali_reversed', '_Japan_reversed']","['f', 'm', 'f', 'f']","['p245', 'p307', 'p268', 'p248']","[1, 6, 5, 10]","[86.2038576498559, 91.58892582949886, 90.34149293193902, 93.00003341222717]",6.0,False,7.5,3.696845502136472,1.2499339580535889,0.8376234252638747
0,,sub_121,2024-08-02 16:00:11,3,distance,cathedral,numerosity_judgement,2,31,2,countries_reversed,"['_Oman_reversed', '_Sudan_reversed']","['f', 'm']","['p248', 'p256']","[2, 6]","[87.57049330475357, 91.58892582949886]",3.0,False,6.0,2.8284271247461903,1.3749053478240967,0.7944728180683237
0,,sub_121,2024-08-02 16:00:14,3,distance,cathedral,numerosity_judgement,2,32,5,countries_reversed,"['_Yemen_reversed', '_Togo_reversed', '_Oman_reversed', '_Japan_reversed', '_Peru_reversed']","['f', 'f', 'm', 'm', 'm']","['p284', 'p248', 'p229', 'p307', 'p318']","[10, 4, 1, 8, 5]","[93.00003341222717, 89.31368318402099, 86.2038576498559, 92.0152836843556, 90.34149293193902]",5.0,True,7.6,3.5071355833500366,1.6249072551727295,0.8274316195664511
0,,sub_121,2024-08-02 16:00:17,3,distance,cathedral,numerosity_judgement,2,33,3,countries_reversed,"['_Cuba_reversed', '_Mali_reversed', '_Tonga_reversed']","['m', 'f', 'm']","['p256', 'p248', 'p229']","[0, 3, 9]","[84.40078082039426, 89.14911522239515, 92.00610777531934]",2.0,False,6.0,4.58257569495584,1.1874382495880127,0.901577573487686
0,,sub_121,2024-08-02 16:00:19,3,distance,cathedral,numerosity_judgement,2,34,6,countries_reversed,"['_Yemen_reversed', '_Oman_reversed', '_Cuba_reversed', '_Britain_reversed', '_Congo_reversed', '_Japan_reversed']","['m', 'm', 'f', 'f', 'f', 'f']","['p256', 'p307', 'p245', 'p248', 'p268', 'p284']","[3, 1, 7, 5, 8, 4]","[89.14911522239515, 86.2038576498559, 91.73820004985969, 90.34149293193902, 92.0152836843556, 89.31368318402099]",5.0,False,6.666666666666667,2.581988897471611,1.49989652633667,0.6976847122914539
0,,sub_121,2024-08-02 16:00:22,3,distance,cathedral,numerosity_judgement,2,35,3,countries_reversed,"['_Mali_reversed', '_Togo_reversed', '_Oman_reversed']","['m', 'f', 'm']","['p256', 'p248', 'p318']","[7, 8, 6]","[91.73820004985969, 92.0152836843556, 91.58892582949886]",3.0,True,9.0,1.0,1.49989652633667,0.7425377369197594
0,,sub_121,2024-08-02 16:00:25,3,distance,cathedral,numerosity_judgement,2,36,2,countries_reversed,"['_Cuba_reversed', '_Oman_reversed']","['f', 'f']","['p268', 'p245']","[3, 7]","[89.14911522239515, 91.73820004985969]",2.0,True,7.0,2.8284271247461903,1.3124094009399414,0.6296674611281353
0,,sub_121,2024-08-02 16:00:27,3,distance,cathedral,numerosity_judgement,2,37,5,countries_reversed,"['_Britain_reversed', '_Tonga_reversed', '_Peru_reversed', '_Cuba_reversed', '_Oman_reversed']","['f', 'm', 'm', 'f', 'f']","['p245', 'p256', 'p318', 'p284', 'p248']","[3, 4, 9, 8, 5]","[89.14911522239515, 89.31368318402099, 92.00610777531934, 92.0152836843556, 90.34149293193902]",6.0,False,7.8,2.588435821108957,1.374927282333374,0.7134150493701056
0,,sub_121,2024-08-02 16:00:30,3,distance,cathedral,numerosity_judgement,2,38,4,countries_reversed,"['_Yemen_reversed', '_Oman_reversed', '_Cuba_reversed', '_Sudan_reversed']","['m', 'm', 'f', 'f']","['p256', 'p229', 'p248', 'p245']","[3, 8, 0, 7]","[89.14911522239515, 92.0152836843556, 84.40078082039426, 91.73820004985969]",6.0,False,6.5,3.696845502136472,1.1873984336853027,0.689558506412439
0,,sub_121,2024-08-02 16:00:32,3,distance,cathedral,numerosity_judgement,2,39,6,countries_reversed,"['_Syria_reversed', '_Togo_reversed', '_Oman_reversed', '_Peru_reversed', '_Britain_reversed', '_Congo_reversed']","['m', 'm', 'f', 'm', 'f', 'm']","['p256', 'p318', 'p268', 'p307', 'p245', 'p229']","[8, 6, 10, 3, 9, 4]","[92.0152836843556, 91.58892582949886, 93.00003341222717, 89.14911522239515, 92.00610777531934, 89.31368318402099]",6.0,True,8.666666666666666,2.804757862395017,1.3748860359191895,0.8905345590738849
0,,sub_121,2024-08-02 16:00:35,3,distance,cathedral,numerosity_judgement,2,40,4,countries_reversed,"['_Cuba_reversed', '_Yemen_reversed', '_Congo_reversed', '_Japan_reversed']","['m', 'f', 'f', 'm']","['p229', 'p268', 'p248', 'p307']","[10, 7, 9, 2]","[93.00003341222717, 91.73820004985969, 92.00610777531934, 87.57049330475357]",6.0,False,9.0,3.559026084010437,1.3749260902404785,0.7844739530132788
0,,sub_121,2024-08-02 16:00:39,3,distance,cathedral,numerosity_judgement,2,41,2,countries_reversed,"['_Sudan_reversed', '_Britain_reversed']","['f', 'f']","['p248', 'p245']","[0, 5]","[84.40078082039426, 90.34149293193902]",2.0,True,4.5,3.5355339059327378,2.3123602867126465,0.9267166042446942
0,,sub_121,2024-08-02 16:00:42,3,distance,cathedral,numerosity_judgement,2,42,6,countries_reversed,"['_Tonga_reversed', '_Oman_reversed', '_Belgium_reversed', '_Togo_reversed', '_Cuba_reversed', '_Japan_reversed']","['f', 'm', 'f', 'm', 'f', 'm']","['p245', 'p307', 'p284', 'p229', 'p248', 'p318']","[4, 1, 7, 9, 5, 10]","[89.31368318402099, 86.2038576498559, 91.73820004985969, 92.00610777531934, 90.34149293193902, 93.00003341222717]",5.0,False,8.0,3.3466401061363023,1.8748905658721924,0.8075927817500851
0,,sub_121,2024-08-02 16:00:44,3,distance,cathedral,numerosity_judgement,2,43,3,countries_reversed,"['_Congo_reversed', '_Japan_reversed', '_Oman_reversed']","['f', 'm', 'm']","['p245', 'p307', 'p229']","[1, 7, 8]","[86.2038576498559, 91.73820004985969, 92.0152836843556]",3.0,True,7.333333333333333,3.7859388972001824,1.4374008178710938,0.8204063102939507
0,,sub_121,2024-08-02 16:00:47,3,distance,cathedral,numerosity_judgement,2,44,5,countries_reversed,"['_Tonga_reversed', '_Sudan_reversed', '_Cuba_reversed', '_Yemen_reversed', '_Peru_reversed']","['m', 'm', 'm', 'f', 'f']","['p318', 'p229', 'p256', 'p248', 'p284']","[0, 9, 4, 5, 7]","[84.40078082039426, 92.00610777531934, 89.31368318402099, 90.34149293193902, 91.73820004985969]",3.0,False,7.0,3.391164991562634,1.4374010562896729,0.8893542163205085
0,,sub_121,2024-08-02 16:00:52,3,distance,cathedral,numerosity_judgement,2,45,4,countries_reversed,"['_Oman_reversed', '_Yemen_reversed', '_Britain_reversed', '_Mali_reversed']","['m', 'm', 'm', 'm']","['p229', 'p318', 'p307', 'p256']","[5, 7, 9, 6]","[90.34149293193902, 91.73820004985969, 92.00610777531934, 91.58892582949886]",3.0,False,8.75,1.707825127659933,3.87471342086792,0.6135966405629327
0,,sub_121,2024-08-02 16:00:56,3,distance,cathedral,numerosity_judgement,2,46,2,countries_reversed,"['_Tonga_reversed', '_Britain_reversed']","['m', 'f']","['p318', 'p248']","[5, 6]","[90.34149293193902, 91.58892582949886]",2.0,True,7.5,0.7071067811865476,2.937319040298462,0.8306662126886846
0,,sub_121,2024-08-02 16:01:00,3,distance,cathedral,numerosity_judgement,2,47,3,countries_reversed,"['_Oman_reversed', '_Peru_reversed', '_Cuba_reversed']","['f', 'f', 'm']","['p284', 'p248', 'p307']","[6, 10, 7]","[91.58892582949886, 93.00003341222717, 91.73820004985969]",3.0,True,9.666666666666666,2.0816659994661326,2.0623581409454346,0.6376234252638747
0,,sub_121,2024-08-02 16:01:06,3,distance,cathedral,numerosity_judgement,2,48,6,countries_reversed,"['_Oman_reversed', '_Japan_reversed', '_Belgium_reversed', '_Peru_reversed', '_Yemen_reversed', '_Togo_reversed']","['m', 'm', 'm', 'f', 'f', 'm']","['p229', 'p307', 'p256', 'p245', 'p248', 'p318']","[6, 1, 0, 4, 7, 3]","[91.58892582949886, 86.2038576498559, 84.40078082039426, 89.31368318402099, 91.73820004985969, 89.14911522239515]",3.0,False,5.5,2.7386127875258306,5.312114477157593,0.7246850527749404
0,,sub_121,2024-08-02 16:01:12,3,distance,cathedral,numerosity_judgement,2,49,5,countries_reversed,"['_Mali_reversed', '_Oman_reversed', '_Britain_reversed', '_Peru_reversed', '_Yemen_reversed']","['f', 'm', 'm', 'm', 'f']","['p268', 'p256', 'p318', 'p307', 'p245']","[1, 6, 10, 9, 5]","[86.2038576498559, 91.58892582949886, 93.00003341222717, 92.00610777531934, 90.34149293193902]",3.0,False,8.2,3.5637059362410923,4.79656457901001,0.6607536034502327
0,,sub_121,2024-08-02 16:01:17,3,distance,cathedral,numerosity_judgement,2,50,4,countries_reversed,"['_Oman_reversed', '_Britain_reversed', '_Peru_reversed', '_Togo_reversed']","['f', 'f', 'f', 'm']","['p284', 'p268', 'p248', 'p256']","[9, 7, 0, 8]","[92.00610777531934, 91.73820004985969, 84.40078082039426, 92.0152836843556]",2.0,False,8.0,4.08248290463863,3.6872458457946777,0.9018159119282716
0,,sub_121,2024-08-02 16:01:20,3,distance,cathedral,numerosity_judgement,2,51,2,countries_reversed,"['_Togo_reversed', '_Syria_reversed']","['f', 'f']","['p248', 'p284']","[0, 3]","[84.40078082039426, 89.14911522239515]",2.0,True,3.5,2.1213203435596424,1.9373860359191895,0.9590625354670298
0,,sub_121,2024-08-02 16:01:25,3,distance,cathedral,numerosity_judgement,2,52,3,countries_reversed,"['_Tonga_reversed', '_Cuba_reversed', '_Togo_reversed']","['f', 'm', 'm']","['p248', 'p256', 'p229']","[2, 10, 9]","[87.57049330475357, 93.00003341222717, 92.00610777531934]",3.0,True,9.0,4.358898943540674,2.812325954437256,0.7339235047100215
0,,sub_121,2024-08-02 16:01:28,3,distance,cathedral,numerosity_judgement,2,53,5,countries_reversed,"['_Tonga_reversed', '_Yemen_reversed', '_Peru_reversed', '_Cuba_reversed', '_Japan_reversed']","['f', 'f', 'm', 'f', 'm']","['p245', 'p248', 'p256', 'p268', 'p229']","[3, 5, 8, 4, 0]","[89.14911522239515, 90.34149293193902, 92.0152836843556, 89.31368318402099, 84.40078082039426]",4.0,False,6.0,2.9154759474226504,2.624821662902832,0.7857110430144137
0,,sub_121,2024-08-02 16:01:32,3,distance,cathedral,numerosity_judgement,2,54,6,countries_reversed,"['_Syria_reversed', '_Oman_reversed', '_Congo_reversed', '_Togo_reversed', '_Peru_reversed', '_Tonga_reversed']","['m', 'f', 'm', 'm', 'f', 'm']","['p318', 'p268', 'p229', 'p307', 'p284', 'p256']","[2, 9, 5, 7, 8, 4]","[87.57049330475357, 92.00610777531934, 90.34149293193902, 91.73820004985969, 92.0152836843556, 89.31368318402099]",4.0,False,7.833333333333333,2.6394443859772205,2.124833583831787,0.7029168085347861
0,,sub_121,2024-08-02 16:01:36,3,distance,cathedral,numerosity_judgement,2,55,3,countries_reversed,"['_Japan_reversed', '_Yemen_reversed', '_Oman_reversed']","['m', 'm', 'f']","['p229', 'p256', 'p245']","[6, 5, 4]","[91.58892582949886, 90.34149293193902, 89.31368318402099]",3.0,True,7.0,1.0,3.562235116958618,0.8447395301327886
0,,sub_121,2024-08-02 16:01:40,3,distance,cathedral,numerosity_judgement,2,56,4,countries_reversed,"['_Peru_reversed', '_Yemen_reversed', '_Britain_reversed', '_Congo_reversed']","['m', 'm', 'f', 'm']","['p307', 'p229', 'p245', 'p256']","[3, 6, 8, 2]","[89.14911522239515, 91.58892582949886, 92.0152836843556, 87.57049330475357]",4.0,True,6.75,2.753785273643051,2.6873342990875244,0.6608330495970945
0,,sub_121,2024-08-02 16:01:43,3,distance,cathedral,numerosity_judgement,2,57,5,countries_reversed,"['_Cuba_reversed', '_Peru_reversed', '_Britain_reversed', '_Syria_reversed', '_Sudan_reversed']","['f', 'm', 'f', 'f', 'm']","['p268', 'p229', 'p245', 'p248', 'p307']","[9, 2, 5, 7, 10]","[92.00610777531934, 87.57049330475357, 90.34149293193902, 91.73820004985969, 93.00003341222717]",4.0,False,8.6,3.2093613071762426,1.6874029636383057,0.93652252865736
0,,sub_121,2024-08-02 16:01:47,3,distance,cathedral,numerosity_judgement,2,58,6,countries_reversed,"['_Yemen_reversed', '_Japan_reversed', '_Britain_reversed', '_Togo_reversed', '_Congo_reversed', '_Cuba_reversed']","['m', 'm', 'm', 'm', 'f', 'f']","['p307', 'p229', 'p318', 'p256', 'p284', 'p248']","[4, 3, 7, 9, 8, 6]","[89.31368318402099, 89.14911522239515, 91.73820004985969, 92.00610777531934, 92.0152836843556, 91.58892582949886]",5.0,False,8.166666666666666,2.3166067138525404,1.9998598098754883,0.8461695607763023
0,,sub_121,2024-08-02 16:01:49,3,distance,cathedral,numerosity_judgement,2,59,2,countries_reversed,"['_Yemen_reversed', '_Togo_reversed']","['m', 'f']","['p307', 'p245']","[10, 8]","[93.00003341222717, 92.0152836843556]",2.0,True,11.0,1.4142135623730951,1.5623924732208252,0.7506298944501192
0,,sub_121,2024-08-02 16:01:52,3,distance,cathedral,numerosity_judgement,2,60,4,countries_reversed,"['_Syria_reversed', '_Britain_reversed', '_Congo_reversed', '_Togo_reversed']","['m', 'f', 'f', 'm']","['p229', 'p268', 'p284', 'p256']","[3, 4, 0, 9]","[89.14911522239515, 89.31368318402099, 84.40078082039426, 92.00610777531934]",3.0,False,6.0,3.7416573867739413,1.4373815059661865,0.9558279423447964
0,,sub_121,2024-08-02 16:01:56,3,distance,cathedral,numerosity_judgement,2,61,6,countries_reversed,"['_Yemen_reversed', '_Oman_reversed', '_Britain_reversed', '_Togo_reversed', '_Cuba_reversed', '_Japan_reversed']","['m', 'f', 'm', 'f', 'f', 'm']","['p318', 'p248', 'p307', 'p284', 'p245', 'p256']","[1, 7, 6, 9, 0, 4]","[86.2038576498559, 91.73820004985969, 91.58892582949886, 92.00610777531934, 84.40078082039426, 89.31368318402099]",2.0,False,6.5,3.5071355833500366,3.1247894763946533,0.747940074906367
0,,sub_121,2024-08-02 16:01:59,3,distance,cathedral,numerosity_judgement,2,62,3,countries_reversed,"['_Oman_reversed', '_Cuba_reversed', '_Yemen_reversed']","['m', 'm', 'f']","['p256', 'p307', 'p248']","[10, 7, 4]","[93.00003341222717, 91.73820004985969, 89.31368318402099]",2.0,False,9.0,3.0,1.437420129776001,0.6046419248666439
0,,sub_121,2024-08-02 16:02:02,3,distance,cathedral,numerosity_judgement,2,63,5,countries_reversed,"['_Oman_reversed', '_Mali_reversed', '_Peru_reversed', '_Yemen_reversed', '_Belgium_reversed']","['f', 'f', 'f', 'm', 'm']","['p248', 'p284', 'p245', 'p307', 'p318']","[9, 7, 5, 6, 1]","[92.00610777531934, 91.73820004985969, 90.34149293193902, 91.58892582949886, 86.2038576498559]",3.0,False,7.6,2.9664793948382653,1.437398910522461,0.8170809215753035
0,,sub_121,2024-08-02 16:02:04,3,distance,cathedral,numerosity_judgement,2,64,2,countries_reversed,"['_Oman_reversed', '_Britain_reversed']","['f', 'm']","['p248', 'p229']","[5, 1]","[90.34149293193902, 86.2038576498559]",2.0,True,5.0,2.8284271247461903,1.0624070167541504,0.7206673476336398
0,,sub_121,2024-08-02 16:02:06,3,distance,cathedral,numerosity_judgement,2,65,5,countries_reversed,"['_Tonga_reversed', '_Oman_reversed', '_Belgium_reversed', '_Cuba_reversed', '_Japan_reversed']","['m', 'f', 'f', 'f', 'm']","['p318', 'p245', 'p284', 'p268', 'p307']","[10, 9, 8, 6, 4]","[93.00003341222717, 92.00610777531934, 92.0152836843556, 91.58892582949886, 89.31368318402099]",5.0,True,9.4,2.4083189157584592,1.249894380569458,0.7070026103733968
0,,sub_121,2024-08-02 16:02:09,3,distance,cathedral,numerosity_judgement,2,66,6,countries_reversed,"['_Syria_reversed', '_Yemen_reversed', '_Oman_reversed', '_Peru_reversed', '_Sudan_reversed', '_Cuba_reversed']","['m', 'f', 'm', 'f', 'f', 'm']","['p256', 'p248', 'p307', 'p268', 'p284', 'p318']","[2, 3, 5, 6, 0, 10]","[87.57049330475357, 89.14911522239515, 90.34149293193902, 91.58892582949886, 84.40078082039426, 93.00003341222717]",6.0,True,6.333333333333333,3.5023801430836525,1.312429428100586,0.6612870275791624
0,,sub_121,2024-08-02 16:02:12,3,distance,cathedral,numerosity_judgement,2,67,4,countries_reversed,"['_Tonga_reversed', '_Belgium_reversed', '_Congo_reversed', '_Togo_reversed']","['m', 'f', 'f', 'm']","['p307', 'p248', 'p284', 'p318']","[10, 9, 3, 7]","[93.00003341222717, 92.00610777531934, 89.14911522239515, 91.73820004985969]",5.0,False,9.25,3.095695936834452,2.249844789505005,0.8863466121893088
0,,sub_121,2024-08-02 16:02:16,3,distance,cathedral,numerosity_judgement,2,68,3,countries_reversed,"['_Mali_reversed', '_Belgium_reversed', '_Sudan_reversed']","['m', 'f', 'f']","['p229', 'p245', 'p268']","[3, 1, 9]","[89.14911522239515, 86.2038576498559, 92.00610777531934]",4.0,False,6.333333333333333,4.163331998932266,1.999842643737793,0.9272273294745204
0,,sub_121,2024-08-02 16:02:18,3,distance,cathedral,numerosity_judgement,2,69,2,countries_reversed,"['_Peru_reversed', '_Cuba_reversed']","['m', 'f']","['p307', 'p245']","[2, 7]","[87.57049330475357, 91.73820004985969]",3.0,False,6.5,3.5355339059327378,1.4374032020568848,0.575076608784474
0,,sub_121,2024-08-02 16:02:22,3,distance,cathedral,numerosity_judgement,2,70,4,countries_reversed,"['_Yemen_reversed', '_Peru_reversed', '_Belgium_reversed', '_Sudan_reversed']","['f', 'm', 'm', 'm']","['p245', 'p229', 'p256', 'p307']","[9, 5, 10, 2]","[92.00610777531934, 90.34149293193902, 93.00003341222717, 87.57049330475357]",3.0,False,8.5,3.696845502136472,2.0623583793640137,0.859096583815685
0,,sub_121,2024-08-02 16:02:26,3,distance,cathedral,numerosity_judgement,2,71,6,countries_reversed,"['_Peru_reversed', '_Cuba_reversed', '_Sudan_reversed', '_Belgium_reversed', '_Congo_reversed', '_Britain_reversed']","['m', 'm', 'f', 'f', 'f', 'm']","['p318', 'p229', 'p284', 'p248', 'p245', 'p256']","[10, 8, 4, 5, 7, 1]","[93.00003341222717, 92.0152836843556, 89.31368318402099, 90.34149293193902, 91.73820004985969, 86.2038576498559]",4.0,False,7.833333333333333,3.1885210782848317,2.8748016357421875,0.917217114969924
0,,sub_121,2024-08-02 16:02:28,3,distance,cathedral,numerosity_judgement,2,72,5,countries_reversed,"['_Britain_reversed', '_Togo_reversed', '_Oman_reversed', '_Cuba_reversed', '_Syria_reversed']","['m', 'm', 'm', 'f', 'f']","['p256', 'p229', 'p307', 'p268', 'p248']","[0, 1, 9, 6, 2]","[84.40078082039426, 86.2038576498559, 92.00610777531934, 91.58892582949886, 87.57049330475357]",3.0,False,5.6,3.7815340802378072,1.4373998641967773,0.6839859266825559
0,,sub_121,2024-08-02 16:02:31,3,distance,cathedral,numerosity_judgement,2,73,2,countries_reversed,"['_Tonga_reversed', '_Cuba_reversed']","['f', 'f']","['p245', 'p248']","[9, 10]","[92.00610777531934, 93.00003341222717]",3.0,False,11.5,0.7071067811865476,1.749877691268921,0.6613437748269209
0,,sub_121,2024-08-02 16:02:37,3,distance,cathedral,numerosity_judgement,2,74,3,countries_reversed,"['_Japan_reversed', '_Mali_reversed', '_Britain_reversed']","['m', 'f', 'm']","['p307', 'p284', 'p229']","[1, 7, 5]","[86.2038576498559, 91.73820004985969, 90.34149293193902]",3.0,True,6.333333333333333,3.0550504633038935,4.49967098236084,0.951310861423221
0,,sub_121,2024-08-02 16:03:09,3,distance,cathedral,numerosity_judgement,3,0,4,countries_forward,"['_Britain_', '_Cuba_', '_Belgium_', '_Yemen_']","['m', 'f', 'm', 'm']","['p318', 'p245', 'p229', 'p256']","[8, 7, 0, 10]","[92.0152836843556, 91.73820004985969, 84.40078082039426, 93.00003341222717]",4.0,True,8.25,4.349329450233296,2.374816656112671,0.707524685052775
0,,sub_121,2024-08-02 16:03:13,3,distance,cathedral,numerosity_judgement,3,1,2,countries_forward,"['_Mali_', '_Oman_']","['m', 'f']","['p229', 'p248']","[7, 10]","[91.73820004985969, 93.00003341222717]",3.0,False,10.5,2.1213203435596424,2.374835729598999,0.7704800817160368
0,,sub_121,2024-08-02 16:03:18,3,distance,cathedral,numerosity_judgement,3,2,6,countries_forward,"['_Belgium_', '_Mali_', '_Togo_', '_Cuba_', '_Tonga_', '_Sudan_']","['m', 'f', 'f', 'm', 'm', 'f']","['p256', 'p248', 'p284', 'p318', 'p229', 'p245']","[3, 8, 4, 10, 6, 5]","[89.14911522239515, 92.0152836843556, 89.31368318402099, 93.00003341222717, 91.58892582949886, 90.34149293193902]",2.0,False,8.0,2.6076809620810595,2.9372756481170654,0.8664850754738396
0,,sub_121,2024-08-02 16:03:21,3,distance,cathedral,numerosity_judgement,3,3,5,countries_forward,"['_Togo_', '_Peru_', '_Oman_', '_Britain_', '_Mali_']","['f', 'm', 'm', 'f', 'm']","['p245', 'p256', 'p307', 'p248', 'p318']","[3, 4, 5, 0, 8]","[89.14911522239515, 89.31368318402099, 90.34149293193902, 84.40078082039426, 92.0152836843556]",5.0,True,6.0,2.9154759474226504,1.5623705387115479,0.7325956191124731
0,,sub_121,2024-08-02 16:03:25,3,distance,cathedral,numerosity_judgement,3,4,3,countries_forward,"['_Congo_', '_Sudan_', '_Belgium_']","['m', 'm', 'f']","['p318', 'p256', 'p245']","[3, 0, 10]","[89.14911522239515, 84.40078082039426, 93.00003341222717]",3.0,True,6.333333333333333,5.131601439446884,2.249866485595703,0.9456134377482692
0,,sub_121,2024-08-02 16:03:28,3,distance,cathedral,numerosity_judgement,3,5,4,countries_forward,"['_Mali_', '_Yemen_', '_Cuba_', '_Congo_']","['f', 'f', 'm', 'm']","['p248', 'p268', 'p229', 'p256']","[4, 0, 6, 5]","[89.31368318402099, 84.40078082039426, 91.58892582949886, 90.34149293193902]",3.0,False,5.75,2.6299556396765835,1.6248688697814941,0.7409147656338667
0,,sub_121,2024-08-02 16:03:31,3,distance,cathedral,numerosity_judgement,3,6,2,countries_forward,"['_Yemen_', '_Peru_']","['m', 'm']","['p256', 'p307']","[5, 10]","[90.34149293193902, 93.00003341222717]",2.0,True,9.5,3.5355339059327378,1.124922752380371,0.6123141527635909
0,,sub_121,2024-08-02 16:03:34,3,distance,cathedral,numerosity_judgement,3,7,5,countries_forward,"['_Mali_', '_Yemen_', '_Togo_', '_Oman_', '_Congo_']","['f', 'f', 'm', 'f', 'm']","['p245', 'p284', 'p256', 'p248', 'p307']","[6, 8, 0, 3, 5]","[91.58892582949886, 92.0152836843556, 84.40078082039426, 89.14911522239515, 90.34149293193902]",4.0,False,6.4,3.0495901363953815,1.499896764755249,0.7576325048235161
0,,sub_121,2024-08-02 16:03:41,3,distance,cathedral,numerosity_judgement,3,8,6,countries_forward,"['_Britain_', '_Tonga_', '_Yemen_', '_Congo_', '_Cuba_', '_Sudan_']","['m', 'f', 'f', 'm', 'm', 'f']","['p318', 'p245', 'p268', 'p256', 'p307', 'p248']","[0, 5, 6, 1, 8, 7]","[84.40078082039426, 90.34149293193902, 91.58892582949886, 86.2038576498559, 92.0152836843556, 91.73820004985969]",4.0,False,6.5,3.271085446759225,4.812169313430786,0.7589263420724095
0,,sub_121,2024-08-02 16:03:45,3,distance,cathedral,numerosity_judgement,3,9,3,countries_forward,"['_Yemen_', '_Mali_', '_Togo_']","['m', 'm', 'm']","['p318', 'p229', 'p256']","[10, 8, 2]","[93.00003341222717, 92.0152836843556, 87.57049330475357]",2.0,False,8.666666666666666,4.163331998932265,2.3748373985290527,0.8032005447735785
0,,sub_121,2024-08-02 16:03:48,3,distance,cathedral,numerosity_judgement,3,10,5,countries_forward,"['_Japan_', '_Cuba_', '_Peru_', '_Yemen_', '_Sudan_']","['f', 'f', 'm', 'm', 'm']","['p268', 'p245', 'p318', 'p256', 'p229']","[3, 0, 2, 6, 9]","[89.14911522239515, 84.40078082039426, 87.57049330475357, 91.58892582949886, 92.00610777531934]",5.0,True,6.0,3.5355339059327378,1.2499353885650635,0.87986607649529
0,,sub_121,2024-08-02 16:03:50,3,distance,cathedral,numerosity_judgement,3,11,2,countries_forward,"['_Sudan_', '_Britain_']","['m', 'f']","['p256', 'p245']","[2, 7]","[87.57049330475357, 91.73820004985969]",2.0,True,6.5,3.5355339059327378,0.9374575614929199,0.8271932811258654
0,,sub_121,2024-08-02 16:03:54,3,distance,cathedral,numerosity_judgement,3,12,6,countries_forward,"['_Oman_', '_Cuba_', '_Mali_', '_Britain_', '_Togo_', '_Tonga_']","['m', 'm', 'm', 'f', 'm', 'f']","['p229', 'p318', 'p256', 'p248', 'p307', 'p245']","[10, 3, 4, 9, 8, 5]","[93.00003341222717, 89.14911522239515, 89.31368318402099, 92.00610777531934, 92.0152836843556, 90.34149293193902]",5.0,False,8.5,2.8809720581775866,1.374924898147583,0.7045851776188855
0,,sub_121,2024-08-02 16:03:57,3,distance,cathedral,numerosity_judgement,3,13,3,countries_forward,"['_Congo_', '_Japan_', '_Tonga_']","['m', 'm', 'f']","['p229', 'p256', 'p245']","[1, 6, 9]","[86.2038576498559, 91.58892582949886, 92.00610777531934]",4.0,False,7.333333333333333,4.041451884327381,1.4374034404754639,0.8127000340483487
0,,sub_121,2024-08-02 16:04:00,3,distance,cathedral,numerosity_judgement,3,14,4,countries_forward,"['_Cuba_', '_Yemen_', '_Congo_', '_Oman_']","['m', 'f', 'f', 'f']","['p307', 'p268', 'p245', 'p248']","[7, 8, 4, 3]","[91.73820004985969, 92.0152836843556, 89.31368318402099, 89.14911522239515]",4.0,True,7.5,2.3804761428476167,1.374906301498413,0.629043241402792
0,,sub_121,2024-08-02 16:04:02,3,distance,cathedral,numerosity_judgement,3,15,3,countries_forward,"['_Oman_', '_Cuba_', '_Yemen_']","['f', 'm', 'm']","['p245', 'p307', 'p318']","[1, 7, 0]","[86.2038576498559, 91.73820004985969, 84.40078082039426]",2.0,False,4.666666666666667,3.7859388972001824,0.999953031539917,0.70314379752582
0,,sub_121,2024-08-02 16:04:06,3,distance,cathedral,numerosity_judgement,3,16,2,countries_forward,"['_Tonga_', '_Cuba_']","['m', 'f']","['p307', 'p284']","[4, 1]","[89.31368318402099, 86.2038576498559]",2.0,True,4.5,2.1213203435596424,1.8123762607574463,0.855612302803314
0,,sub_121,2024-08-02 16:04:14,3,distance,cathedral,numerosity_judgement,3,17,4,countries_forward,"['_Japan_', '_Tonga_', '_Oman_', '_Britain_']","['f', 'f', 'm', 'f']","['p268', 'p284', 'p229', 'p248']","[4, 2, 3, 10]","[89.31368318402099, 87.57049330475357, 89.14911522239515, 93.00003341222717]",3.0,False,6.75,3.593976442141304,6.124598264694214,0.8325275224151628
0,,sub_121,2024-08-02 16:04:19,3,distance,cathedral,numerosity_judgement,3,18,5,countries_forward,"['_Peru_', '_Yemen_', '_Britain_', '_Oman_', '_Mali_']","['f', 'f', 'f', 'f', 'm']","['p284', 'p248', 'p245', 'p268', 'p229']","[2, 10, 1, 4, 6]","[87.57049330475357, 93.00003341222717, 86.2038576498559, 89.31368318402099, 91.58892582949886]",3.0,False,6.6,3.5777087639996634,3.937248706817627,0.7091703552377709
0,,sub_121,2024-08-02 16:04:24,3,distance,cathedral,numerosity_judgement,3,19,6,countries_forward,"['_Britain_', '_Syria_', '_Tonga_', '_Japan_', '_Mali_', '_Belgium_']","['m', 'f', 'f', 'f', 'f', 'm']","['p318', 'p248', 'p284', 'p245', 'p268', 'p256']","[10, 2, 7, 1, 8, 9]","[93.00003341222717, 87.57049330475357, 91.73820004985969, 86.2038576498559, 92.0152836843556, 92.00610777531934]",5.0,False,8.166666666666666,3.763863263545405,3.124765634536743,0.8860515265009647
0,,sub_121,2024-08-02 16:04:30,3,distance,cathedral,numerosity_judgement,3,20,5,countries_forward,"['_Congo_', '_Tonga_', '_Peru_', '_Yemen_', '_Mali_']","['f', 'f', 'm', 'm', 'f']","['p245', 'p268', 'p318', 'p256', 'p284']","[5, 3, 7, 1, 9]","[90.34149293193902, 89.14911522239515, 91.73820004985969, 86.2038576498559, 92.00610777531934]",4.0,False,7.0,3.1622776601683795,3.749743938446045,0.8118601747815231
0,,sub_121,2024-08-02 16:04:33,3,distance,cathedral,numerosity_judgement,3,21,4,countries_forward,"['_Togo_', '_Cuba_', '_Britain_', '_Yemen_']","['m', 'f', 'f', 'm']","['p229', 'p245', 'p268', 'p256']","[5, 2, 9, 10]","[90.34149293193902, 87.57049330475357, 92.00610777531934, 93.00003341222717]",3.0,False,8.5,3.696845502136472,1.8123950958251953,0.7831347179661786
0,,sub_121,2024-08-02 16:04:39,3,distance,cathedral,numerosity_judgement,3,22,6,countries_forward,"['_Yemen_', '_Tonga_', '_Peru_', '_Cuba_', '_Oman_', '_Mali_']","['m', 'm', 'm', 'f', 'm', 'f']","['p229', 'p256', 'p307', 'p245', 'p318', 'p248']","[8, 6, 5, 1, 2, 0]","[92.0152836843556, 91.58892582949886, 90.34149293193902, 86.2038576498559, 87.57049330475357, 84.40078082039426]",4.0,False,5.666666666666667,3.141125063837266,4.062240123748779,0.8210986267166043
0,,sub_121,2024-08-02 16:04:49,3,distance,cathedral,numerosity_judgement,3,23,2,countries_forward,"['_Sudan_', '_Yemen_']","['f', 'f']","['p284', 'p248']","[10, 2]","[93.00003341222717, 87.57049330475357]",2.0,True,8.0,5.656854249492381,8.499414443969727,0.9629326977641584
0,,sub_121,2024-08-02 16:04:53,3,distance,cathedral,numerosity_judgement,3,24,3,countries_forward,"['_Tonga_', '_Yemen_', '_Oman_']","['f', 'm', 'm']","['p268', 'p256', 'p318']","[2, 10, 7]","[87.57049330475357, 93.00003341222717, 91.73820004985969]",3.0,True,8.333333333333334,4.041451884327381,1.5623924732208252,0.717852684144819
0,,sub_121,2024-08-02 16:04:57,3,distance,cathedral,numerosity_judgement,3,25,2,countries_forward,"['_Cuba_', '_Mali_']","['f', 'm']","['p284', 'p229']","[5, 7]","[90.34149293193902, 91.73820004985969]",2.0,True,8.0,1.4142135623730951,2.499847412109375,0.867665418227216
0,,sub_121,2024-08-02 16:04:59,3,distance,cathedral,numerosity_judgement,3,26,4,countries_forward,"['_Belgium_', '_Tonga_', '_Britain_', '_Yemen_']","['m', 'f', 'f', 'm']","['p229', 'p245', 'p284', 'p318']","[0, 1, 4, 8]","[84.40078082039426, 86.2038576498559, 89.31368318402099, 92.0152836843556]",4.0,True,5.25,3.593976442141304,1.18741774559021,0.8144932470775167
0,,sub_121,2024-08-02 16:05:02,3,distance,cathedral,numerosity_judgement,3,27,3,countries_forward,"['_Peru_', '_Yemen_', '_Oman_']","['m', 'm', 'm']","['p307', 'p256', 'p229']","[3, 1, 10]","[89.14911522239515, 86.2038576498559, 93.00003341222717]",3.0,True,6.666666666666667,4.725815626252608,1.312389612197876,0.6106230847803882
0,,sub_121,2024-08-02 16:05:06,3,distance,cathedral,numerosity_judgement,3,28,6,countries_forward,"['_Peru_', '_Britain_', '_Tonga_', '_Mali_', '_Japan_', '_Sudan_']","['f', 'f', 'm', 'f', 'm', 'f']","['p268', 'p245', 'p307', 'p248', 'p229', 'p284']","[9, 2, 0, 8, 6, 7]","[92.00610777531934, 87.57049330475357, 84.40078082039426, 92.0152836843556, 91.58892582949886, 91.73820004985969]",3.0,False,7.333333333333333,3.559026084010437,2.249823570251465,0.9380320054477358
0,,sub_121,2024-08-02 16:05:13,3,distance,cathedral,numerosity_judgement,3,29,5,countries_forward,"['_Britain_', '_Syria_', '_Belgium_', '_Tonga_', '_Congo_']","['f', 'f', 'f', 'f', 'm']","['p248', 'p284', 'p245', 'p268', 'p307']","[4, 9, 3, 1, 8]","[89.31368318402099, 92.00610777531934, 89.14911522239515, 86.2038576498559, 92.0152836843556]",2.0,False,7.0,3.391164991562634,4.249707221984863,0.9658268073998412
0,,sub_121,2024-08-02 16:05:16,3,distance,cathedral,numerosity_judgement,3,30,3,countries_forward,"['_Japan_', '_Togo_', '_Congo_']","['f', 'm', 'm']","['p248', 'p307', 'p229']","[5, 2, 1]","[90.34149293193902, 87.57049330475357, 86.2038576498559]",2.0,False,4.666666666666667,2.0816659994661326,2.249864339828491,0.8450119169220293
0,,sub_121,2024-08-02 16:05:23,3,distance,cathedral,numerosity_judgement,3,31,4,countries_forward,"['_Britain_', '_Japan_', '_Peru_', '_Syria_']","['f', 'f', 'm', 'f']","['p248', 'p284', 'p229', 'p268']","[4, 0, 2, 8]","[89.31368318402099, 84.40078082039426, 87.57049330475357, 92.0152836843556]",4.0,True,5.5,3.415650255319866,4.937160015106201,0.9588468959255476
0,,sub_121,2024-08-02 16:05:27,3,distance,cathedral,numerosity_judgement,3,32,5,countries_forward,"['_Cuba_', '_Oman_', '_Yemen_', '_Togo_', '_Japan_']","['f', 'm', 'f', 'm', 'm']","['p268', 'p256', 'p248', 'p229', 'p318']","[2, 7, 10, 0, 1]","[87.57049330475357, 91.73820004985969, 93.00003341222717, 84.40078082039426, 86.2038576498559]",3.0,False,6.0,4.301162633521313,1.9373667240142822,0.7546816479400749
0,,sub_121,2024-08-02 16:05:31,3,distance,cathedral,numerosity_judgement,3,33,2,countries_forward,"['_Yemen_', '_Peru_']","['f', 'f']","['p245', 'p284']","[3, 7]","[89.14911522239515, 91.73820004985969]",2.0,True,7.0,2.8284271247461903,2.3123619556427,0.6603904210645783
0,,sub_121,2024-08-02 16:05:35,3,distance,cathedral,numerosity_judgement,3,34,6,countries_forward,"['_Belgium_', '_Japan_', '_Sudan_', '_Oman_', '_Britain_', '_Mali_']","['f', 'f', 'm', 'm', 'm', 'm']","['p284', 'p248', 'p256', 'p318', 'p229', 'p307']","[3, 7, 6, 0, 1, 10]","[89.14911522239515, 91.73820004985969, 91.58892582949886, 84.40078082039426, 86.2038576498559, 93.00003341222717]",3.0,False,6.5,3.8340579025361627,2.1248538494110107,0.8458858245375099
0,,sub_121,2024-08-02 16:05:38,3,distance,cathedral,numerosity_judgement,3,35,2,countries_forward,"['_Peru_', '_Belgium_']","['m', 'f']","['p318', 'p268']","[7, 5]","[91.73820004985969, 90.34149293193902]",2.0,True,8.0,1.4142135623730951,1.5623900890350342,0.7823856542957667
0,,sub_121,2024-08-02 16:05:41,3,distance,cathedral,numerosity_judgement,3,36,6,countries_forward,"['_Belgium_', '_Peru_', '_Yemen_', '_Sudan_', '_Cuba_', '_Mali_']","['m', 'f', 'm', 'm', 'f', 'f']","['p318', 'p245', 'p307', 'p229', 'p268', 'p284']","[4, 8, 0, 2, 7, 3]","[89.31368318402099, 92.0152836843556, 84.40078082039426, 87.57049330475357, 91.73820004985969, 89.14911522239515]",5.0,False,6.0,3.03315017762062,1.8123562335968018,0.9297355578254456
0,,sub_121,2024-08-02 16:05:45,3,distance,cathedral,numerosity_judgement,3,37,4,countries_forward,"['_Syria_', '_Britain_', '_Belgium_', '_Yemen_']","['m', 'm', 'f', 'f']","['p256', 'p307', 'p245', 'p284']","[4, 8, 5, 3]","[89.31368318402099, 92.0152836843556, 90.34149293193902, 89.14911522239515]",6.0,False,7.0,2.160246899469287,1.4373791217803955,0.8560435818862785
0,,sub_121,2024-08-02 16:05:48,3,distance,cathedral,numerosity_judgement,3,38,3,countries_forward,"['_Togo_', '_Congo_', '_Tonga_']","['f', 'm', 'm']","['p245', 'p307', 'p256']","[1, 3, 5]","[86.2038576498559, 89.14911522239515, 90.34149293193902]",3.0,True,5.0,2.0,1.6874055862426758,0.7565543071161048
0,,sub_121,2024-08-02 16:05:51,3,distance,cathedral,numerosity_judgement,3,39,5,countries_forward,"['_Congo_', '_Cuba_', '_Sudan_', '_Yemen_', '_Peru_']","['f', 'f', 'm', 'm', 'f']","['p248', 'p268', 'p256', 'p307', 'p284']","[9, 3, 10, 2, 4]","[92.00610777531934, 89.14911522239515, 93.00003341222717, 87.57049330475357, 89.31368318402099]",5.0,True,7.6,3.6469165057620936,1.49989652633667,0.8249914879128363
0,,sub_121,2024-08-02 16:05:54,3,distance,cathedral,numerosity_judgement,3,40,4,countries_forward,"['_Congo_', '_Oman_', '_Peru_', '_Yemen_']","['m', 'm', 'f', 'f']","['p307', 'p229', 'p284', 'p248']","[3, 10, 2, 6]","[89.14911522239515, 93.00003341222717, 87.57049330475357, 91.58892582949886]",5.0,False,7.25,3.593976442141304,1.4998986721038818,0.672829417773238
0,,sub_121,2024-08-02 16:05:57,3,distance,cathedral,numerosity_judgement,3,41,3,countries_forward,"['_Britain_', '_Yemen_', '_Tonga_']","['m', 'f', 'f']","['p318', 'p268', 'p245']","[2, 6, 4]","[87.57049330475357, 91.58892582949886, 89.31368318402099]",5.0,False,6.0,2.0,1.2498948574066162,0.6490069231642266
0,,sub_121,2024-08-02 16:06:02,3,distance,cathedral,numerosity_judgement,3,42,5,countries_forward,"['_Japan_', '_Tonga_', '_Peru_', '_Togo_', '_Mali_']","['f', 'f', 'f', 'f', 'm']","['p268', 'p245', 'p248', 'p284', 'p229']","[9, 0, 8, 4, 6]","[92.00610777531934, 84.40078082039426, 92.0152836843556, 89.31368318402099, 91.58892582949886]",5.0,True,7.4,3.5777087639996634,2.8123085498809814,0.8681647940074907
0,,sub_121,2024-08-02 16:06:05,3,distance,cathedral,numerosity_judgement,3,43,2,countries_forward,"['_Tonga_', '_Oman_']","['f', 'm']","['p248', 'p307']","[5, 4]","[90.34149293193902, 89.31368318402099]",2.0,True,6.5,0.7071067811865476,1.8123538494110107,0.7096470321189422
0,,sub_121,2024-08-02 16:06:09,3,distance,cathedral,numerosity_judgement,3,44,6,countries_forward,"['_Sudan_', '_Peru_', '_Mali_', '_Oman_', '_Tonga_', '_Cuba_']","['m', 'm', 'f', 'm', 'f', 'f']","['p256', 'p229', 'p248', 'p307', 'p245', 'p268']","[4, 6, 5, 8, 7, 3]","[89.31368318402099, 91.58892582949886, 90.34149293193902, 92.0152836843556, 91.73820004985969, 89.14911522239515]",3.0,False,7.5,1.8708286933869707,1.562391996383667,0.7172625127681308
0,,sub_121,2024-08-02 16:06:16,3,distance,cathedral,numerosity_judgement,3,45,3,countries_forward,"['_Yemen_', '_Peru_', '_Japan_']","['f', 'm', 'f']","['p284', 'p229', 'p245']","[6, 2, 4]","[91.58892582949886, 87.57049330475357, 89.31368318402099]",2.0,False,6.0,2.0,5.437104940414429,0.8768130745658835
0,,sub_121,2024-08-02 16:06:18,3,distance,cathedral,numerosity_judgement,3,46,2,countries_forward,"['_Yemen_', '_Peru_']","['m', 'f']","['p256', 'p245']","[7, 5]","[91.73820004985969, 90.34149293193902]",2.0,True,8.0,1.4142135623730951,1.0624468326568604,0.5815457950289411
0,,sub_121,2024-08-02 16:06:21,3,distance,cathedral,numerosity_judgement,3,47,4,countries_forward,"['_Oman_', '_Yemen_', '_Mali_', '_Tonga_']","['m', 'f', 'm', 'f']","['p307', 'p248', 'p256', 'p268']","[8, 4, 7, 6]","[92.0152836843556, 89.31368318402099, 91.73820004985969, 91.58892582949886]",3.0,False,8.25,1.707825127659933,1.6899540424346924,0.7591760299625468
0,,sub_121,2024-08-02 16:06:25,3,distance,cathedral,numerosity_judgement,3,48,5,countries_forward,"['_Britain_', '_Togo_', '_Yemen_', '_Congo_', '_Tonga_']","['m', 'f', 'm', 'f', 'm']","['p307', 'p245', 'p318', 'p248', 'p256']","[10, 4, 7, 2, 6]","[93.00003341222717, 89.31368318402099, 91.73820004985969, 87.57049330475357, 91.58892582949886]",4.0,False,7.8,3.03315017762062,2.1248531341552734,0.7871751220065827
0,,sub_121,2024-08-02 16:06:29,3,distance,cathedral,numerosity_judgement,3,49,6,countries_forward,"['_Sudan_', '_Tonga_', '_Congo_', '_Mali_', '_Syria_', '_Togo_']","['m', 'm', 'm', 'f', 'f', 'f']","['p229', 'p307', 'p318', 'p284', 'p268', 'p248']","[6, 8, 5, 9, 0, 7]","[91.58892582949886, 92.0152836843556, 90.34149293193902, 92.00610777531934, 84.40078082039426, 91.73820004985969]",3.0,False,7.833333333333333,3.1885210782848317,1.6248681545257568,0.9515491998638066
0,,sub_121,2024-08-02 16:06:34,3,distance,cathedral,numerosity_judgement,3,50,4,countries_forward,"['_Japan_', '_Syria_', '_Tonga_', '_Togo_']","['m', 'f', 'm', 'm']","['p256', 'p284', 'p318', 'p229']","[8, 5, 0, 2]","[92.0152836843556, 90.34149293193902, 84.40078082039426, 87.57049330475357]",5.0,False,5.75,3.5,3.1247851848602295,0.916695040290546
0,,sub_121,2024-08-02 16:06:37,3,distance,cathedral,numerosity_judgement,3,51,2,countries_forward,"['_Oman_', '_Yemen_']","['m', 'm']","['p229', 'p256']","[3, 6]","[89.14911522239515, 91.58892582949886]",2.0,True,6.5,2.1213203435596424,1.5623726844787598,0.5410623084780388
0,,sub_121,2024-08-02 16:06:41,3,distance,cathedral,numerosity_judgement,3,52,5,countries_forward,"['_Mali_', '_Oman_', '_Yemen_', '_Cuba_', '_Syria_']","['m', 'f', 'f', 'f', 'm']","['p256', 'p284', 'p268', 'p248', 'p229']","[9, 6, 2, 3, 1]","[92.00610777531934, 91.58892582949886, 87.57049330475357, 89.14911522239515, 86.2038576498559]",4.0,False,6.2,3.2710854467592254,2.7498087882995605,0.9131653614799682
0,,sub_121,2024-08-02 16:06:45,3,distance,cathedral,numerosity_judgement,3,53,6,countries_forward,"['_Yemen_', '_Belgium_', '_Oman_', '_Cuba_', '_Syria_', '_Tonga_']","['m', 'm', 'f', 'f', 'm', 'm']","['p256', 'p318', 'p268', 'p245', 'p307', 'p229']","[6, 1, 9, 2, 3, 4]","[91.58892582949886, 86.2038576498559, 92.00610777531934, 87.57049330475357, 89.14911522239515, 89.31368318402099]",4.0,False,6.166666666666667,2.9268868558020253,1.9373645782470703,0.8378844626035638
0,,sub_121,2024-08-02 16:06:50,3,distance,cathedral,numerosity_judgement,3,54,3,countries_forward,"['_Yemen_', '_Mali_', '_Peru_']","['m', 'f', 'f']","['p256', 'p245', 'p284']","[9, 7, 3]","[92.00610777531934, 91.73820004985969, 89.14911522239515]",3.0,True,8.333333333333334,3.055050463303893,2.6248409748077393,0.6834979003518329
0,,sub_121,2024-08-02 16:06:55,3,distance,cathedral,numerosity_judgement,3,55,2,countries_forward,"['_Belgium_', '_Japan_']","['f', 'f']","['p248', 'p284']","[3, 5]","[89.14911522239515, 90.34149293193902]",4.0,False,6.0,1.4142135623730951,4.437192916870117,0.933231188287368
0,,sub_121,2024-08-02 16:06:59,3,distance,cathedral,numerosity_judgement,3,56,6,countries_forward,"['_Sudan_', '_Syria_', '_Belgium_', '_Mali_', '_Tonga_', '_Congo_']","['m', 'f', 'm', 'f', 'm', 'm']","['p307', 'p284', 'p229', 'p248', 'p318', 'p256']","[4, 10, 8, 9, 7, 5]","[89.31368318402099, 93.00003341222717, 92.0152836843556, 92.00610777531934, 91.73820004985969, 90.34149293193902]",6.0,True,9.166666666666666,2.3166067138525404,1.3124113082885742,0.905163999546022
0,,sub_121,2024-08-02 16:07:02,3,distance,cathedral,numerosity_judgement,3,57,3,countries_forward,"['_Togo_', '_Yemen_', '_Japan_']","['m', 'f', 'f']","['p256', 'p245', 'p248']","[2, 7, 3]","[87.57049330475357, 91.73820004985969, 89.14911522239515]",3.0,True,6.0,2.6457513110645907,1.999842882156372,0.7707411190557258
0,,sub_121,2024-08-02 16:07:06,3,distance,cathedral,numerosity_judgement,3,58,5,countries_forward,"['_Japan_', '_Sudan_', '_Oman_', '_Belgium_', '_Syria_']","['f', 'f', 'm', 'm', 'f']","['p248', 'p245', 'p307', 'p229', 'p284']","[5, 2, 8, 10, 1]","[90.34149293193902, 87.57049330475357, 92.0152836843556, 93.00003341222717, 86.2038576498559]",3.0,False,7.2,3.8340579025361627,1.7498700618743896,0.9326410169106798
0,,sub_121,2024-08-02 16:07:11,3,distance,cathedral,numerosity_judgement,3,59,4,countries_forward,"['_Togo_', '_Britain_', '_Sudan_', '_Japan_']","['f', 'f', 'f', 'f']","['p245', 'p268', 'p248', 'p284']","[2, 6, 8, 7]","[87.57049330475357, 91.58892582949886, 92.0152836843556, 91.73820004985969]",3.0,False,7.75,2.6299556396765835,3.062288522720337,0.9385881284757688
0,,sub_121,2024-08-02 16:07:14,3,distance,cathedral,numerosity_judgement,3,60,5,countries_forward,"['_Yemen_', '_Oman_', '_Sudan_', '_Cuba_', '_Congo_']","['f', 'm', 'f', 'm', 'm']","['p268', 'p256', 'p248', 'p307', 'p229']","[10, 9, 0, 5, 2]","[93.00003341222717, 92.00610777531934, 84.40078082039426, 90.34149293193902, 87.57049330475357]",4.0,False,7.2,4.324349662087931,1.1874384880065918,0.6902962206332993
0,,sub_121,2024-08-02 16:07:17,3,distance,cathedral,numerosity_judgement,3,61,4,countries_forward,"['_Britain_', '_Congo_', '_Japan_', '_Belgium_']","['m', 'm', 'f', 'f']","['p229', 'p318', 'p248', 'p245']","[9, 3, 4, 6]","[92.00610777531934, 89.14911522239515, 89.31368318402099, 91.58892582949886]",5.0,False,7.5,2.6457513110645907,1.687403678894043,0.9057201225740552
0,,sub_121,2024-08-02 16:07:20,3,distance,cathedral,numerosity_judgement,3,62,6,countries_forward,"['_Mali_', '_Togo_', '_Tonga_', '_Belgium_', '_Oman_', '_Cuba_']","['m', 'f', 'f', 'm', 'm', 'f']","['p256', 'p284', 'p248', 'p229', 'p318', 'p268']","[3, 1, 6, 7, 0, 8]","[89.14911522239515, 86.2038576498559, 91.58892582949886, 91.73820004985969, 84.40078082039426, 92.0152836843556]",6.0,True,6.166666666666667,3.3115957885386114,0.9374353885650635,0.8013505844966519
0,,sub_121,2024-08-02 16:07:23,3,distance,cathedral,numerosity_judgement,3,63,3,countries_forward,"['_Britain_', '_Yemen_', '_Belgium_']","['f', 'm', 'm']","['p248', 'p307', 'p229']","[5, 1, 4]","[90.34149293193902, 86.2038576498559, 89.31368318402099]",2.0,False,5.333333333333333,2.0816659994661326,1.562391996383667,0.884394506866417
0,,sub_121,2024-08-02 16:07:26,3,distance,cathedral,numerosity_judgement,3,64,2,countries_forward,"['_Peru_', '_Oman_']","['m', 'm']","['p307', 'p229']","[2, 9]","[87.57049330475357, 92.00610777531934]",2.0,True,7.5,4.949747468305833,1.749859094619751,0.7353989331517421
0,,sub_121,2024-08-02 16:07:30,3,distance,cathedral,numerosity_judgement,3,65,3,countries_forward,"['_Syria_', '_Tonga_', '_Peru_']","['f', 'm', 'f']","['p268', 'p229', 'p245']","[8, 0, 3]","[92.0152836843556, 84.40078082039426, 89.14911522239515]",2.0,False,5.666666666666667,4.041451884327381,1.6873841285705566,0.9215866530473272
0,,sub_121,2024-08-02 16:07:33,3,distance,cathedral,numerosity_judgement,3,66,5,countries_forward,"['_Congo_', '_Peru_', '_Mali_', '_Britain_', '_Oman_']","['f', 'f', 'm', 'f', 'm']","['p284', 'p268', 'p256', 'p248', 'p307']","[5, 3, 1, 10, 9]","[90.34149293193902, 89.14911522239515, 86.2038576498559, 93.00003341222717, 92.00610777531934]",3.0,False,7.6,3.847076812334269,1.4374017715454102,0.852207467937805
0,,sub_121,2024-08-02 16:07:36,3,distance,cathedral,numerosity_judgement,3,67,4,countries_forward,"['_Tonga_', '_Japan_', '_Cuba_', '_Peru_']","['f', 'm', 'f', 'f']","['p248', 'p318', 'p284', 'p268']","[9, 7, 2, 4]","[92.00610777531934, 91.73820004985969, 87.57049330475357, 89.31368318402099]",4.0,True,7.5,3.1091263510296048,1.1874184608459473,0.8642832822608103
0,,sub_121,2024-08-02 16:07:40,3,distance,cathedral,numerosity_judgement,3,68,2,countries_forward,"['_Yemen_', '_Belgium_']","['m', 'f']","['p256', 'p248']","[0, 1]","[84.40078082039426, 86.2038576498559]",2.0,True,2.5,0.7071067811865476,2.812286615371704,0.911338100102145
0,,sub_121,2024-08-02 16:07:44,3,distance,cathedral,numerosity_judgement,3,69,6,countries_forward,"['_Congo_', '_Togo_', '_Tonga_', '_Cuba_', '_Oman_', '_Mali_']","['m', 'f', 'm', 'f', 'f', 'm']","['p256', 'p245', 'p307', 'p248', 'p268', 'p318']","[2, 6, 7, 10, 4, 1]","[87.57049330475357, 91.58892582949886, 91.73820004985969, 93.00003341222717, 89.31368318402099, 86.2038576498559]",6.0,True,7.0,3.3466401061363023,1.9373676776885986,0.7822948586993531
0,,sub_121,2024-08-02 16:07:47,3,distance,cathedral,numerosity_judgement,3,70,5,countries_forward,"['_Cuba_', '_Mali_', '_Britain_', '_Congo_', '_Sudan_']","['m', 'f', 'f', 'f', 'm']","['p229', 'p268', 'p248', 'p284', 'p256']","[1, 2, 0, 6, 10]","[86.2038576498559, 87.57049330475357, 84.40078082039426, 91.58892582949886, 93.00003341222717]",6.0,False,5.8,4.147288270665544,1.187439203262329,0.9084666893655656
0,,sub_121,2024-08-02 16:07:50,3,distance,cathedral,numerosity_judgement,3,71,2,countries_forward,"['_Britain_', '_Yemen_']","['f', 'm']","['p245', 'p256']","[3, 5]","[89.14911522239515, 90.34149293193902]",2.0,True,6.0,1.4142135623730951,1.6248879432678223,0.635103847463398
0,,sub_121,2024-08-02 16:07:55,3,distance,cathedral,numerosity_judgement,3,72,6,countries_forward,"['_Tonga_', '_Peru_', '_Mali_', '_Yemen_', '_Japan_', '_Sudan_']","['f', 'f', 'm', 'f', 'm', 'm']","['p245', 'p284', 'p256', 'p248', 'p307', 'p229']","[5, 10, 3, 6, 2, 1]","[90.34149293193902, 93.00003341222717, 89.14911522239515, 91.58892582949886, 87.57049330475357, 86.2038576498559]",5.0,False,6.5,3.271085446759225,2.687314748764038,0.7466462376574736
0,,sub_121,2024-08-02 16:07:59,3,distance,cathedral,numerosity_judgement,3,73,3,countries_forward,"['_Sudan_', '_Belgium_', '_Mali_']","['f', 'f', 'f']","['p268', 'p245', 'p284']","[7, 8, 1]","[91.73820004985969, 92.0152836843556, 86.2038576498559]",3.0,True,7.333333333333333,3.7859388972001824,2.5623233318328857,0.9609805924412664
0,,sub_121,2024-08-02 16:08:02,3,distance,cathedral,numerosity_judgement,3,74,4,countries_forward,"['_Yemen_', '_Oman_', '_Mali_', '_Britain_']","['m', 'f', 'm', 'm']","['p318', 'p268', 'p256', 'p307']","[5, 3, 2, 8]","[90.34149293193902, 89.14911522239515, 87.57049330475357, 92.0152836843556]",3.0,False,6.5,2.6457513110645907,1.9998619556427002,0.6913517194416071
0,,sub_121,2024-08-02 16:08:28,3,distance,cathedral,numerosity_judgement,4,0,2,countries_forward,"['_Oman_', '_Britain_']","['m', 'm']","['p307', 'p256']","[5, 10]","[90.34149293193902, 93.00003341222717]",2.0,True,9.5,3.5355339059327378,1.2499141693115234,0.6204744069912609
0,,sub_121,2024-08-02 16:08:31,3,distance,cathedral,numerosity_judgement,4,1,5,countries_forward,"['_Britain_', '_Cuba_', '_Tonga_', '_Yemen_', '_Belgium_']","['f', 'f', 'm', 'm', 'm']","['p284', 'p268', 'p256', 'p229', 'p307']","[9, 8, 6, 3, 5]","[92.00610777531934, 92.0152836843556, 91.58892582949886, 89.14911522239515, 90.34149293193902]",3.0,False,8.2,2.3874672772626644,0.9999110698699951,0.8295312677335149
0,,sub_121,2024-08-02 16:08:34,3,distance,cathedral,numerosity_judgement,4,2,6,countries_forward,"['_Tonga_', '_Mali_', '_Belgium_', '_Cuba_', '_Congo_', '_Peru_']","['m', 'f', 'm', 'f', 'm', 'm']","['p229', 'p284', 'p318', 'p245', 'p307', 'p256']","[3, 1, 0, 7, 10, 6]","[89.14911522239515, 86.2038576498559, 84.40078082039426, 91.73820004985969, 93.00003341222717, 91.58892582949886]",5.0,False,6.5,3.8340579025361627,1.0624463558197021,0.7507547383951878
0,,sub_121,2024-08-02 16:08:37,3,distance,cathedral,numerosity_judgement,4,3,4,countries_forward,"['_Oman_', '_Cuba_', '_Britain_', '_Sudan_']","['m', 'f', 'm', 'm']","['p229', 'p268', 'p256', 'p307']","[9, 3, 6, 4]","[92.00610777531934, 89.14911522239515, 91.58892582949886, 89.31368318402099]",4.0,True,7.5,2.6457513110645907,1.1874206066131592,0.7387583702190443
0,,sub_121,2024-08-02 16:08:39,3,distance,cathedral,numerosity_judgement,4,4,3,countries_forward,"['_Britain_', '_Belgium_', '_Togo_']","['m', 'f', 'm']","['p229', 'p284', 'p256']","[4, 10, 2]","[89.31368318402099, 93.00003341222717, 87.57049330475357]",4.0,False,7.333333333333333,4.163331998932266,1.0624072551727295,0.938179548291908
0,,sub_121,2024-08-02 16:08:42,3,distance,cathedral,numerosity_judgement,4,5,4,countries_forward,"['_Tonga_', '_Peru_', '_Oman_', '_Britain_']","['f', 'f', 'm', 'f']","['p245', 'p248', 'p256', 'p268']","[7, 0, 9, 2]","[91.73820004985969, 84.40078082039426, 92.00610777531934, 87.57049330475357]",3.0,False,6.5,4.203173404306164,1.187439203262329,0.6797185336511179
0,,sub_121,2024-08-02 16:08:46,3,distance,cathedral,numerosity_judgement,4,6,5,countries_forward,"['_Togo_', '_Britain_', '_Congo_', '_Oman_', '_Yemen_']","['m', 'm', 'f', 'm', 'f']","['p307', 'p229', 'p268', 'p318', 'p248']","[7, 0, 3, 5, 9]","[91.73820004985969, 84.40078082039426, 89.14911522239515, 90.34149293193902, 92.00610777531934]",6.0,False,6.8,3.492849839314596,2.3748583793640137,0.7258199977301101
0,,sub_121,2024-08-02 16:08:49,3,distance,cathedral,numerosity_judgement,4,7,3,countries_forward,"['_Oman_', '_Britain_', '_Yemen_']","['m', 'm', 'f']","['p229', 'p256', 'p248']","[7, 8, 3]","[91.73820004985969, 92.0152836843556, 89.14911522239515]",3.0,True,8.0,2.6457513110645907,1.12492036819458,0.616956077630235
0,,sub_121,2024-08-02 16:08:52,3,distance,cathedral,numerosity_judgement,4,8,2,countries_forward,"['_Tonga_', '_Belgium_']","['f', 'm']","['p245', 'p256']","[10, 3]","[93.00003341222717, 89.14911522239515]",4.0,False,8.5,4.949747468305833,1.1874380111694336,0.7747247758483714
0,,sub_121,2024-08-02 16:08:55,3,distance,cathedral,numerosity_judgement,4,9,6,countries_forward,"['_Syria_', '_Tonga_', '_Sudan_', '_Cuba_', '_Yemen_', '_Britain_']","['m', 'f', 'f', 'f', 'm', 'm']","['p256', 'p268', 'p284', 'p248', 'p229', 'p318']","[6, 0, 9, 3, 2, 4]","[91.58892582949886, 84.40078082039426, 92.00610777531934, 89.14911522239515, 87.57049330475357, 89.31368318402099]",2.0,False,6.0,3.1622776601683795,1.6248877048492432,0.9358756100329134
0,,sub_121,2024-08-02 16:08:58,3,distance,cathedral,numerosity_judgement,4,10,2,countries_forward,"['_Togo_', '_Sudan_']","['m', 'f']","['p318', 'p248']","[7, 8]","[91.73820004985969, 92.0152836843556]",5.0,False,9.5,0.7071067811865476,1.374924898147583,0.9113721484508002
0,,sub_121,2024-08-02 16:09:02,3,distance,cathedral,numerosity_judgement,4,11,3,countries_forward,"['_Yemen_', '_Cuba_', '_Tonga_']","['f', 'm', 'f']","['p248', 'p318', 'p245']","[3, 5, 9]","[89.14911522239515, 90.34149293193902, 92.00610777531934]",3.0,True,7.666666666666667,3.0550504633038935,2.124833106994629,0.7331630915900579
0,,sub_121,2024-08-02 16:09:06,3,distance,cathedral,numerosity_judgement,4,12,6,countries_forward,"['_Oman_', '_Tonga_', '_Togo_', '_Congo_', '_Mali_', '_Cuba_']","['m', 'f', 'm', 'f', 'm', 'f']","['p256', 'p284', 'p229', 'p268', 'p307', 'p245']","[6, 9, 7, 0, 5, 3]","[91.58892582949886, 92.00610777531934, 91.73820004985969, 84.40078082039426, 90.34149293193902, 89.14911522239515]",5.0,False,7.0,3.1622776601683795,1.7498798370361328,0.7811939620928385
0,,sub_121,2024-08-02 16:09:09,3,distance,cathedral,numerosity_judgement,4,13,5,countries_forward,"['_Yemen_', '_Cuba_', '_Tonga_', '_Oman_', '_Peru_']","['f', 'm', 'f', 'f', 'm']","['p284', 'p229', 'p248', 'p245', 'p307']","[7, 3, 5, 6, 2]","[91.73820004985969, 89.14911522239515, 90.34149293193902, 91.58892582949886, 87.57049330475357]",4.0,False,6.6,2.073644135332772,1.4374210834503174,0.6934740665077743
0,,sub_121,2024-08-02 16:09:12,3,distance,cathedral,numerosity_judgement,4,14,4,countries_forward,"['_Tonga_', '_Peru_', '_Oman_', '_Mali_']","['f', 'f', 'm', 'm']","['p245', 'p268', 'p256', 'p229']","[4, 7, 5, 3]","[89.31368318402099, 91.73820004985969, 90.34149293193902, 89.14911522239515]",3.0,False,6.75,1.707825127659933,1.0624487400054932,0.7043354897287482
0,,sub_121,2024-08-02 16:09:15,3,distance,cathedral,numerosity_judgement,4,15,2,countries_forward,"['_Cuba_', '_Oman_']","['m', 'f']","['p229', 'p268']","[3, 4]","[89.14911522239515, 89.31368318402099]",4.0,False,5.5,0.7071067811865476,1.6248884201049805,0.7199523323118828
0,,sub_121,2024-08-02 16:09:18,3,distance,cathedral,numerosity_judgement,4,16,3,countries_forward,"['_Britain_', '_Oman_', '_Mali_']","['m', 'f', 'm']","['p229', 'p268', 'p307']","[7, 2, 8]","[91.73820004985969, 87.57049330475357, 92.0152836843556]",2.0,False,7.666666666666667,3.2145502536643185,2.124833345413208,0.7552945182158666
0,,sub_121,2024-08-02 16:09:21,3,distance,cathedral,numerosity_judgement,4,17,4,countries_forward,"['_Congo_', '_Tonga_', '_Sudan_', '_Belgium_']","['f', 'm', 'm', 'm']","['p248', 'p307', 'p229', 'p318']","[4, 1, 3, 6]","[89.31368318402099, 86.2038576498559, 89.14911522239515, 91.58892582949886]",5.0,False,5.5,2.0816659994661326,1.3124098777770996,0.9240608330495972
0,,sub_121,2024-08-02 16:09:26,3,distance,cathedral,numerosity_judgement,4,18,6,countries_forward,"['_Peru_', '_Japan_', '_Congo_', '_Cuba_', '_Yemen_', '_Britain_']","['m', 'f', 'm', 'f', 'f', 'm']","['p229', 'p248', 'p318', 'p268', 'p245', 'p307']","[7, 9, 5, 10, 6, 3]","[91.73820004985969, 92.00610777531934, 90.34149293193902, 93.00003341222717, 91.58892582949886, 89.14911522239515]",5.0,False,8.666666666666666,2.581988897471611,2.4373321533203125,0.8187719895585064
0,,sub_121,2024-08-02 16:09:29,3,distance,cathedral,numerosity_judgement,4,19,5,countries_forward,"['_Peru_', '_Cuba_', '_Syria_', '_Belgium_', '_Japan_']","['f', 'm', 'f', 'f', 'f']","['p245', 'p229', 'p268', 'p284', 'p248']","[6, 10, 3, 0, 9]","[91.58892582949886, 93.00003341222717, 89.14911522239515, 84.40078082039426, 92.00610777531934]",4.0,False,7.6,4.159326868617084,1.312389850616455,0.8809669731018046
0,,sub_121,2024-08-02 16:09:32,3,distance,cathedral,numerosity_judgement,4,20,2,countries_forward,"['_Yemen_', '_Tonga_']","['f', 'm']","['p248', 'p318']","[10, 2]","[93.00003341222717, 87.57049330475357]",2.0,True,8.0,5.656854249492381,1.4998960494995117,0.7038815117466802
0,,sub_121,2024-08-02 16:09:36,3,distance,cathedral,numerosity_judgement,4,21,4,countries_forward,"['_Congo_', '_Britain_', '_Oman_', '_Mali_']","['f', 'm', 'f', 'm']","['p248', 'p318', 'p245', 'p307']","[1, 5, 4, 7]","[86.2038576498559, 90.34149293193902, 89.31368318402099, 91.73820004985969]",3.0,False,6.25,2.5,2.187349796295166,0.7512314152763591
0,,sub_121,2024-08-02 16:09:39,3,distance,cathedral,numerosity_judgement,4,22,5,countries_forward,"['_Cuba_', '_Yemen_', '_Mali_', '_Oman_', '_Japan_']","['f', 'f', 'm', 'f', 'm']","['p248', 'p284', 'p256', 'p268', 'p229']","[10, 8, 1, 9, 3]","[93.00003341222717, 92.0152836843556, 86.2038576498559, 92.00610777531934, 89.14911522239515]",4.0,False,8.2,3.96232255123179,1.437401294708252,0.7508001361933946
0,,sub_121,2024-08-02 16:09:42,3,distance,cathedral,numerosity_judgement,4,23,3,countries_forward,"['_Oman_', '_Belgium_', '_Cuba_']","['m', 'f', 'm']","['p318', 'p284', 'p256']","[10, 1, 6]","[93.00003341222717, 86.2038576498559, 91.58892582949886]",3.0,True,7.666666666666667,4.509249752822894,1.499877691268921,0.8357394166382931
0,,sub_121,2024-08-02 16:09:46,3,distance,cathedral,numerosity_judgement,4,24,6,countries_forward,"['_Oman_', '_Peru_', '_Britain_', '_Tonga_', '_Yemen_', '_Congo_']","['f', 'f', 'm', 'f', 'm', 'f']","['p284', 'p268', 'p229', 'p248', 'p318', 'p245']","[7, 8, 5, 10, 6, 1]","[91.73820004985969, 92.0152836843556, 90.34149293193902, 93.00003341222717, 91.58892582949886, 86.2038576498559]",5.0,False,8.166666666666666,3.0605010483034745,2.31234073638916,0.7195778004766769
0,,sub_121,2024-08-02 16:09:49,3,distance,cathedral,numerosity_judgement,4,25,4,countries_forward,"['_Tonga_', '_Syria_', '_Cuba_', '_Britain_']","['f', 'm', 'm', 'f']","['p248', 'p229', 'p256', 'p284']","[7, 6, 9, 10]","[91.73820004985969, 91.58892582949886, 92.00610777531934, 93.00003341222717]",3.0,False,10.0,1.8257418583505538,1.1874384880065918,0.8975485188968335
0,,sub_121,2024-08-02 16:09:52,3,distance,cathedral,numerosity_judgement,4,26,3,countries_forward,"['_Peru_', '_Togo_', '_Oman_']","['f', 'f', 'm']","['p268', 'p248', 'p229']","[1, 5, 8]","[86.2038576498559, 90.34149293193902, 92.0152836843556]",2.0,False,6.666666666666667,3.5118845842842465,1.3124096393585205,0.7748836681420951
0,,sub_121,2024-08-02 16:09:55,3,distance,cathedral,numerosity_judgement,4,27,2,countries_forward,"['_Congo_', '_Mali_']","['f', 'm']","['p248', 'p229']","[2, 0]","[87.57049330475357, 84.40078082039426]",2.0,True,3.0,1.4142135623730951,1.0624463558197021,0.9288389513108616
0,,sub_121,2024-08-02 16:09:58,3,distance,cathedral,numerosity_judgement,4,28,5,countries_forward,"['_Congo_', '_Belgium_', '_Mali_', '_Syria_', '_Togo_']","['f', 'm', 'f', 'm', 'f']","['p268', 'p318', 'p284', 'p229', 'p248']","[0, 3, 8, 2, 7]","[84.40078082039426, 89.14911522239515, 92.0152836843556, 87.57049330475357, 91.73820004985969]",5.0,True,6.0,3.391164991562634,1.3749048709869385,0.9491885143570536
0,,sub_121,2024-08-02 16:10:01,3,distance,cathedral,numerosity_judgement,4,29,6,countries_forward,"['_Sudan_', '_Tonga_', '_Britain_', '_Belgium_', '_Cuba_', '_Peru_']","['f', 'm', 'm', 'm', 'f', 'f']","['p268', 'p318', 'p256', 'p307', 'p248', 'p284']","[0, 9, 3, 1, 7, 5]","[84.40078082039426, 92.00610777531934, 89.14911522239515, 86.2038576498559, 91.73820004985969, 90.34149293193902]",6.0,True,6.166666666666667,3.488074922742725,0.9374551773071289,0.9187946884576098
0,,sub_121,2024-08-02 16:10:03,3,distance,cathedral,numerosity_judgement,4,30,3,countries_forward,"['_Oman_', '_Yemen_', '_Peru_']","['f', 'm', 'm']","['p284', 'p256', 'p318']","[6, 7, 2]","[91.58892582949886, 91.73820004985969, 87.57049330475357]",2.0,False,7.0,2.6457513110645907,1.0624070167541504,0.7869594824651004
0,,sub_121,2024-08-02 16:10:06,3,distance,cathedral,numerosity_judgement,4,31,2,countries_forward,"['_Japan_', '_Belgium_']","['m', 'm']","['p256', 'p229']","[1, 5]","[86.2038576498559, 90.34149293193902]",2.0,True,5.0,2.8284271247461903,1.1874380111694336,0.8842242651231416
