event_id,timestamp,subject_id,session_index,plane,setup,task,block,trial_index,headpose_offset_azi,headpose_offset_ele,target_number,target_filename,target_talker,target_sex,target_speaker_id,step_number:,distance_masker,distance_target,target_speaker_proc,target_speaker_chan,target_speaker_azi,target_speaker_ele,target_speaker_dist,target_stim_level,masker_filename,masker_speaker_id,masker_speaker_proc,masker_speaker_chan,masker_speaker_azi,masker_speaker_ele,masker_speaker_dist,masker_stim_level,normalisation_method,normalisation_level_masker,normalisation_level_target,played_number,resp_number,is_correct,reaction_time
,2024-07-11 09:11:42,sub_102,3,distance,cathedral,spatial_unmasking,1,0,0,0,_four_,talker-p268_sex-f_text-_four_.wav,p268,f,5,1,12.0,7.0,RX81,6,0.0,0.0,7.0,92.34149293193902,babble-reversed_n13_p307-two-p256-four-p318-three-p284-eight-p248-five-p245-nine.wav,10,RX81,11,0.0,0.0,12.0,93.00003341222718,mgb_normalisation,93.00003341222715,90.34149293193902,4,8.0,False,2.812237024307251
,2024-07-11 09:11:46,sub_102,3,distance,cathedral,spatial_unmasking,1,1,0,0,_three_,talker-p268_sex-f_text-_three_.wav,p268,f,5,2,12.0,7.0,RX81,6,0.0,0.0,7.0,94.341492931939,babble-reversed_n13_p318-five-p229-four-p256-eight-p284-one-p245-three-p248-two.wav,10,RX81,11,0.0,0.0,12.0,93.00003341222718,mgb_normalisation,93.00003341222715,90.34149293193902,3,3.0,True,1.437398910522461
,2024-07-11 09:11:50,sub_102,3,distance,cathedral,spatial_unmasking,1,2,0,0,_two_,talker-p268_sex-f_text-_two_.wav,p268,f,5,3,12.0,7.0,RX81,6,0.0,0.0,7.0,94.34149293193904,babble-reversed_n13_p256-four-p229-eight-p307-five-p248-three-p245-one-p284-two.wav,10,RX81,11,0.0,0.0,12.0,93.00003341222715,mgb_normalisation,93.00003341222715,90.34149293193902,2,2.0,True,1.2499113082885742
,2024-07-11 09:11:54,sub_102,3,distance,cathedral,spatial_unmasking,1,3,0,0,_six_,talker-p268_sex-f_text-_six_.wav,p268,f,5,4,12.0,7.0,RX81,6,0.0,0.0,7.0,92.34149293193902,babble-reversed_n13_p318-three-p229-one-p256-eight-p245-five-p248-four-p284-nine.wav,10,RX81,11,0.0,0.0,12.0,93.00003341222718,mgb_normalisation,93.00003341222715,90.34149293193902,6,6.0,True,1.8748674392700195
,2024-07-11 09:11:58,sub_102,3,distance,cathedral,spatial_unmasking,1,4,0,0,_one_,talker-p268_sex-f_text-_one_.wav,p268,f,5,5,12.0,7.0,RX81,6,0.0,0.0,7.0,92.34149293193902,babble-reversed_n13_p229-five-p256-three-p318-nine-p248-two-p284-four-p268-one.wav,10,RX81,11,0.0,0.0,12.0,93.00003341222718,mgb_normalisation,93.00003341222715,90.34149293193902,1,1.0,True,1.3749029636383057
,2024-07-11 09:12:03,sub_102,3,distance,cathedral,spatial_unmasking,1,5,0,0,_four_,talker-p268_sex-f_text-_four_.wav,p268,f,5,6,12.0,7.0,RX81,6,0.0,0.0,7.0,90.341492931939,babble-reversed_n13_p229-nine-p256-four-p318-three-p268-eight-p248-two-p284-five.wav,10,RX81,11,0.0,0.0,12.0,93.00003341222718,mgb_normalisation,93.00003341222715,90.34149293193902,4,3.0,False,3.0622823238372803
,2024-07-11 09:12:07,sub_102,3,distance,cathedral,spatial_unmasking,1,6,0,0,_four_,talker-p268_sex-f_text-_four_.wav,p268,f,5,7,12.0,7.0,RX81,6,0.0,0.0,7.0,91.341492931939,babble-reversed_n13_p229-nine-p256-four-p318-three-p268-eight-p248-two-p284-five.wav,10,RX81,11,0.0,0.0,12.0,93.00003341222718,mgb_normalisation,93.00003341222715,90.34149293193902,4,4.0,True,1.624885320663452
,2024-07-11 09:12:11,sub_102,3,distance,cathedral,spatial_unmasking,1,7,0,0,_four_,talker-p268_sex-f_text-_four_.wav,p268,f,5,8,12.0,7.0,RX81,6,0.0,0.0,7.0,91.341492931939,babble-reversed_n13_p256-eight-p229-three-p307-nine-p245-five-p248-four-p268-two.wav,10,RX81,11,0.0,0.0,12.0,93.00003341222715,mgb_normalisation,93.00003341222715,90.34149293193902,4,3.0,False,1.4998936653137207
,2024-07-11 09:12:15,sub_102,3,distance,cathedral,spatial_unmasking,1,8,0,0,_six_,talker-p268_sex-f_text-_six_.wav,p268,f,5,9,12.0,7.0,RX81,6,0.0,0.0,7.0,92.34149293193902,babble-reversed_n13_p229-one-p318-eight-p256-three-p268-nine-p248-five-p284-four.wav,10,RX81,11,0.0,0.0,12.0,93.00003341222715,mgb_normalisation,93.00003341222715,90.34149293193902,6,6.0,True,1.4373981952667236
,2024-07-11 09:12:19,sub_102,3,distance,cathedral,spatial_unmasking,1,9,0,0,_eight_,talker-p268_sex-f_text-_eight_.wav,p268,f,5,10,12.0,7.0,RX81,6,0.0,0.0,7.0,92.34149293193902,babble-reversed_n13_p318-five-p229-three-p256-four-p268-eight-p248-one-p245-nine.wav,10,RX81,11,0.0,0.0,12.0,93.00003341222718,mgb_normalisation,93.00003341222715,90.34149293193902,8,8.0,True,1.312408447265625
,2024-07-11 09:12:22,sub_102,3,distance,cathedral,spatial_unmasking,1,10,0,0,_three_,talker-p268_sex-f_text-_three_.wav,p268,f,5,11,12.0,7.0,RX81,6,0.0,0.0,7.0,91.34149293193902,babble-reversed_n13_p318-nine-p256-five-p307-eight-p268-three-p248-one-p245-four.wav,10,RX81,11,0.0,0.0,12.0,93.00003341222718,mgb_normalisation,93.00003341222715,90.34149293193902,3,3.0,True,1.1874160766601562
,2024-07-11 09:12:26,sub_102,3,distance,cathedral,spatial_unmasking,1,11,0,0,_eight_,talker-p268_sex-f_text-_eight_.wav,p268,f,5,12,12.0,7.0,RX81,6,0.0,0.0,7.0,91.34149293193902,babble-reversed_n13_p229-five-p256-one-p318-three-p248-nine-p268-four-p284-eight.wav,10,RX81,11,0.0,0.0,12.0,93.00003341222715,mgb_normalisation,93.00003341222715,90.34149293193902,8,8.0,True,1.1874167919158936
,2024-07-11 09:12:29,sub_102,3,distance,cathedral,spatial_unmasking,1,12,0,0,_one_,talker-p268_sex-f_text-_one_.wav,p268,f,5,13,12.0,7.0,RX81,6,0.0,0.0,7.0,90.34149293193904,babble-reversed_n13_p256-four-p307-eight-p318-two-p248-three-p284-nine-p268-one.wav,10,RX81,11,0.0,0.0,12.0,93.00003341222718,mgb_normalisation,93.00003341222715,90.34149293193902,1,1.0,True,1.12492036819458
,2024-07-11 09:12:33,sub_102,3,distance,cathedral,spatial_unmasking,1,13,0,0,_two_,talker-p268_sex-f_text-_two_.wav,p268,f,5,14,12.0,7.0,RX81,6,0.0,0.0,7.0,90.34149293193904,babble-reversed_n13_p256-eight-p229-three-p307-nine-p245-five-p248-four-p268-two.wav,10,RX81,11,0.0,0.0,12.0,93.00003341222715,mgb_normalisation,93.00003341222715,90.34149293193902,2,2.0,True,1.5624566078186035
,2024-07-11 09:12:37,sub_102,3,distance,cathedral,spatial_unmasking,1,14,0,0,_three_,talker-p268_sex-f_text-_three_.wav,p268,f,5,15,12.0,7.0,RX81,6,0.0,0.0,7.0,89.341492931939,babble-reversed_n13_p318-five-p229-three-p256-four-p268-eight-p248-one-p245-nine.wav,10,RX81,11,0.0,0.0,12.0,93.00003341222718,mgb_normalisation,93.00003341222715,90.34149293193902,3,3.0,True,1.8748679161071773
,2024-07-11 09:12:41,sub_102,3,distance,cathedral,spatial_unmasking,1,15,0,0,_eight_,talker-p268_sex-f_text-_eight_.wav,p268,f,5,16,12.0,7.0,RX81,6,0.0,0.0,7.0,89.34149293193903,babble-reversed_n13_p256-three-p318-one-p307-two-p284-nine-p268-four-p245-eight.wav,10,RX81,11,0.0,0.0,12.0,93.00003341222718,mgb_normalisation,93.00003341222715,90.34149293193902,8,8.0,True,1.2499122619628906
,2024-07-11 09:12:45,sub_102,3,distance,cathedral,spatial_unmasking,1,16,0,0,_two_,talker-p268_sex-f_text-_two_.wav,p268,f,5,17,12.0,7.0,RX81,6,0.0,0.0,7.0,88.34149293193903,babble-reversed_n13_p229-eight-p256-nine-p318-four-p245-three-p268-five-p284-two.wav,10,RX81,11,0.0,0.0,12.0,93.00003341222715,mgb_normalisation,93.00003341222715,90.34149293193902,2,2.0,True,1.5623893737792969
,2024-07-11 09:12:49,sub_102,3,distance,cathedral,spatial_unmasking,1,17,0,0,_nine_,talker-p268_sex-f_text-_nine_.wav,p268,f,5,18,12.0,7.0,RX81,6,0.0,0.0,7.0,88.34149293193902,babble-reversed_n13_p307-five-p229-three-p318-nine-p245-four-p268-eight-p284-two.wav,10,RX81,11,0.0,0.0,12.0,93.00003341222715,mgb_normalisation,93.00003341222715,90.34149293193902,9,9.0,True,1.249911546707153
,2024-07-11 09:12:52,sub_102,3,distance,cathedral,spatial_unmasking,1,18,0,0,_six_,talker-p268_sex-f_text-_six_.wav,p268,f,5,19,12.0,7.0,RX81,6,0.0,0.0,7.0,87.34149293193902,babble-reversed_n13_p318-nine-p307-eight-p229-two-p284-one-p248-three-p245-five.wav,10,RX81,11,0.0,0.0,12.0,93.00003341222718,mgb_normalisation,93.00003341222715,90.34149293193902,6,6.0,True,1.124946355819702
,2024-07-11 09:12:55,sub_102,3,distance,cathedral,spatial_unmasking,1,19,0,0,_three_,talker-p268_sex-f_text-_three_.wav,p268,f,5,20,12.0,7.0,RX81,6,0.0,0.0,7.0,87.34149293193902,babble-reversed_n13_p256-five-p229-one-p318-three-p248-nine-p284-eight-p268-two.wav,10,RX81,11,0.0,0.0,12.0,93.00003341222718,mgb_normalisation,93.00003341222715,90.34149293193902,3,3.0,True,0.9374630451202391
,2024-07-11 09:13:01,sub_102,3,distance,cathedral,spatial_unmasking,1,20,0,0,_four_,talker-p268_sex-f_text-_four_.wav,p268,f,5,21,12.0,7.0,RX81,6,0.0,0.0,7.0,86.341492931939,babble-reversed_n13_p256-eight-p229-three-p307-nine-p245-five-p248-four-p268-two.wav,10,RX81,11,0.0,0.0,12.0,93.00003341222715,mgb_normalisation,93.00003341222715,90.34149293193902,4,8.0,False,2.874797105789185
,2024-07-11 09:13:04,sub_102,3,distance,cathedral,spatial_unmasking,1,21,0,0,_nine_,talker-p268_sex-f_text-_nine_.wav,p268,f,5,22,12.0,7.0,RX81,6,0.0,0.0,7.0,87.34149293193902,babble-reversed_n13_p318-five-p229-four-p256-eight-p284-one-p245-three-p248-two.wav,10,RX81,11,0.0,0.0,12.0,93.00003341222718,mgb_normalisation,93.00003341222715,90.34149293193902,9,9.0,True,1.0624244213104248
,2024-07-11 09:13:08,sub_102,3,distance,cathedral,spatial_unmasking,1,22,0,0,_four_,talker-p268_sex-f_text-_four_.wav,p268,f,5,23,12.0,7.0,RX81,6,0.0,0.0,7.0,87.34149293193902,babble-reversed_n13_p229-two-p256-three-p318-eight-p284-five-p268-four-p245-one.wav,10,RX81,11,0.0,0.0,12.0,93.00003341222718,mgb_normalisation,93.00003341222715,90.34149293193902,4,4.0,True,1.5623905658721924
,2024-07-11 09:13:13,sub_102,3,distance,cathedral,spatial_unmasking,1,23,0,0,_five_,talker-p268_sex-f_text-_five_.wav,p268,f,5,24,12.0,7.0,RX81,6,0.0,0.0,7.0,86.34149293193902,babble-reversed_n13_p307-nine-p229-one-p256-eight-p248-four-p284-two-p268-three.wav,10,RX81,11,0.0,0.0,12.0,93.00003341222718,mgb_normalisation,93.00003341222715,90.34149293193902,5,5.0,True,2.0623462200164795
,2024-07-11 09:13:17,sub_102,3,distance,cathedral,spatial_unmasking,1,24,0,0,_two_,talker-p268_sex-f_text-_two_.wav,p268,f,5,25,12.0,7.0,RX81,6,0.0,0.0,7.0,86.34149293193902,babble-reversed_n13_p307-five-p229-three-p318-nine-p245-four-p268-eight-p284-two.wav,10,RX81,11,0.0,0.0,12.0,93.00003341222715,mgb_normalisation,93.00003341222715,90.34149293193902,2,2.0,True,1.812434196472168
,2024-07-11 09:13:23,sub_102,3,distance,cathedral,spatial_unmasking,1,25,0,0,_four_,talker-p268_sex-f_text-_four_.wav,p268,f,5,26,12.0,7.0,RX81,6,0.0,0.0,7.0,85.341492931939,babble-reversed_n13_p229-two-p318-eight-p256-three-p268-one-p248-nine-p284-five.wav,10,RX81,11,0.0,0.0,12.0,93.00003341222715,mgb_normalisation,93.00003341222715,90.34149293193902,4,8.0,False,3.374760627746582
,2024-07-11 09:13:26,sub_102,3,distance,cathedral,spatial_unmasking,1,26,0,0,_four_,talker-p268_sex-f_text-_four_.wav,p268,f,5,27,12.0,7.0,RX81,6,0.0,0.0,7.0,86.341492931939,babble-reversed_n13_p229-three-p256-one-p307-two-p284-eight-p268-five-p248-nine.wav,10,RX81,11,0.0,0.0,12.0,93.00003341222718,mgb_normalisation,93.00003341222715,90.34149293193902,4,4.0,True,1.43739914894104
,2024-07-11 09:13:30,sub_102,3,distance,cathedral,spatial_unmasking,1,27,0,0,_four_,talker-p268_sex-f_text-_four_.wav,p268,f,5,28,12.0,7.0,RX81,6,0.0,0.0,7.0,86.341492931939,babble-reversed_n13_p229-two-p256-three-p318-eight-p284-five-p268-four-p245-one.wav,10,RX81,11,0.0,0.0,12.0,93.00003341222718,mgb_normalisation,93.00003341222715,90.34149293193902,4,4.0,True,1.1874167919158936
,2024-07-11 09:13:33,sub_102,3,distance,cathedral,spatial_unmasking,1,28,0,0,_three_,talker-p268_sex-f_text-_three_.wav,p268,f,5,29,12.0,7.0,RX81,6,0.0,0.0,7.0,85.341492931939,babble-reversed_n13_p256-nine-p307-four-p229-one-p284-three-p248-two-p245-five.wav,10,RX81,11,0.0,0.0,12.0,93.00003341222718,mgb_normalisation,93.00003341222715,90.34149293193902,3,3.0,True,1.0624241828918457
,2024-07-11 09:13:37,sub_102,3,distance,cathedral,spatial_unmasking,1,29,0,0,_four_,talker-p268_sex-f_text-_four_.wav,p268,f,5,30,12.0,7.0,RX81,6,0.0,0.0,7.0,85.341492931939,babble-reversed_n13_p229-nine-p318-one-p307-two-p248-eight-p245-five-p284-four.wav,10,RX81,11,0.0,0.0,12.0,93.00003341222718,mgb_normalisation,93.00003341222715,90.34149293193902,4,9.0,False,1.562389850616455
,2024-07-11 09:13:41,sub_102,3,distance,cathedral,spatial_unmasking,1,30,0,0,_three_,talker-p268_sex-f_text-_three_.wav,p268,f,5,31,12.0,7.0,RX81,6,0.0,0.0,7.0,86.34149293193902,babble-reversed_n13_p256-eight-p318-five-p307-four-p245-three-p268-one-p284-nine.wav,10,RX81,11,0.0,0.0,12.0,93.00003341222715,mgb_normalisation,93.00003341222715,90.34149293193902,3,3.0,True,1.062425136566162
,2024-07-11 09:13:44,sub_102,3,distance,cathedral,spatial_unmasking,1,31,0,0,_six_,talker-p268_sex-f_text-_six_.wav,p268,f,5,32,12.0,7.0,RX81,6,0.0,0.0,7.0,86.341492931939,babble-reversed_n13_p229-nine-p307-five-p256-two-p248-three-p245-one-p268-eight.wav,10,RX81,11,0.0,0.0,12.0,93.00003341222715,mgb_normalisation,93.00003341222715,90.34149293193902,6,6.0,True,0.9999284744262696
,2024-07-11 09:13:48,sub_102,3,distance,cathedral,spatial_unmasking,1,32,0,0,_three_,talker-p268_sex-f_text-_three_.wav,p268,f,5,33,12.0,7.0,RX81,6,0.0,0.0,7.0,85.341492931939,babble-reversed_n13_p229-nine-p318-one-p307-two-p248-eight-p245-five-p284-four.wav,10,RX81,11,0.0,0.0,12.0,93.00003341222718,mgb_normalisation,93.00003341222715,90.34149293193902,3,3.0,True,0.8749401569366455
,2024-07-11 09:13:51,sub_102,3,distance,cathedral,spatial_unmasking,1,33,0,0,_six_,talker-p268_sex-f_text-_six_.wav,p268,f,5,34,12.0,7.0,RX81,6,0.0,0.0,7.0,85.341492931939,babble-reversed_n13_p229-five-p256-one-p318-three-p248-nine-p268-four-p284-eight.wav,10,RX81,11,0.0,0.0,12.0,93.00003341222715,mgb_normalisation,93.00003341222715,90.34149293193902,6,6.0,True,0.9374310970306396
,2024-07-11 09:13:54,sub_102,3,distance,cathedral,spatial_unmasking,1,34,0,0,_six_,talker-p268_sex-f_text-_six_.wav,p268,f,5,35,12.0,7.0,RX81,6,0.0,0.0,7.0,84.341492931939,babble-reversed_n13_p229-eight-p256-nine-p318-four-p245-three-p268-five-p284-two.wav,10,RX81,11,0.0,0.0,12.0,93.00003341222715,mgb_normalisation,93.00003341222715,90.34149293193902,6,6.0,True,0.9374332427978516
,2024-07-11 09:13:58,sub_102,3,distance,cathedral,spatial_unmasking,1,35,0,0,_five_,talker-p268_sex-f_text-_five_.wav,p268,f,5,36,12.0,7.0,RX81,6,0.0,0.0,7.0,84.341492931939,babble-reversed_n13_p318-nine-p256-five-p307-eight-p268-three-p248-one-p245-four.wav,10,RX81,11,0.0,0.0,12.0,93.00003341222718,mgb_normalisation,93.00003341222715,90.34149293193902,5,5.0,True,0.937384843826294
,2024-07-11 09:14:01,sub_102,3,distance,cathedral,spatial_unmasking,1,36,0,0,_nine_,talker-p268_sex-f_text-_nine_.wav,p268,f,5,37,12.0,7.0,RX81,6,0.0,0.0,7.0,83.34149293193902,babble-reversed_n13_p318-five-p229-three-p256-four-p268-eight-p248-one-p245-nine.wav,10,RX81,11,0.0,0.0,12.0,93.00003341222718,mgb_normalisation,93.00003341222715,90.34149293193902,9,9.0,True,1.1874165534973145
,2024-07-11 09:14:05,sub_102,3,distance,cathedral,spatial_unmasking,1,37,0,0,_one_,talker-p268_sex-f_text-_one_.wav,p268,f,5,38,12.0,7.0,RX81,6,0.0,0.0,7.0,83.34149293193902,babble-reversed_n13_p256-four-p229-eight-p307-five-p248-three-p245-one-p284-two.wav,10,RX81,11,0.0,0.0,12.0,93.00003341222715,mgb_normalisation,93.00003341222715,90.34149293193902,1,9.0,False,1.374903440475464
,2024-07-11 09:14:08,sub_102,3,distance,cathedral,spatial_unmasking,1,38,0,0,_three_,talker-p268_sex-f_text-_three_.wav,p268,f,5,39,12.0,7.0,RX81,6,0.0,0.0,7.0,84.341492931939,babble-reversed_n13_p229-five-p318-two-p307-eight-p268-three-p248-four-p245-one.wav,10,RX81,11,0.0,0.0,12.0,93.00003341222718,mgb_normalisation,93.00003341222715,90.34149293193902,3,3.0,True,1.062425136566162
,2024-07-11 09:14:12,sub_102,3,distance,cathedral,spatial_unmasking,1,39,0,0,_three_,talker-p268_sex-f_text-_three_.wav,p268,f,5,40,12.0,7.0,RX81,6,0.0,0.0,7.0,84.341492931939,babble-reversed_n13_p256-five-p307-nine-p318-three-p284-eight-p268-one-p248-two.wav,10,RX81,11,0.0,0.0,12.0,93.00003341222715,mgb_normalisation,93.00003341222715,90.34149293193902,3,3.0,True,0.9374358654022216
,2024-07-11 09:15:48,sub_102,3,distance,cathedral,spatial_unmasking,2,40,0,0,_one_,talker-p268_sex-f_text-_one_.wav,p268,f,5,1,7.0,7.0,RX81,6,0.0,0.0,7.0,92.34149293193902,babble-reversed_n13_p229-five-p256-one-p318-three-p248-nine-p268-four-p284-eight.wav,5,RX81,6,0.0,0.0,7.0,90.341492931939,mgb_normalisation,90.34149293193902,90.34149293193902,1,1.0,True,1.249910831451416
,2024-07-11 09:15:52,sub_102,3,distance,cathedral,spatial_unmasking,2,41,0,0,_nine_,talker-p268_sex-f_text-_nine_.wav,p268,f,5,2,7.0,7.0,RX81,6,0.0,0.0,7.0,88.34149293193902,babble-reversed_n13_p256-three-p318-one-p307-two-p284-nine-p268-four-p245-eight.wav,5,RX81,6,0.0,0.0,7.0,90.34149293193904,mgb_normalisation,90.34149293193902,90.34149293193902,9,9.0,True,1.2499096393585205
,2024-07-11 09:15:56,sub_102,3,distance,cathedral,spatial_unmasking,2,42,0,0,_three_,talker-p268_sex-f_text-_three_.wav,p268,f,5,3,7.0,7.0,RX81,6,0.0,0.0,7.0,84.341492931939,babble-reversed_n13_p229-two-p318-eight-p256-three-p268-one-p248-nine-p284-five.wav,5,RX81,6,0.0,0.0,7.0,90.341492931939,mgb_normalisation,90.34149293193902,90.34149293193902,3,3.0,True,1.7498767375946045
,2024-07-11 09:16:00,sub_102,3,distance,cathedral,spatial_unmasking,2,43,0,0,_four_,talker-p268_sex-f_text-_four_.wav,p268,f,5,4,7.0,7.0,RX81,6,0.0,0.0,7.0,80.341492931939,babble-reversed_n13_p307-four-p318-three-p256-eight-p284-two-p245-nine-p248-five.wav,5,RX81,6,0.0,0.0,7.0,90.341492931939,mgb_normalisation,90.34149293193902,90.34149293193902,4,8.0,False,1.6873807907104492
,2024-07-11 09:16:03,sub_102,3,distance,cathedral,spatial_unmasking,2,44,0,0,_four_,talker-p268_sex-f_text-_four_.wav,p268,f,5,5,7.0,7.0,RX81,6,0.0,0.0,7.0,82.34149293193902,babble-reversed_n13_p318-five-p256-nine-p307-two-p245-eight-p248-one-p284-four.wav,5,RX81,6,0.0,0.0,7.0,90.34149293193904,mgb_normalisation,90.34149293193902,90.34149293193902,4,4.0,True,1.3749041557312012
,2024-07-11 09:16:08,sub_102,3,distance,cathedral,spatial_unmasking,2,45,0,0,_nine_,talker-p268_sex-f_text-_nine_.wav,p268,f,5,6,7.0,7.0,RX81,6,0.0,0.0,7.0,82.34149293193902,babble-reversed_n13_p229-three-p256-one-p307-two-p284-eight-p268-five-p248-nine.wav,5,RX81,6,0.0,0.0,7.0,90.34149293193904,mgb_normalisation,90.34149293193902,90.34149293193902,9,3.0,False,1.8748676776885984
,2024-07-11 09:16:11,sub_102,3,distance,cathedral,spatial_unmasking,2,46,0,0,_nine_,talker-p268_sex-f_text-_nine_.wav,p268,f,5,7,7.0,7.0,RX81,6,0.0,0.0,7.0,84.341492931939,babble-reversed_n13_p256-three-p318-one-p307-two-p284-nine-p268-four-p245-eight.wav,5,RX81,6,0.0,0.0,7.0,90.34149293193904,mgb_normalisation,90.34149293193902,90.34149293193902,9,9.0,True,1.062424659729004
,2024-07-11 09:16:14,sub_102,3,distance,cathedral,spatial_unmasking,2,47,0,0,_five_,talker-p268_sex-f_text-_five_.wav,p268,f,5,8,7.0,7.0,RX81,6,0.0,0.0,7.0,84.341492931939,babble-reversed_n13_p318-five-p256-nine-p307-eight-p248-two-p245-four-p284-three.wav,5,RX81,6,0.0,0.0,7.0,90.34149293193904,mgb_normalisation,90.34149293193902,90.34149293193902,5,5.0,True,1.124972581863403
,2024-07-11 09:16:18,sub_102,3,distance,cathedral,spatial_unmasking,2,48,0,0,_eight_,talker-p268_sex-f_text-_eight_.wav,p268,f,5,9,7.0,7.0,RX81,6,0.0,0.0,7.0,82.34149293193902,babble-reversed_n13_p256-eight-p318-two-p307-five-p245-four-p268-nine-p284-one.wav,5,RX81,6,0.0,0.0,7.0,90.34149293193904,mgb_normalisation,90.34149293193902,90.34149293193902,8,4.0,False,1.312389850616455
,2024-07-11 09:16:22,sub_102,3,distance,cathedral,spatial_unmasking,2,49,0,0,_six_,talker-p268_sex-f_text-_six_.wav,p268,f,5,10,7.0,7.0,RX81,6,0.0,0.0,7.0,83.34149293193902,babble-reversed_n13_p229-three-p256-one-p307-two-p284-eight-p268-five-p248-nine.wav,5,RX81,6,0.0,0.0,7.0,90.34149293193904,mgb_normalisation,90.34149293193902,90.34149293193902,6,6.0,True,1.3124110698699951
,2024-07-11 09:16:26,sub_102,3,distance,cathedral,spatial_unmasking,2,50,0,0,_eight_,talker-p268_sex-f_text-_eight_.wav,p268,f,5,11,7.0,7.0,RX81,6,0.0,0.0,7.0,83.34149293193903,babble-reversed_n13_p256-four-p307-eight-p318-two-p248-three-p284-nine-p268-one.wav,5,RX81,6,0.0,0.0,7.0,90.34149293193904,mgb_normalisation,90.34149293193902,90.34149293193902,8,8.0,True,1.6248319149017334
,2024-07-11 09:16:29,sub_102,3,distance,cathedral,spatial_unmasking,2,51,0,0,_two_,talker-p268_sex-f_text-_two_.wav,p268,f,5,12,7.0,7.0,RX81,6,0.0,0.0,7.0,82.34149293193902,babble-reversed_n13_p229-five-p256-three-p318-nine-p248-two-p284-four-p268-one.wav,5,RX81,6,0.0,0.0,7.0,90.34149293193904,mgb_normalisation,90.34149293193902,90.34149293193902,2,2.0,True,1.3749032020568848
,2024-07-11 09:16:34,sub_102,3,distance,cathedral,spatial_unmasking,2,52,0,0,_eight_,talker-p268_sex-f_text-_eight_.wav,p268,f,5,13,7.0,7.0,RX81,6,0.0,0.0,7.0,82.34149293193902,babble-reversed_n13_p229-two-p307-five-p318-four-p284-one-p248-nine-p268-eight.wav,5,RX81,6,0.0,0.0,7.0,90.34149293193904,mgb_normalisation,90.34149293193902,90.34149293193902,8,8.0,True,2.124916315078736
,2024-07-11 09:16:37,sub_102,3,distance,cathedral,spatial_unmasking,2,53,0,0,_eight_,talker-p268_sex-f_text-_eight_.wav,p268,f,5,14,7.0,7.0,RX81,6,0.0,0.0,7.0,81.34149293193902,babble-reversed_n13_p318-nine-p256-five-p307-eight-p268-three-p248-one-p245-four.wav,5,RX81,6,0.0,0.0,7.0,90.34149293193904,mgb_normalisation,90.34149293193902,90.34149293193902,8,3.0,False,1.1249885559082031
,2024-07-11 09:16:41,sub_102,3,distance,cathedral,spatial_unmasking,2,54,0,0,_three_,talker-p268_sex-f_text-_three_.wav,p268,f,5,15,7.0,7.0,RX81,6,0.0,0.0,7.0,82.34149293193902,babble-reversed_n13_p229-eight-p256-nine-p318-four-p245-three-p268-five-p284-two.wav,5,RX81,6,0.0,0.0,7.0,90.341492931939,mgb_normalisation,90.34149293193902,90.34149293193902,3,3.0,True,1.249911546707153
,2024-07-11 09:16:47,sub_102,3,distance,cathedral,spatial_unmasking,2,55,0,0,_three_,talker-p268_sex-f_text-_three_.wav,p268,f,5,16,7.0,7.0,RX81,6,0.0,0.0,7.0,82.34149293193902,babble-reversed_n13_p256-eight-p318-five-p307-four-p245-three-p268-one-p284-nine.wav,5,RX81,6,0.0,0.0,7.0,90.341492931939,mgb_normalisation,90.34149293193902,90.34149293193902,3,2.0,False,4.124701738357544
,2024-07-11 09:16:51,sub_102,3,distance,cathedral,spatial_unmasking,2,56,0,0,_three_,talker-p268_sex-f_text-_three_.wav,p268,f,5,17,7.0,7.0,RX81,6,0.0,0.0,7.0,83.34149293193902,babble-reversed_n13_p256-four-p229-eight-p307-five-p248-three-p245-one-p284-two.wav,5,RX81,6,0.0,0.0,7.0,90.341492931939,mgb_normalisation,90.34149293193902,90.34149293193902,3,3.0,True,1.2499110698699951
,2024-07-11 09:16:54,sub_102,3,distance,cathedral,spatial_unmasking,2,57,0,0,_six_,talker-p268_sex-f_text-_six_.wav,p268,f,5,18,7.0,7.0,RX81,6,0.0,0.0,7.0,83.34149293193902,babble-reversed_n13_p307-five-p229-two-p318-four-p248-three-p245-nine-p268-eight.wav,5,RX81,6,0.0,0.0,7.0,90.341492931939,mgb_normalisation,90.34149293193902,90.34149293193902,6,6.0,True,1.3749046325683594
,2024-07-11 09:16:58,sub_102,3,distance,cathedral,spatial_unmasking,2,58,0,0,_five_,talker-p268_sex-f_text-_five_.wav,p268,f,5,19,7.0,7.0,RX81,6,0.0,0.0,7.0,82.34149293193902,babble-reversed_n13_p229-nine-p307-five-p256-two-p248-three-p245-one-p268-eight.wav,5,RX81,6,0.0,0.0,7.0,90.34149293193904,mgb_normalisation,90.34149293193902,90.34149293193902,5,5.0,True,1.6873807907104492
,2024-07-11 09:17:02,sub_102,3,distance,cathedral,spatial_unmasking,2,59,0,0,_one_,talker-p268_sex-f_text-_one_.wav,p268,f,5,20,7.0,7.0,RX81,6,0.0,0.0,7.0,82.34149293193902,babble-reversed_n13_p229-one-p318-eight-p256-three-p268-nine-p248-five-p284-four.wav,5,RX81,6,0.0,0.0,7.0,90.341492931939,mgb_normalisation,90.34149293193902,90.34149293193902,1,1.0,True,1.187415599822998
,2024-07-11 09:17:08,sub_102,3,distance,cathedral,spatial_unmasking,2,60,0,0,_one_,talker-p268_sex-f_text-_one_.wav,p268,f,5,21,7.0,7.0,RX81,6,0.0,0.0,7.0,81.34149293193902,babble-reversed_n13_p229-eight-p256-nine-p318-four-p245-three-p268-five-p284-two.wav,5,RX81,6,0.0,0.0,7.0,90.341492931939,mgb_normalisation,90.34149293193902,90.34149293193902,1,4.0,False,3.8122305870056152
,2024-07-11 09:17:12,sub_102,3,distance,cathedral,spatial_unmasking,2,61,0,0,_one_,talker-p268_sex-f_text-_one_.wav,p268,f,5,22,7.0,7.0,RX81,6,0.0,0.0,7.0,82.34149293193902,babble-reversed_n13_p256-three-p318-one-p307-two-p284-nine-p268-four-p245-eight.wav,5,RX81,6,0.0,0.0,7.0,90.34149293193904,mgb_normalisation,90.34149293193902,90.34149293193902,1,9.0,False,2.1247849464416504
,2024-07-11 09:17:19,sub_102,3,distance,cathedral,spatial_unmasking,2,62,0,0,_eight_,talker-p268_sex-f_text-_eight_.wav,p268,f,5,23,7.0,7.0,RX81,6,0.0,0.0,7.0,83.34149293193903,babble-reversed_n13_p229-nine-p307-five-p256-two-p248-three-p245-one-p268-eight.wav,5,RX81,6,0.0,0.0,7.0,90.34149293193904,mgb_normalisation,90.34149293193902,90.34149293193902,8,5.0,False,4.687189340591431
,2024-07-11 09:17:23,sub_102,3,distance,cathedral,spatial_unmasking,2,63,0,0,_five_,talker-p268_sex-f_text-_five_.wav,p268,f,5,24,7.0,7.0,RX81,6,0.0,0.0,7.0,84.341492931939,babble-reversed_n13_p229-one-p318-nine-p256-four-p284-eight-p268-five-p245-two.wav,5,RX81,6,0.0,0.0,7.0,90.34149293193904,mgb_normalisation,90.34149293193902,90.34149293193902,5,5.0,True,1.5624127388000488
,2024-07-11 09:17:26,sub_102,3,distance,cathedral,spatial_unmasking,2,64,0,0,_five_,talker-p268_sex-f_text-_five_.wav,p268,f,5,25,7.0,7.0,RX81,6,0.0,0.0,7.0,84.341492931939,babble-reversed_n13_p307-five-p229-three-p318-nine-p245-four-p268-eight-p284-two.wav,5,RX81,6,0.0,0.0,7.0,90.341492931939,mgb_normalisation,90.34149293193902,90.34149293193902,5,5.0,True,0.9374232292175292
,2024-07-11 09:17:30,sub_102,3,distance,cathedral,spatial_unmasking,2,65,0,0,_five_,talker-p268_sex-f_text-_five_.wav,p268,f,5,26,7.0,7.0,RX81,6,0.0,0.0,7.0,83.34149293193902,babble-reversed_n13_p318-nine-p307-eight-p229-two-p284-one-p248-three-p245-five.wav,5,RX81,6,0.0,0.0,7.0,90.34149293193904,mgb_normalisation,90.34149293193902,90.34149293193902,5,5.0,True,1.4373981952667236
,2024-07-11 09:17:33,sub_102,3,distance,cathedral,spatial_unmasking,2,66,0,0,_three_,talker-p268_sex-f_text-_three_.wav,p268,f,5,27,7.0,7.0,RX81,6,0.0,0.0,7.0,83.34149293193902,babble-reversed_n13_p229-five-p256-one-p318-three-p248-nine-p268-four-p284-eight.wav,5,RX81,6,0.0,0.0,7.0,90.341492931939,mgb_normalisation,90.34149293193902,90.34149293193902,3,3.0,True,0.9999291896820068
,2024-07-11 09:17:40,sub_102,3,distance,cathedral,spatial_unmasking,2,67,0,0,_two_,talker-p268_sex-f_text-_two_.wav,p268,f,5,28,7.0,7.0,RX81,6,0.0,0.0,7.0,82.34149293193902,babble-reversed_n13_p229-nine-p256-four-p318-three-p268-eight-p248-two-p284-five.wav,5,RX81,6,0.0,0.0,7.0,90.34149293193904,mgb_normalisation,90.34149293193902,90.34149293193902,2,2.0,True,4.187204599380493
,2024-07-11 09:17:44,sub_102,3,distance,cathedral,spatial_unmasking,2,68,0,0,_one_,talker-p268_sex-f_text-_one_.wav,p268,f,5,29,7.0,7.0,RX81,6,0.0,0.0,7.0,82.34149293193902,babble-reversed_n13_p229-eight-p256-nine-p318-four-p245-three-p268-five-p284-two.wav,5,RX81,6,0.0,0.0,7.0,90.341492931939,mgb_normalisation,90.34149293193902,90.34149293193902,1,1.0,True,1.5624182224273682
,2024-07-11 09:17:48,sub_102,3,distance,cathedral,spatial_unmasking,2,69,0,0,_two_,talker-p268_sex-f_text-_two_.wav,p268,f,5,30,7.0,7.0,RX81,6,0.0,0.0,7.0,81.34149293193902,babble-reversed_n13_p256-four-p307-eight-p318-two-p248-three-p284-nine-p268-one.wav,5,RX81,6,0.0,0.0,7.0,90.34149293193904,mgb_normalisation,90.34149293193902,90.34149293193902,2,9.0,False,2.124850034713745
,2024-07-11 09:17:52,sub_102,3,distance,cathedral,spatial_unmasking,2,70,0,0,_one_,talker-p268_sex-f_text-_one_.wav,p268,f,5,31,7.0,7.0,RX81,6,0.0,0.0,7.0,82.34149293193902,babble-reversed_n13_p229-one-p318-nine-p256-four-p284-eight-p268-five-p245-two.wav,5,RX81,6,0.0,0.0,7.0,90.34149293193904,mgb_normalisation,90.34149293193902,90.34149293193902,1,1.0,True,1.3124146461486816
,2024-07-11 09:17:55,sub_102,3,distance,cathedral,spatial_unmasking,2,71,0,0,_three_,talker-p268_sex-f_text-_three_.wav,p268,f,5,32,7.0,7.0,RX81,6,0.0,0.0,7.0,82.34149293193902,babble-reversed_n13_p307-two-p256-four-p318-three-p284-eight-p248-five-p245-nine.wav,5,RX81,6,0.0,0.0,7.0,90.34149293193904,mgb_normalisation,90.34149293193902,90.34149293193902,3,3.0,True,1.1874158382415771
,2024-07-11 09:17:59,sub_102,3,distance,cathedral,spatial_unmasking,2,72,0,0,_nine_,talker-p268_sex-f_text-_nine_.wav,p268,f,5,33,7.0,7.0,RX81,6,0.0,0.0,7.0,81.34149293193902,babble-reversed_n13_p256-four-p229-eight-p307-five-p248-three-p245-one-p284-two.wav,5,RX81,6,0.0,0.0,7.0,90.341492931939,mgb_normalisation,90.34149293193902,90.34149293193902,9,9.0,True,1.2499117851257324
,2024-07-11 09:18:05,sub_102,3,distance,cathedral,spatial_unmasking,2,73,0,0,_five_,talker-p268_sex-f_text-_five_.wav,p268,f,5,34,7.0,7.0,RX81,6,0.0,0.0,7.0,81.34149293193902,babble-reversed_n13_p318-one-p307-two-p256-eight-p284-three-p248-five-p245-four.wav,5,RX81,6,0.0,0.0,7.0,90.34149293193904,mgb_normalisation,90.34149293193902,90.34149293193902,5,8.0,False,4.124642372131348
,2024-07-11 09:18:09,sub_102,3,distance,cathedral,spatial_unmasking,2,74,0,0,_three_,talker-p268_sex-f_text-_three_.wav,p268,f,5,35,7.0,7.0,RX81,6,0.0,0.0,7.0,82.34149293193902,babble-reversed_n13_p229-three-p307-one-p318-two-p245-eight-p268-five-p284-four.wav,5,RX81,6,0.0,0.0,7.0,90.34149293193904,mgb_normalisation,90.34149293193902,90.34149293193902,3,3.0,True,1.1824748516082764
,2024-07-11 09:18:12,sub_102,3,distance,cathedral,spatial_unmasking,2,75,0,0,_four_,talker-p268_sex-f_text-_four_.wav,p268,f,5,36,7.0,7.0,RX81,6,0.0,0.0,7.0,82.34149293193902,babble-reversed_n13_p307-nine-p229-one-p256-eight-p248-four-p284-two-p268-three.wav,5,RX81,6,0.0,0.0,7.0,90.34149293193904,mgb_normalisation,90.34149293193902,90.34149293193902,4,3.0,False,0.8741645812988281
,2024-07-11 09:18:15,sub_102,3,distance,cathedral,spatial_unmasking,2,76,0,0,_six_,talker-p268_sex-f_text-_six_.wav,p268,f,5,37,7.0,7.0,RX81,6,0.0,0.0,7.0,83.34149293193902,babble-reversed_n13_p229-eight-p256-nine-p318-four-p245-three-p268-five-p284-two.wav,5,RX81,6,0.0,0.0,7.0,90.341492931939,mgb_normalisation,90.34149293193902,90.34149293193902,6,6.0,True,0.999929666519165
,2024-07-11 09:18:18,sub_102,3,distance,cathedral,spatial_unmasking,2,77,0,0,_two_,talker-p268_sex-f_text-_two_.wav,p268,f,5,38,7.0,7.0,RX81,6,0.0,0.0,7.0,83.34149293193903,babble-reversed_n13_p256-eight-p229-three-p307-nine-p245-five-p248-four-p268-two.wav,5,RX81,6,0.0,0.0,7.0,90.341492931939,mgb_normalisation,90.34149293193902,90.34149293193902,2,2.0,True,1.1249737739562988
,2024-07-11 09:20:51,sub_102,3,distance,cathedral,spatial_unmasking,3,78,0,0,_nine_,talker-p268_sex-f_text-_nine_.wav,p268,f,5,1,4.0,7.0,RX81,6,0.0,0.0,7.0,92.34149293193902,babble-reversed_n13_p256-five-p229-one-p318-three-p248-nine-p284-eight-p268-two.wav,2,RX81,3,0.0,0.0,4.0,87.57049330475357,mgb_normalisation,87.57049330475357,90.34149293193902,9,9.0,True,1.6248624324798584
,2024-07-11 09:20:54,sub_102,3,distance,cathedral,spatial_unmasking,3,79,0,0,_three_,talker-p268_sex-f_text-_three_.wav,p268,f,5,2,4.0,7.0,RX81,6,0.0,0.0,7.0,88.34149293193902,babble-reversed_n13_p318-three-p307-one-p256-five-p248-nine-p245-two-p284-eight.wav,2,RX81,3,0.0,0.0,4.0,87.57049330475357,mgb_normalisation,87.57049330475357,90.34149293193902,3,3.0,True,1.1874163150787354
,2024-07-11 09:20:58,sub_102,3,distance,cathedral,spatial_unmasking,3,80,0,0,_five_,talker-p268_sex-f_text-_five_.wav,p268,f,5,3,4.0,7.0,RX81,6,0.0,0.0,7.0,84.341492931939,babble-reversed_n13_p229-three-p307-one-p318-two-p245-eight-p268-five-p284-four.wav,2,RX81,3,0.0,0.0,4.0,87.57049330475357,mgb_normalisation,87.57049330475357,90.34149293193902,5,5.0,True,1.374903678894043
,2024-07-11 09:21:02,sub_102,3,distance,cathedral,spatial_unmasking,3,81,0,0,_five_,talker-p268_sex-f_text-_five_.wav,p268,f,5,4,4.0,7.0,RX81,6,0.0,0.0,7.0,80.34149293193903,babble-reversed_n13_p229-nine-p307-five-p256-two-p248-three-p245-one-p268-eight.wav,2,RX81,3,0.0,0.0,4.0,87.57049330475357,mgb_normalisation,87.57049330475357,90.34149293193902,5,5.0,True,1.812371730804444
,2024-07-11 09:21:07,sub_102,3,distance,cathedral,spatial_unmasking,3,82,0,0,_five_,talker-p268_sex-f_text-_five_.wav,p268,f,5,5,4.0,7.0,RX81,6,0.0,0.0,7.0,76.34149293193902,babble-reversed_n13_p229-nine-p307-five-p256-two-p248-three-p245-one-p268-eight.wav,2,RX81,3,0.0,0.0,4.0,87.57049330475357,mgb_normalisation,87.57049330475357,90.34149293193902,5,9.0,False,2.3123371601104736
,2024-07-11 09:21:10,sub_102,3,distance,cathedral,spatial_unmasking,3,83,0,0,_five_,talker-p268_sex-f_text-_five_.wav,p268,f,5,6,4.0,7.0,RX81,6,0.0,0.0,7.0,78.34149293193902,babble-reversed_n13_p307-one-p318-five-p229-four-p268-eight-p284-two-p245-three.wav,2,RX81,3,0.0,0.0,4.0,87.57049330475355,mgb_normalisation,87.57049330475357,90.34149293193902,5,8.0,False,1.2499117851257324
,2024-07-11 09:21:14,sub_102,3,distance,cathedral,spatial_unmasking,3,84,0,0,_one_,talker-p268_sex-f_text-_one_.wav,p268,f,5,7,4.0,7.0,RX81,6,0.0,0.0,7.0,80.34149293193903,babble-reversed_n13_p307-four-p318-three-p256-eight-p284-two-p245-nine-p248-five.wav,2,RX81,3,0.0,0.0,4.0,87.57049330475355,mgb_normalisation,87.57049330475357,90.34149293193902,1,9.0,False,1.562396764755249
,2024-07-11 09:21:19,sub_102,3,distance,cathedral,spatial_unmasking,3,85,0,0,_four_,talker-p268_sex-f_text-_four_.wav,p268,f,5,8,4.0,7.0,RX81,6,0.0,0.0,7.0,82.34149293193902,babble-reversed_n13_p229-five-p318-two-p307-eight-p268-three-p248-four-p245-one.wav,2,RX81,3,0.0,0.0,4.0,87.57049330475357,mgb_normalisation,87.57049330475357,90.34149293193902,4,3.0,False,2.062361717224121
,2024-07-11 09:21:23,sub_102,3,distance,cathedral,spatial_unmasking,3,86,0,0,_eight_,talker-p268_sex-f_text-_eight_.wav,p268,f,5,9,4.0,7.0,RX81,6,0.0,0.0,7.0,84.34149293193903,babble-reversed_n13_p256-five-p307-nine-p318-three-p284-eight-p268-one-p248-two.wav,2,RX81,3,0.0,0.0,4.0,87.57049330475357,mgb_normalisation,87.57049330475357,90.34149293193902,8,8.0,True,1.312403917312622
,2024-07-11 09:21:26,sub_102,3,distance,cathedral,spatial_unmasking,3,87,0,0,_nine_,talker-p268_sex-f_text-_nine_.wav,p268,f,5,10,4.0,7.0,RX81,6,0.0,0.0,7.0,84.341492931939,babble-reversed_n13_p307-nine-p318-two-p256-one-p245-three-p268-four-p248-eight.wav,2,RX81,3,0.0,0.0,4.0,87.57049330475355,mgb_normalisation,87.57049330475357,90.34149293193902,9,9.0,True,1.3123958110809326
,2024-07-11 09:21:30,sub_102,3,distance,cathedral,spatial_unmasking,3,88,0,0,_two_,talker-p268_sex-f_text-_two_.wav,p268,f,5,11,4.0,7.0,RX81,6,0.0,0.0,7.0,82.34149293193902,babble-reversed_n13_p318-one-p307-two-p256-eight-p284-three-p248-five-p245-four.wav,2,RX81,3,0.0,0.0,4.0,87.57049330475357,mgb_normalisation,87.57049330475357,90.34149293193902,2,2.0,True,1.4373979568481443
,2024-07-11 09:21:34,sub_102,3,distance,cathedral,spatial_unmasking,3,89,0,0,_five_,talker-p268_sex-f_text-_five_.wav,p268,f,5,12,4.0,7.0,RX81,6,0.0,0.0,7.0,82.34149293193902,babble-reversed_n13_p229-one-p318-eight-p256-three-p268-nine-p248-five-p284-four.wav,2,RX81,3,0.0,0.0,4.0,87.57049330475357,mgb_normalisation,87.57049330475357,90.34149293193902,5,5.0,True,1.4998939037322998
,2024-07-11 09:21:39,sub_102,3,distance,cathedral,spatial_unmasking,3,90,0,0,_five_,talker-p268_sex-f_text-_five_.wav,p268,f,5,13,4.0,7.0,RX81,6,0.0,0.0,7.0,80.34149293193903,babble-reversed_n13_p307-five-p229-two-p318-four-p248-three-p245-nine-p268-eight.wav,2,RX81,3,0.0,0.0,4.0,87.57049330475355,mgb_normalisation,87.57049330475357,90.34149293193902,5,8.0,False,3.0622849464416504
,2024-07-11 09:21:43,sub_102,3,distance,cathedral,spatial_unmasking,3,91,0,0,_five_,talker-p268_sex-f_text-_five_.wav,p268,f,5,14,4.0,7.0,RX81,6,0.0,0.0,7.0,81.34149293193902,babble-reversed_n13_p318-nine-p256-five-p307-eight-p268-three-p248-one-p245-four.wav,2,RX81,3,0.0,0.0,4.0,87.57049330475357,mgb_normalisation,87.57049330475357,90.34149293193902,5,9.0,False,1.3124074935913086
,2024-07-11 09:21:47,sub_102,3,distance,cathedral,spatial_unmasking,3,92,0,0,_six_,talker-p268_sex-f_text-_six_.wav,p268,f,5,15,4.0,7.0,RX81,6,0.0,0.0,7.0,82.34149293193902,babble-reversed_n13_p256-three-p318-two-p229-nine-p248-four-p284-one-p268-eight.wav,2,RX81,3,0.0,0.0,4.0,87.57049330475355,mgb_normalisation,87.57049330475357,90.34149293193902,6,6.0,True,1.3749029636383057
,2024-07-11 09:21:54,sub_102,3,distance,cathedral,spatial_unmasking,3,93,0,0,_eight_,talker-p268_sex-f_text-_eight_.wav,p268,f,5,16,4.0,7.0,RX81,6,0.0,0.0,7.0,82.34149293193902,babble-reversed_n13_p318-four-p256-five-p229-three-p284-one-p245-eight-p248-nine.wav,2,RX81,3,0.0,0.0,4.0,87.57049330475357,mgb_normalisation,87.57049330475357,90.34149293193902,8,2.0,False,4.749664783477783
,2024-07-11 09:21:58,sub_102,3,distance,cathedral,spatial_unmasking,3,94,0,0,_five_,talker-p268_sex-f_text-_five_.wav,p268,f,5,17,4.0,7.0,RX81,6,0.0,0.0,7.0,83.34149293193902,babble-reversed_n13_p307-four-p318-three-p256-eight-p284-two-p245-nine-p248-five.wav,2,RX81,3,0.0,0.0,4.0,87.57049330475355,mgb_normalisation,87.57049330475357,90.34149293193902,5,9.0,False,1.4373981952667236
,2024-07-11 09:22:01,sub_102,3,distance,cathedral,spatial_unmasking,3,95,0,0,_five_,talker-p268_sex-f_text-_five_.wav,p268,f,5,18,4.0,7.0,RX81,6,0.0,0.0,7.0,84.341492931939,babble-reversed_n13_p256-five-p229-one-p318-three-p248-nine-p284-eight-p268-two.wav,2,RX81,3,0.0,0.0,4.0,87.57049330475357,mgb_normalisation,87.57049330475357,90.34149293193902,5,5.0,True,1.2499110698699951
,2024-07-11 09:22:06,sub_102,3,distance,cathedral,spatial_unmasking,3,96,0,0,_three_,talker-p268_sex-f_text-_three_.wav,p268,f,5,19,4.0,7.0,RX81,6,0.0,0.0,7.0,84.341492931939,babble-reversed_n13_p229-three-p256-one-p307-two-p284-eight-p268-five-p248-nine.wav,2,RX81,3,0.0,0.0,4.0,87.57049330475357,mgb_normalisation,87.57049330475357,90.34149293193902,3,3.0,True,1.7498764991760254
,2024-07-11 09:22:09,sub_102,3,distance,cathedral,spatial_unmasking,3,97,0,0,_two_,talker-p268_sex-f_text-_two_.wav,p268,f,5,20,4.0,7.0,RX81,6,0.0,0.0,7.0,83.34149293193903,babble-reversed_n13_p307-nine-p229-one-p256-eight-p248-four-p284-two-p268-three.wav,2,RX81,3,0.0,0.0,4.0,87.57049330475357,mgb_normalisation,87.57049330475357,90.34149293193902,2,2.0,True,1.1874167919158936
,2024-07-11 09:22:13,sub_102,3,distance,cathedral,spatial_unmasking,3,98,0,0,_nine_,talker-p268_sex-f_text-_nine_.wav,p268,f,5,21,4.0,7.0,RX81,6,0.0,0.0,7.0,83.34149293193902,babble-reversed_n13_p318-nine-p307-eight-p229-two-p284-one-p248-three-p245-five.wav,2,RX81,3,0.0,0.0,4.0,87.57049330475357,mgb_normalisation,87.57049330475357,90.34149293193902,9,9.0,True,1.4998939037322998
,2024-07-11 09:22:17,sub_102,3,distance,cathedral,spatial_unmasking,3,99,0,0,_four_,talker-p268_sex-f_text-_four_.wav,p268,f,5,22,4.0,7.0,RX81,6,0.0,0.0,7.0,82.34149293193902,babble-reversed_n13_p229-three-p307-one-p318-two-p245-eight-p268-five-p284-four.wav,2,RX81,3,0.0,0.0,4.0,87.57049330475357,mgb_normalisation,87.57049330475357,90.34149293193902,4,4.0,True,1.1874167919158936
,2024-07-11 09:22:20,sub_102,3,distance,cathedral,spatial_unmasking,3,100,0,0,_four_,talker-p268_sex-f_text-_four_.wav,p268,f,5,23,4.0,7.0,RX81,6,0.0,0.0,7.0,82.34149293193902,babble-reversed_n13_p256-eight-p318-two-p307-five-p245-four-p268-nine-p284-one.wav,2,RX81,3,0.0,0.0,4.0,87.57049330475357,mgb_normalisation,87.57049330475357,90.34149293193902,4,4.0,True,1.3124701976776123
,2024-07-11 09:22:26,sub_102,3,distance,cathedral,spatial_unmasking,3,101,0,0,_four_,talker-p268_sex-f_text-_four_.wav,p268,f,5,24,4.0,7.0,RX81,6,0.0,0.0,7.0,81.341492931939,babble-reversed_n13_p318-nine-p256-five-p307-eight-p268-three-p248-one-p245-four.wav,2,RX81,3,0.0,0.0,4.0,87.57049330475357,mgb_normalisation,87.57049330475357,90.34149293193902,4,3.0,False,3.421633720397949
,2024-07-11 09:22:30,sub_102,3,distance,cathedral,spatial_unmasking,3,102,0,0,_eight_,talker-p268_sex-f_text-_eight_.wav,p268,f,5,25,4.0,7.0,RX81,6,0.0,0.0,7.0,82.34149293193902,babble-reversed_n13_p256-eight-p318-five-p307-four-p245-three-p268-one-p284-nine.wav,2,RX81,3,0.0,0.0,4.0,87.57049330475355,mgb_normalisation,87.57049330475357,90.34149293193902,8,8.0,True,1.6248846054077148
,2024-07-11 09:22:34,sub_102,3,distance,cathedral,spatial_unmasking,3,103,0,0,_nine_,talker-p268_sex-f_text-_nine_.wav,p268,f,5,26,4.0,7.0,RX81,6,0.0,0.0,7.0,82.34149293193902,babble-reversed_n13_p229-one-p318-eight-p256-three-p268-two-p245-five-p248-nine.wav,2,RX81,3,0.0,0.0,4.0,87.57049330475355,mgb_normalisation,87.57049330475357,90.34149293193902,9,9.0,True,1.1874158382415771
,2024-07-11 09:22:37,sub_102,3,distance,cathedral,spatial_unmasking,3,104,0,0,_eight_,talker-p268_sex-f_text-_eight_.wav,p268,f,5,27,4.0,7.0,RX81,6,0.0,0.0,7.0,81.34149293193902,babble-reversed_n13_p256-three-p318-one-p307-two-p284-nine-p268-four-p245-eight.wav,2,RX81,3,0.0,0.0,4.0,87.57049330475357,mgb_normalisation,87.57049330475357,90.34149293193902,8,8.0,True,1.062424898147583
,2024-07-11 09:22:45,sub_102,3,distance,cathedral,spatial_unmasking,3,105,0,0,_three_,talker-p268_sex-f_text-_three_.wav,p268,f,5,28,4.0,7.0,RX81,6,0.0,0.0,7.0,81.34149293193902,babble-reversed_n13_p229-two-p307-five-p318-four-p284-one-p248-nine-p268-eight.wav,2,RX81,3,0.0,0.0,4.0,87.57049330475357,mgb_normalisation,87.57049330475357,90.34149293193902,3,9.0,False,4.999639511108398
,2024-07-11 09:22:48,sub_102,3,distance,cathedral,spatial_unmasking,3,106,0,0,_three_,talker-p268_sex-f_text-_three_.wav,p268,f,5,29,4.0,7.0,RX81,6,0.0,0.0,7.0,82.34149293193902,babble-reversed_n13_p229-one-p318-eight-p256-three-p268-two-p245-five-p248-nine.wav,2,RX81,3,0.0,0.0,4.0,87.57049330475355,mgb_normalisation,87.57049330475357,90.34149293193902,3,3.0,True,1.312427997589111
,2024-07-11 09:22:52,sub_102,3,distance,cathedral,spatial_unmasking,3,107,0,0,_three_,talker-p268_sex-f_text-_three_.wav,p268,f,5,30,4.0,7.0,RX81,6,0.0,0.0,7.0,82.34149293193902,babble-reversed_n13_p229-one-p318-eight-p256-three-p268-two-p245-five-p248-nine.wav,2,RX81,3,0.0,0.0,4.0,87.57049330475355,mgb_normalisation,87.57049330475357,90.34149293193902,3,3.0,True,1.0624256134033203
,2024-07-11 09:22:56,sub_102,3,distance,cathedral,spatial_unmasking,3,108,0,0,_four_,talker-p268_sex-f_text-_four_.wav,p268,f,5,31,4.0,7.0,RX81,6,0.0,0.0,7.0,81.341492931939,babble-reversed_n13_p318-nine-p256-five-p307-eight-p268-three-p248-one-p245-four.wav,2,RX81,3,0.0,0.0,4.0,87.57049330475357,mgb_normalisation,87.57049330475357,90.34149293193902,4,4.0,True,1.3124098777770996
,2024-07-11 09:23:00,sub_102,3,distance,cathedral,spatial_unmasking,3,109,0,0,_nine_,talker-p268_sex-f_text-_nine_.wav,p268,f,5,32,4.0,7.0,RX81,6,0.0,0.0,7.0,81.34149293193902,babble-reversed_n13_p256-four-p307-eight-p318-two-p248-three-p284-nine-p268-one.wav,2,RX81,3,0.0,0.0,4.0,87.57049330475357,mgb_normalisation,87.57049330475357,90.34149293193902,9,9.0,True,2.3123369216918945
,2024-07-11 09:23:06,sub_102,3,distance,cathedral,spatial_unmasking,3,110,0,0,_nine_,talker-p268_sex-f_text-_nine_.wav,p268,f,5,33,4.0,7.0,RX81,6,0.0,0.0,7.0,80.341492931939,babble-reversed_n13_p229-three-p256-one-p307-two-p284-eight-p268-five-p248-nine.wav,2,RX81,3,0.0,0.0,4.0,87.57049330475357,mgb_normalisation,87.57049330475357,90.34149293193902,9,9.0,True,3.062285184860229
,2024-07-11 09:23:10,sub_102,3,distance,cathedral,spatial_unmasking,3,111,0,0,_three_,talker-p268_sex-f_text-_three_.wav,p268,f,5,34,4.0,7.0,RX81,6,0.0,0.0,7.0,80.341492931939,babble-reversed_n13_p229-three-p256-nine-p318-five-p248-one-p245-eight-p284-two.wav,2,RX81,3,0.0,0.0,4.0,87.57049330475357,mgb_normalisation,87.57049330475357,90.34149293193902,3,8.0,False,2.124850034713745
,2024-07-11 09:23:15,sub_102,3,distance,cathedral,spatial_unmasking,3,112,0,0,_five_,talker-p268_sex-f_text-_five_.wav,p268,f,5,35,4.0,7.0,RX81,6,0.0,0.0,7.0,81.34149293193902,babble-reversed_n13_p307-two-p229-one-p256-five-p248-nine-p284-three-p268-eight.wav,2,RX81,3,0.0,0.0,4.0,87.57049330475357,mgb_normalisation,87.57049330475357,90.34149293193902,5,9.0,False,2.187345027923584
,2024-07-11 09:23:19,sub_102,3,distance,cathedral,spatial_unmasking,3,113,0,0,_four_,talker-p268_sex-f_text-_four_.wav,p268,f,5,36,4.0,7.0,RX81,6,0.0,0.0,7.0,82.34149293193902,babble-reversed_n13_p307-nine-p318-two-p256-one-p245-three-p268-four-p248-eight.wav,2,RX81,3,0.0,0.0,4.0,87.57049330475355,mgb_normalisation,87.57049330475357,90.34149293193902,4,8.0,False,1.9373633861541748
,2024-07-11 09:23:23,sub_102,3,distance,cathedral,spatial_unmasking,3,114,0,0,_two_,talker-p268_sex-f_text-_two_.wav,p268,f,5,37,4.0,7.0,RX81,6,0.0,0.0,7.0,83.34149293193903,babble-reversed_n13_p307-five-p229-two-p318-four-p248-three-p245-nine-p268-eight.wav,2,RX81,3,0.0,0.0,4.0,87.57049330475355,mgb_normalisation,87.57049330475357,90.34149293193902,2,2.0,True,1.4998936653137207
,2024-07-11 09:23:27,sub_102,3,distance,cathedral,spatial_unmasking,3,115,0,0,_six_,talker-p268_sex-f_text-_six_.wav,p268,f,5,38,4.0,7.0,RX81,6,0.0,0.0,7.0,83.34149293193902,babble-reversed_n13_p307-five-p229-two-p318-four-p248-three-p245-nine-p268-eight.wav,2,RX81,3,0.0,0.0,4.0,87.57049330475355,mgb_normalisation,87.57049330475357,90.34149293193902,6,6.0,True,1.1874151229858398
,2024-07-11 09:23:30,sub_102,3,distance,cathedral,spatial_unmasking,3,116,0,0,_six_,talker-p268_sex-f_text-_six_.wav,p268,f,5,39,4.0,7.0,RX81,6,0.0,0.0,7.0,82.34149293193902,babble-reversed_n13_p318-five-p229-four-p256-eight-p284-one-p245-three-p248-two.wav,2,RX81,3,0.0,0.0,4.0,87.57049330475357,mgb_normalisation,87.57049330475357,90.34149293193902,6,6.0,True,0.8749370574951172
,2024-07-11 09:23:34,sub_102,3,distance,cathedral,spatial_unmasking,3,117,0,0,_three_,talker-p268_sex-f_text-_three_.wav,p268,f,5,40,4.0,7.0,RX81,6,0.0,0.0,7.0,82.34149293193902,babble-reversed_n13_p229-three-p307-one-p318-two-p245-eight-p268-five-p284-four.wav,2,RX81,3,0.0,0.0,4.0,87.57049330475357,mgb_normalisation,87.57049330475357,90.34149293193902,3,3.0,True,1.8748679161071773
,2024-07-11 09:23:38,sub_102,3,distance,cathedral,spatial_unmasking,3,118,0,0,_eight_,talker-p268_sex-f_text-_eight_.wav,p268,f,5,41,4.0,7.0,RX81,6,0.0,0.0,7.0,81.34149293193902,babble-reversed_n13_p229-two-p256-three-p318-eight-p284-five-p268-four-p245-one.wav,2,RX81,3,0.0,0.0,4.0,87.57049330475357,mgb_normalisation,87.57049330475357,90.34149293193902,8,8.0,True,1.49992036819458
,2024-07-11 09:23:41,sub_102,3,distance,cathedral,spatial_unmasking,3,119,0,0,_one_,talker-p268_sex-f_text-_one_.wav,p268,f,5,42,4.0,7.0,RX81,6,0.0,0.0,7.0,81.34149293193902,babble-reversed_n13_p229-two-p318-eight-p256-three-p268-one-p248-nine-p284-five.wav,2,RX81,3,0.0,0.0,4.0,87.57049330475355,mgb_normalisation,87.57049330475357,90.34149293193902,1,1.0,True,1.062425136566162
,2024-07-11 09:23:45,sub_102,3,distance,cathedral,spatial_unmasking,3,120,0,0,_one_,talker-p268_sex-f_text-_one_.wav,p268,f,5,43,4.0,7.0,RX81,6,0.0,0.0,7.0,80.34149293193903,babble-reversed_n13_p229-three-p307-one-p318-two-p245-eight-p268-five-p284-four.wav,2,RX81,3,0.0,0.0,4.0,87.57049330475357,mgb_normalisation,87.57049330475357,90.34149293193902,1,1.0,True,1.062425136566162
,2024-07-11 09:23:49,sub_102,3,distance,cathedral,spatial_unmasking,3,121,0,0,_four_,talker-p268_sex-f_text-_four_.wav,p268,f,5,44,4.0,7.0,RX81,6,0.0,0.0,7.0,80.341492931939,babble-reversed_n13_p229-nine-p318-one-p307-two-p248-eight-p245-five-p284-four.wav,2,RX81,3,0.0,0.0,4.0,87.57049330475357,mgb_normalisation,87.57049330475357,90.34149293193902,4,9.0,False,1.4998395442962646
,2024-07-11 09:23:52,sub_102,3,distance,cathedral,spatial_unmasking,3,122,0,0,_nine_,talker-p268_sex-f_text-_nine_.wav,p268,f,5,45,4.0,7.0,RX81,6,0.0,0.0,7.0,81.34149293193902,babble-reversed_n13_p229-nine-p307-five-p256-two-p248-three-p245-one-p268-eight.wav,2,RX81,3,0.0,0.0,4.0,87.57049330475357,mgb_normalisation,87.57049330475357,90.34149293193902,9,9.0,True,1.062425136566162
,2024-07-11 09:23:56,sub_102,3,distance,cathedral,spatial_unmasking,3,123,0,0,_eight_,talker-p268_sex-f_text-_eight_.wav,p268,f,5,46,4.0,7.0,RX81,6,0.0,0.0,7.0,81.34149293193902,babble-reversed_n13_p229-eight-p256-nine-p318-four-p245-three-p268-five-p284-two.wav,2,RX81,3,0.0,0.0,4.0,87.57049330475355,mgb_normalisation,87.57049330475357,90.34149293193902,8,8.0,True,1.3124077320098877
,2024-07-11 09:25:39,sub_102,3,distance,cathedral,spatial_unmasking,4,124,0,0,_six_,talker-p268_sex-f_text-_six_.wav,p268,f,5,1,8.0,7.0,RX81,6,0.0,0.0,7.0,92.34149293193902,babble-reversed_n13_p229-one-p318-nine-p256-four-p284-eight-p268-five-p245-two.wav,6,RX81,7,0.0,0.0,8.0,91.58892582949886,mgb_normalisation,91.58892582949886,90.34149293193902,6,6.0,True,1.562388896942139
,2024-07-11 09:25:43,sub_102,3,distance,cathedral,spatial_unmasking,4,125,0,0,_nine_,talker-p268_sex-f_text-_nine_.wav,p268,f,5,2,8.0,7.0,RX81,6,0.0,0.0,7.0,88.34149293193902,babble-reversed_n13_p256-four-p229-eight-p307-five-p248-three-p245-one-p284-two.wav,6,RX81,7,0.0,0.0,8.0,91.58892582949886,mgb_normalisation,91.58892582949886,90.34149293193902,9,9.0,True,1.4374446868896484
,2024-07-11 09:25:47,sub_102,3,distance,cathedral,spatial_unmasking,4,126,0,0,_one_,talker-p268_sex-f_text-_one_.wav,p268,f,5,3,8.0,7.0,RX81,6,0.0,0.0,7.0,84.341492931939,babble-reversed_n13_p256-five-p229-one-p318-three-p248-nine-p284-eight-p268-two.wav,6,RX81,7,0.0,0.0,8.0,91.58892582949888,mgb_normalisation,91.58892582949886,90.34149293193902,1,1.0,True,1.5623900890350342
,2024-07-11 09:25:51,sub_102,3,distance,cathedral,spatial_unmasking,4,127,0,0,_two_,talker-p268_sex-f_text-_two_.wav,p268,f,5,4,8.0,7.0,RX81,6,0.0,0.0,7.0,80.34149293193903,babble-reversed_n13_p318-five-p256-nine-p307-eight-p248-two-p245-four-p284-three.wav,6,RX81,7,0.0,0.0,8.0,91.58892582949886,mgb_normalisation,91.58892582949886,90.34149293193902,2,2.0,True,1.3749027252197266
,2024-07-11 09:25:54,sub_102,3,distance,cathedral,spatial_unmasking,4,128,0,0,_eight_,talker-p268_sex-f_text-_eight_.wav,p268,f,5,5,8.0,7.0,RX81,6,0.0,0.0,7.0,76.34149293193902,babble-reversed_n13_p256-nine-p307-four-p229-one-p284-three-p248-two-p245-five.wav,6,RX81,7,0.0,0.0,8.0,91.58892582949888,mgb_normalisation,91.58892582949886,90.34149293193902,8,8.0,True,1.2499074935913086
,2024-07-11 09:25:59,sub_102,3,distance,cathedral,spatial_unmasking,4,129,0,0,_two_,talker-p268_sex-f_text-_two_.wav,p268,f,5,6,8.0,7.0,RX81,6,0.0,0.0,7.0,72.34149293193903,babble-reversed_n13_p229-eight-p256-nine-p318-four-p245-three-p268-five-p284-two.wav,6,RX81,7,0.0,0.0,8.0,91.58892582949886,mgb_normalisation,91.58892582949886,90.34149293193902,2,3.0,False,2.6248137950897217
,2024-07-11 09:26:03,sub_102,3,distance,cathedral,spatial_unmasking,4,130,0,0,_five_,talker-p268_sex-f_text-_five_.wav,p268,f,5,7,8.0,7.0,RX81,6,0.0,0.0,7.0,74.34149293193902,babble-reversed_n13_p229-one-p318-nine-p256-four-p284-eight-p268-five-p245-two.wav,6,RX81,7,0.0,0.0,8.0,91.58892582949886,mgb_normalisation,91.58892582949886,90.34149293193902,5,8.0,False,1.1874163150787354
,2024-07-11 09:26:07,sub_102,3,distance,cathedral,spatial_unmasking,4,131,0,0,_one_,talker-p268_sex-f_text-_one_.wav,p268,f,5,8,8.0,7.0,RX81,6,0.0,0.0,7.0,76.34149293193902,babble-reversed_n13_p229-five-p318-two-p307-eight-p268-three-p248-four-p245-one.wav,6,RX81,7,0.0,0.0,8.0,91.58892582949888,mgb_normalisation,91.58892582949886,90.34149293193902,1,9.0,False,1.624885320663452
,2024-07-11 09:26:11,sub_102,3,distance,cathedral,spatial_unmasking,4,132,0,0,_five_,talker-p268_sex-f_text-_five_.wav,p268,f,5,9,8.0,7.0,RX81,6,0.0,0.0,7.0,78.34149293193902,babble-reversed_n13_p229-two-p318-eight-p256-three-p268-one-p248-nine-p284-five.wav,6,RX81,7,0.0,0.0,8.0,91.58892582949886,mgb_normalisation,91.58892582949886,90.34149293193902,5,9.0,False,1.937361478805542
,2024-07-11 09:26:18,sub_102,3,distance,cathedral,spatial_unmasking,4,133,0,0,_eight_,talker-p268_sex-f_text-_eight_.wav,p268,f,5,10,8.0,7.0,RX81,6,0.0,0.0,7.0,80.34149293193903,babble-reversed_n13_p229-two-p307-five-p318-four-p284-one-p248-nine-p268-eight.wav,6,RX81,7,0.0,0.0,8.0,91.58892582949888,mgb_normalisation,91.58892582949886,90.34149293193902,8,8.0,True,4.18720555305481
,2024-07-11 09:26:22,sub_102,3,distance,cathedral,spatial_unmasking,4,134,0,0,_one_,talker-p268_sex-f_text-_one_.wav,p268,f,5,11,8.0,7.0,RX81,6,0.0,0.0,7.0,80.34149293193903,babble-reversed_n13_p229-one-p318-eight-p256-three-p268-nine-p248-five-p284-four.wav,6,RX81,7,0.0,0.0,8.0,91.58892582949886,mgb_normalisation,91.58892582949886,90.34149293193902,1,1.0,True,1.374962568283081
,2024-07-11 09:26:25,sub_102,3,distance,cathedral,spatial_unmasking,4,135,0,0,_eight_,talker-p268_sex-f_text-_eight_.wav,p268,f,5,12,8.0,7.0,RX81,6,0.0,0.0,7.0,78.34149293193902,babble-reversed_n13_p256-eight-p318-five-p307-four-p245-three-p268-one-p284-nine.wav,6,RX81,7,0.0,0.0,8.0,91.58892582949886,mgb_normalisation,91.58892582949886,90.34149293193902,8,8.0,True,1.3749098777770996
,2024-07-11 09:26:29,sub_102,3,distance,cathedral,spatial_unmasking,4,136,0,0,_eight_,talker-p268_sex-f_text-_eight_.wav,p268,f,5,13,8.0,7.0,RX81,6,0.0,0.0,7.0,78.34149293193902,babble-reversed_n13_p229-five-p256-one-p318-three-p248-nine-p268-four-p284-eight.wav,6,RX81,7,0.0,0.0,8.0,91.58892582949886,mgb_normalisation,91.58892582949886,90.34149293193902,8,4.0,False,1.3749024868011477
,2024-07-11 09:26:33,sub_102,3,distance,cathedral,spatial_unmasking,4,137,0,0,_two_,talker-p268_sex-f_text-_two_.wav,p268,f,5,14,8.0,7.0,RX81,6,0.0,0.0,7.0,79.34149293193902,babble-reversed_n13_p229-eight-p256-nine-p318-four-p245-three-p268-five-p284-two.wav,6,RX81,7,0.0,0.0,8.0,91.58892582949886,mgb_normalisation,91.58892582949886,90.34149293193902,2,2.0,True,1.3124072551727295
,2024-07-11 09:26:37,sub_102,3,distance,cathedral,spatial_unmasking,4,138,0,0,_one_,talker-p268_sex-f_text-_one_.wav,p268,f,5,15,8.0,7.0,RX81,6,0.0,0.0,7.0,79.34149293193902,babble-reversed_n13_p256-eight-p229-three-p307-nine-p245-five-p248-four-p268-two.wav,6,RX81,7,0.0,0.0,8.0,91.58892582949886,mgb_normalisation,91.58892582949886,90.34149293193902,1,1.0,True,1.4373979568481443
,2024-07-11 09:26:40,sub_102,3,distance,cathedral,spatial_unmasking,4,139,0,0,_two_,talker-p268_sex-f_text-_two_.wav,p268,f,5,16,8.0,7.0,RX81,6,0.0,0.0,7.0,78.34149293193902,babble-reversed_n13_p318-one-p307-two-p256-eight-p284-three-p248-five-p245-four.wav,6,RX81,7,0.0,0.0,8.0,91.58892582949888,mgb_normalisation,91.58892582949886,90.34149293193902,2,2.0,True,1.1249020099639893
,2024-07-11 09:26:46,sub_102,3,distance,cathedral,spatial_unmasking,4,140,0,0,_three_,talker-p268_sex-f_text-_three_.wav,p268,f,5,17,8.0,7.0,RX81,6,0.0,0.0,7.0,78.34149293193902,babble-reversed_n13_p229-three-p307-one-p318-two-p245-eight-p268-five-p284-four.wav,6,RX81,7,0.0,0.0,8.0,91.58892582949888,mgb_normalisation,91.58892582949886,90.34149293193902,3,3.0,True,3.2497718334198
,2024-07-11 09:26:50,sub_102,3,distance,cathedral,spatial_unmasking,4,141,0,0,_eight_,talker-p268_sex-f_text-_eight_.wav,p268,f,5,18,8.0,7.0,RX81,6,0.0,0.0,7.0,77.34149293193903,babble-reversed_n13_p229-three-p256-nine-p318-five-p248-one-p245-eight-p284-two.wav,6,RX81,7,0.0,0.0,8.0,91.58892582949888,mgb_normalisation,91.58892582949886,90.34149293193902,8,8.0,True,1.6248855590820312
,2024-07-11 09:26:54,sub_102,3,distance,cathedral,spatial_unmasking,4,142,0,0,_one_,talker-p268_sex-f_text-_one_.wav,p268,f,5,19,8.0,7.0,RX81,6,0.0,0.0,7.0,77.34149293193902,babble-reversed_n13_p229-eight-p256-nine-p318-four-p245-three-p268-five-p284-two.wav,6,RX81,7,0.0,0.0,8.0,91.58892582949886,mgb_normalisation,91.58892582949886,90.34149293193902,1,1.0,True,1.499894142150879
,2024-07-11 09:27:03,sub_102,3,distance,cathedral,spatial_unmasking,4,143,0,0,_five_,talker-p268_sex-f_text-_five_.wav,p268,f,5,20,8.0,7.0,RX81,6,0.0,0.0,7.0,76.34149293193902,babble-reversed_n13_p307-two-p229-one-p256-five-p248-nine-p284-three-p268-eight.wav,6,RX81,7,0.0,0.0,8.0,91.58892582949888,mgb_normalisation,91.58892582949886,90.34149293193902,5,9.0,False,6.812057256698608
,2024-07-11 09:27:08,sub_102,3,distance,cathedral,spatial_unmasking,4,144,0,0,_eight_,talker-p268_sex-f_text-_eight_.wav,p268,f,5,21,8.0,7.0,RX81,6,0.0,0.0,7.0,77.34149293193903,babble-reversed_n13_p307-five-p229-three-p318-nine-p245-four-p268-eight-p284-two.wav,6,RX81,7,0.0,0.0,8.0,91.58892582949886,mgb_normalisation,91.58892582949886,90.34149293193902,8,2.0,False,2.187349319458008
,2024-07-11 09:27:12,sub_102,3,distance,cathedral,spatial_unmasking,4,145,0,0,_two_,talker-p268_sex-f_text-_two_.wav,p268,f,5,22,8.0,7.0,RX81,6,0.0,0.0,7.0,78.34149293193902,babble-reversed_n13_p256-four-p229-two-p318-five-p268-one-p248-eight-p245-three.wav,6,RX81,7,0.0,0.0,8.0,91.58892582949886,mgb_normalisation,91.58892582949886,90.34149293193902,2,2.0,True,1.99985933303833
,2024-07-11 09:27:16,sub_102,3,distance,cathedral,spatial_unmasking,4,146,0,0,_eight_,talker-p268_sex-f_text-_eight_.wav,p268,f,5,23,8.0,7.0,RX81,6,0.0,0.0,7.0,78.34149293193902,babble-reversed_n13_p307-one-p318-five-p229-four-p268-eight-p284-two-p245-three.wav,6,RX81,7,0.0,0.0,8.0,91.58892582949886,mgb_normalisation,91.58892582949886,90.34149293193902,8,8.0,True,1.8748042583465576
,2024-07-11 09:27:20,sub_102,3,distance,cathedral,spatial_unmasking,4,147,0,0,_six_,talker-p268_sex-f_text-_six_.wav,p268,f,5,24,8.0,7.0,RX81,6,0.0,0.0,7.0,77.341492931939,babble-reversed_n13_p256-five-p229-one-p318-three-p248-nine-p284-eight-p268-two.wav,6,RX81,7,0.0,0.0,8.0,91.58892582949888,mgb_normalisation,91.58892582949886,90.34149293193902,6,6.0,True,1.2499120235443115
,2024-07-11 09:27:24,sub_102,3,distance,cathedral,spatial_unmasking,4,148,0,0,_three_,talker-p268_sex-f_text-_three_.wav,p268,f,5,25,8.0,7.0,RX81,6,0.0,0.0,7.0,77.341492931939,babble-reversed_n13_p318-three-p307-one-p256-five-p248-nine-p245-two-p284-eight.wav,6,RX81,7,0.0,0.0,8.0,91.58892582949888,mgb_normalisation,91.58892582949886,90.34149293193902,3,8.0,False,1.1874158382415771
,2024-07-11 09:27:27,sub_102,3,distance,cathedral,spatial_unmasking,4,149,0,0,_one_,talker-p268_sex-f_text-_one_.wav,p268,f,5,26,8.0,7.0,RX81,6,0.0,0.0,7.0,78.34149293193902,babble-reversed_n13_p229-three-p256-one-p307-two-p284-eight-p268-five-p248-nine.wav,6,RX81,7,0.0,0.0,8.0,91.58892582949888,mgb_normalisation,91.58892582949886,90.34149293193902,1,1.0,True,1.1249182224273682
,2024-07-11 09:27:32,sub_102,3,distance,cathedral,spatial_unmasking,4,150,0,0,_five_,talker-p268_sex-f_text-_five_.wav,p268,f,5,27,8.0,7.0,RX81,6,0.0,0.0,7.0,78.34149293193902,babble-reversed_n13_p318-three-p229-one-p256-eight-p245-five-p248-four-p284-nine.wav,6,RX81,7,0.0,0.0,8.0,91.58892582949888,mgb_normalisation,91.58892582949886,90.34149293193902,5,9.0,False,2.06235408782959
,2024-07-11 09:27:35,sub_102,3,distance,cathedral,spatial_unmasking,4,151,0,0,_one_,talker-p268_sex-f_text-_one_.wav,p268,f,5,28,8.0,7.0,RX81,6,0.0,0.0,7.0,79.34149293193902,babble-reversed_n13_p229-nine-p307-five-p256-two-p248-three-p245-one-p268-eight.wav,6,RX81,7,0.0,0.0,8.0,91.58892582949886,mgb_normalisation,91.58892582949886,90.34149293193902,1,1.0,True,1.1249206066131592
,2024-07-11 09:27:39,sub_102,3,distance,cathedral,spatial_unmasking,4,152,0,0,_four_,talker-p268_sex-f_text-_four_.wav,p268,f,5,29,8.0,7.0,RX81,6,0.0,0.0,7.0,79.341492931939,babble-reversed_n13_p318-five-p229-three-p256-four-p268-eight-p248-one-p245-nine.wav,6,RX81,7,0.0,0.0,8.0,91.58892582949888,mgb_normalisation,91.58892582949886,90.34149293193902,4,9.0,False,2.0623550415039062
,2024-07-11 09:27:43,sub_102,3,distance,cathedral,spatial_unmasking,4,153,0,0,_six_,talker-p268_sex-f_text-_six_.wav,p268,f,5,30,8.0,7.0,RX81,6,0.0,0.0,7.0,80.341492931939,babble-reversed_n13_p229-five-p318-two-p307-eight-p268-three-p248-four-p245-one.wav,6,RX81,7,0.0,0.0,8.0,91.58892582949888,mgb_normalisation,91.58892582949886,90.34149293193902,6,6.0,True,1.3124244213104248
,2024-07-11 09:27:48,sub_102,3,distance,cathedral,spatial_unmasking,4,154,0,0,_four_,talker-p268_sex-f_text-_four_.wav,p268,f,5,31,8.0,7.0,RX81,6,0.0,0.0,7.0,80.341492931939,babble-reversed_n13_p229-five-p256-three-p318-nine-p248-two-p284-four-p268-one.wav,6,RX81,7,0.0,0.0,8.0,91.58892582949888,mgb_normalisation,91.58892582949886,90.34149293193902,4,4.0,True,2.3124051094055176
,2024-07-11 09:27:52,sub_102,3,distance,cathedral,spatial_unmasking,4,155,0,0,_one_,talker-p268_sex-f_text-_one_.wav,p268,f,5,32,8.0,7.0,RX81,6,0.0,0.0,7.0,79.34149293193902,babble-reversed_n13_p307-one-p318-five-p229-four-p268-eight-p284-two-p245-three.wav,6,RX81,7,0.0,0.0,8.0,91.58892582949886,mgb_normalisation,91.58892582949886,90.34149293193902,1,1.0,True,1.874868631362915
,2024-07-11 09:27:57,sub_102,3,distance,cathedral,spatial_unmasking,4,156,0,0,_nine_,talker-p268_sex-f_text-_nine_.wav,p268,f,5,33,8.0,7.0,RX81,6,0.0,0.0,7.0,79.341492931939,babble-reversed_n13_p229-two-p318-eight-p256-three-p268-one-p248-nine-p284-five.wav,6,RX81,7,0.0,0.0,8.0,91.58892582949886,mgb_normalisation,91.58892582949886,90.34149293193902,9,2.0,False,2.81230092048645
,2024-07-11 09:28:02,sub_102,3,distance,cathedral,spatial_unmasking,4,157,0,0,_one_,talker-p268_sex-f_text-_one_.wav,p268,f,5,34,8.0,7.0,RX81,6,0.0,0.0,7.0,80.34149293193903,babble-reversed_n13_p229-five-p256-three-p318-nine-p248-two-p284-four-p268-one.wav,6,RX81,7,0.0,0.0,8.0,91.58892582949888,mgb_normalisation,91.58892582949886,90.34149293193902,1,1.0,True,2.37483286857605
,2024-07-11 09:28:06,sub_102,3,distance,cathedral,spatial_unmasking,4,158,0,0,_three_,talker-p268_sex-f_text-_three_.wav,p268,f,5,35,8.0,7.0,RX81,6,0.0,0.0,7.0,80.341492931939,babble-reversed_n13_p307-two-p229-one-p256-five-p248-nine-p284-three-p268-eight.wav,6,RX81,7,0.0,0.0,8.0,91.58892582949888,mgb_normalisation,91.58892582949886,90.34149293193902,3,3.0,True,1.2499127388000488
,2024-07-11 09:28:09,sub_102,3,distance,cathedral,spatial_unmasking,4,159,0,0,_two_,talker-p268_sex-f_text-_two_.wav,p268,f,5,36,8.0,7.0,RX81,6,0.0,0.0,7.0,79.34149293193902,babble-reversed_n13_p318-one-p307-two-p256-eight-p284-three-p248-five-p245-four.wav,6,RX81,7,0.0,0.0,8.0,91.58892582949888,mgb_normalisation,91.58892582949886,90.34149293193902,2,3.0,False,0.999929428100586
,2024-07-11 09:28:14,sub_102,3,distance,cathedral,spatial_unmasking,4,160,0,0,_two_,talker-p268_sex-f_text-_two_.wav,p268,f,5,37,8.0,7.0,RX81,6,0.0,0.0,7.0,80.34149293193903,babble-reversed_n13_p256-four-p307-eight-p318-two-p248-three-p284-nine-p268-one.wav,6,RX81,7,0.0,0.0,8.0,91.58892582949888,mgb_normalisation,91.58892582949886,90.34149293193902,2,2.0,True,1.937381267547608
,2024-07-11 09:28:18,sub_102,3,distance,cathedral,spatial_unmasking,4,161,0,0,_one_,talker-p268_sex-f_text-_one_.wav,p268,f,5,38,8.0,7.0,RX81,6,0.0,0.0,7.0,80.34149293193903,babble-reversed_n13_p256-four-p229-eight-p307-five-p248-three-p245-one-p284-two.wav,6,RX81,7,0.0,0.0,8.0,91.58892582949886,mgb_normalisation,91.58892582949886,90.34149293193902,1,9.0,False,1.7498774528503418
,2024-07-11 09:28:21,sub_102,3,distance,cathedral,spatial_unmasking,4,162,0,0,_eight_,talker-p268_sex-f_text-_eight_.wav,p268,f,5,39,8.0,7.0,RX81,6,0.0,0.0,7.0,81.34149293193902,babble-reversed_n13_p307-five-p229-two-p318-four-p248-three-p245-nine-p268-eight.wav,6,RX81,7,0.0,0.0,8.0,91.58892582949886,mgb_normalisation,91.58892582949886,90.34149293193902,8,8.0,True,1.1249358654022217
,2024-07-11 09:28:25,sub_102,3,distance,cathedral,spatial_unmasking,4,163,0,0,_three_,talker-p268_sex-f_text-_three_.wav,p268,f,5,40,8.0,7.0,RX81,6,0.0,0.0,7.0,81.34149293193902,babble-reversed_n13_p229-eight-p256-nine-p318-four-p245-three-p268-five-p284-two.wav,6,RX81,7,0.0,0.0,8.0,91.58892582949886,mgb_normalisation,91.58892582949886,90.34149293193902,3,3.0,True,1.1874165534973145
,2024-07-11 09:31:45,sub_102,3,distance,cathedral,spatial_unmasking,5,164,0,0,_nine_,talker-p268_sex-f_text-_nine_.wav,p268,f,5,1,6.0,7.0,RX81,6,0.0,0.0,7.0,92.34149293193902,babble-reversed_n13_p229-two-p256-three-p318-eight-p284-five-p268-four-p245-one.wav,4,RX81,5,0.0,0.0,6.0,89.31368318402099,mgb_normalisation,89.31368318402099,90.34149293193902,9,9.0,True,1.4373979568481443
,2024-07-11 09:31:49,sub_102,3,distance,cathedral,spatial_unmasking,5,165,0,0,_eight_,talker-p268_sex-f_text-_eight_.wav,p268,f,5,2,6.0,7.0,RX81,6,0.0,0.0,7.0,88.34149293193903,babble-reversed_n13_p229-eight-p256-nine-p318-four-p245-three-p268-five-p284-two.wav,4,RX81,5,0.0,0.0,6.0,89.31368318402099,mgb_normalisation,89.31368318402099,90.34149293193902,8,8.0,True,1.4374184608459473
,2024-07-11 09:31:55,sub_102,3,distance,cathedral,spatial_unmasking,5,166,0,0,_four_,talker-p268_sex-f_text-_four_.wav,p268,f,5,3,6.0,7.0,RX81,6,0.0,0.0,7.0,84.341492931939,babble-reversed_n13_p256-three-p318-one-p307-two-p284-nine-p268-four-p245-eight.wav,4,RX81,5,0.0,0.0,6.0,89.31368318402099,mgb_normalisation,89.31368318402099,90.34149293193902,4,9.0,False,4.187204837799072
,2024-07-11 09:31:59,sub_102,3,distance,cathedral,spatial_unmasking,5,167,0,0,_four_,talker-p268_sex-f_text-_four_.wav,p268,f,5,4,6.0,7.0,RX81,6,0.0,0.0,7.0,86.341492931939,babble-reversed_n13_p229-three-p307-one-p318-two-p245-eight-p268-five-p284-four.wav,4,RX81,5,0.0,0.0,6.0,89.31368318402099,mgb_normalisation,89.31368318402099,90.34149293193902,4,4.0,True,1.4373984336853027
,2024-07-11 09:32:03,sub_102,3,distance,cathedral,spatial_unmasking,5,168,0,0,_one_,talker-p268_sex-f_text-_one_.wav,p268,f,5,5,6.0,7.0,RX81,6,0.0,0.0,7.0,86.34149293193902,babble-reversed_n13_p229-three-p256-nine-p318-five-p248-one-p245-eight-p284-two.wav,4,RX81,5,0.0,0.0,6.0,89.31368318402099,mgb_normalisation,89.31368318402099,90.34149293193902,1,1.0,True,1.3123500347137451
,2024-07-11 09:32:07,sub_102,3,distance,cathedral,spatial_unmasking,5,169,0,0,_four_,talker-p268_sex-f_text-_four_.wav,p268,f,5,6,6.0,7.0,RX81,6,0.0,0.0,7.0,84.341492931939,babble-reversed_n13_p307-nine-p229-one-p256-eight-p248-four-p284-two-p268-three.wav,4,RX81,5,0.0,0.0,6.0,89.31368318402099,mgb_normalisation,89.31368318402099,90.34149293193902,4,3.0,False,1.5623900890350342
,2024-07-11 09:32:13,sub_102,3,distance,cathedral,spatial_unmasking,5,170,0,0,_three_,talker-p268_sex-f_text-_three_.wav,p268,f,5,7,6.0,7.0,RX81,6,0.0,0.0,7.0,85.341492931939,babble-reversed_n13_p256-nine-p307-four-p229-one-p284-three-p248-two-p245-five.wav,4,RX81,5,0.0,0.0,6.0,89.31368318402099,mgb_normalisation,89.31368318402099,90.34149293193902,3,8.0,False,4.312195777893066
,2024-07-11 09:32:17,sub_102,3,distance,cathedral,spatial_unmasking,5,171,0,0,_nine_,talker-p268_sex-f_text-_nine_.wav,p268,f,5,8,6.0,7.0,RX81,6,0.0,0.0,7.0,86.34149293193902,babble-reversed_n13_p229-three-p307-one-p318-two-p245-eight-p268-five-p284-four.wav,4,RX81,5,0.0,0.0,6.0,89.31368318402099,mgb_normalisation,89.31368318402099,90.34149293193902,9,9.0,True,1.1249189376831057
,2024-07-11 09:32:21,sub_102,3,distance,cathedral,spatial_unmasking,5,172,0,0,_six_,talker-p268_sex-f_text-_six_.wav,p268,f,5,9,6.0,7.0,RX81,6,0.0,0.0,7.0,86.341492931939,babble-reversed_n13_p256-four-p307-eight-p318-two-p248-three-p284-nine-p268-one.wav,4,RX81,5,0.0,0.0,6.0,89.313683184021,mgb_normalisation,89.31368318402099,90.34149293193902,6,6.0,True,1.1874163150787354
,2024-07-11 09:32:24,sub_102,3,distance,cathedral,spatial_unmasking,5,173,0,0,_nine_,talker-p268_sex-f_text-_nine_.wav,p268,f,5,10,6.0,7.0,RX81,6,0.0,0.0,7.0,85.341492931939,babble-reversed_n13_p229-three-p256-one-p307-two-p284-eight-p268-five-p248-nine.wav,4,RX81,5,0.0,0.0,6.0,89.31368318402099,mgb_normalisation,89.31368318402099,90.34149293193902,9,9.0,True,1.1874163150787354
,2024-07-11 09:32:29,sub_102,3,distance,cathedral,spatial_unmasking,5,174,0,0,_one_,talker-p268_sex-f_text-_one_.wav,p268,f,5,11,6.0,7.0,RX81,6,0.0,0.0,7.0,85.34149293193903,babble-reversed_n13_p256-three-p318-two-p229-nine-p248-four-p284-one-p268-eight.wav,4,RX81,5,0.0,0.0,6.0,89.31368318402099,mgb_normalisation,89.31368318402099,90.34149293193902,1,8.0,False,2.499823093414306
,2024-07-11 09:32:33,sub_102,3,distance,cathedral,spatial_unmasking,5,175,0,0,_five_,talker-p268_sex-f_text-_five_.wav,p268,f,5,12,6.0,7.0,RX81,6,0.0,0.0,7.0,86.34149293193902,babble-reversed_n13_p307-nine-p318-two-p256-one-p245-three-p268-four-p248-eight.wav,4,RX81,5,0.0,0.0,6.0,89.31368318402099,mgb_normalisation,89.31368318402099,90.34149293193902,5,5.0,True,1.3124072551727295
,2024-07-11 09:32:36,sub_102,3,distance,cathedral,spatial_unmasking,5,176,0,0,_three_,talker-p268_sex-f_text-_three_.wav,p268,f,5,13,6.0,7.0,RX81,6,0.0,0.0,7.0,86.34149293193902,babble-reversed_n13_p229-two-p256-three-p318-eight-p284-five-p268-four-p245-one.wav,4,RX81,5,0.0,0.0,6.0,89.31368318402099,mgb_normalisation,89.31368318402099,90.34149293193902,3,3.0,True,0.999929666519165
,2024-07-11 09:32:40,sub_102,3,distance,cathedral,spatial_unmasking,5,177,0,0,_nine_,talker-p268_sex-f_text-_nine_.wav,p268,f,5,14,6.0,7.0,RX81,6,0.0,0.0,7.0,85.341492931939,babble-reversed_n13_p256-four-p307-eight-p318-two-p248-three-p284-nine-p268-one.wav,4,RX81,5,0.0,0.0,6.0,89.313683184021,mgb_normalisation,89.31368318402099,90.34149293193902,9,9.0,True,1.1249747276306152
,2024-07-11 09:32:43,sub_102,3,distance,cathedral,spatial_unmasking,5,178,0,0,_eight_,talker-p268_sex-f_text-_eight_.wav,p268,f,5,15,6.0,7.0,RX81,6,0.0,0.0,7.0,85.34149293193903,babble-reversed_n13_p307-five-p229-two-p318-four-p248-three-p245-nine-p268-eight.wav,4,RX81,5,0.0,0.0,6.0,89.31368318402099,mgb_normalisation,89.31368318402099,90.34149293193902,8,8.0,True,1.1874158382415771
,2024-07-11 09:32:47,sub_102,3,distance,cathedral,spatial_unmasking,5,179,0,0,_six_,talker-p268_sex-f_text-_six_.wav,p268,f,5,16,6.0,7.0,RX81,6,0.0,0.0,7.0,84.341492931939,babble-reversed_n13_p318-nine-p256-five-p307-eight-p268-three-p248-one-p245-four.wav,4,RX81,5,0.0,0.0,6.0,89.31368318402099,mgb_normalisation,89.31368318402099,90.34149293193902,6,6.0,True,1.062424898147583
,2024-07-11 09:32:50,sub_102,3,distance,cathedral,spatial_unmasking,5,180,0,0,_three_,talker-p268_sex-f_text-_three_.wav,p268,f,5,17,6.0,7.0,RX81,6,0.0,0.0,7.0,84.341492931939,babble-reversed_n13_p307-two-p229-one-p256-five-p248-nine-p284-three-p268-eight.wav,4,RX81,5,0.0,0.0,6.0,89.313683184021,mgb_normalisation,89.31368318402099,90.34149293193902,3,3.0,True,1.1249206066131592
,2024-07-11 09:32:54,sub_102,3,distance,cathedral,spatial_unmasking,5,181,0,0,_six_,talker-p268_sex-f_text-_six_.wav,p268,f,5,18,6.0,7.0,RX81,6,0.0,0.0,7.0,83.34149293193902,babble-reversed_n13_p307-nine-p318-two-p256-one-p245-three-p268-four-p248-eight.wav,4,RX81,5,0.0,0.0,6.0,89.31368318402099,mgb_normalisation,89.31368318402099,90.34149293193902,6,6.0,True,1.0624256134033203
,2024-07-11 09:32:57,sub_102,3,distance,cathedral,spatial_unmasking,5,182,0,0,_nine_,talker-p268_sex-f_text-_nine_.wav,p268,f,5,19,6.0,7.0,RX81,6,0.0,0.0,7.0,83.34149293193902,babble-reversed_n13_p229-two-p307-five-p318-four-p284-one-p248-nine-p268-eight.wav,4,RX81,5,0.0,0.0,6.0,89.31368318402099,mgb_normalisation,89.31368318402099,90.34149293193902,9,9.0,True,0.999929428100586
,2024-07-11 09:33:00,sub_102,3,distance,cathedral,spatial_unmasking,5,183,0,0,_six_,talker-p268_sex-f_text-_six_.wav,p268,f,5,20,6.0,7.0,RX81,6,0.0,0.0,7.0,82.34149293193902,babble-reversed_n13_p229-one-p318-eight-p256-three-p268-nine-p248-five-p284-four.wav,4,RX81,5,0.0,0.0,6.0,89.31368318402099,mgb_normalisation,89.31368318402099,90.34149293193902,6,6.0,True,0.8749382495880127
,2024-07-11 09:33:04,sub_102,3,distance,cathedral,spatial_unmasking,5,184,0,0,_four_,talker-p268_sex-f_text-_four_.wav,p268,f,5,21,6.0,7.0,RX81,6,0.0,0.0,7.0,82.34149293193902,babble-reversed_n13_p318-five-p229-three-p256-four-p268-eight-p248-one-p245-nine.wav,4,RX81,5,0.0,0.0,6.0,89.31368318402099,mgb_normalisation,89.31368318402099,90.34149293193902,4,5.0,False,1.312408208847046
,2024-07-11 09:33:08,sub_102,3,distance,cathedral,spatial_unmasking,5,185,0,0,_three_,talker-p268_sex-f_text-_three_.wav,p268,f,5,22,6.0,7.0,RX81,6,0.0,0.0,7.0,83.34149293193902,babble-reversed_n13_p256-four-p229-eight-p307-five-p248-three-p245-one-p284-two.wav,4,RX81,5,0.0,0.0,6.0,89.31368318402099,mgb_normalisation,89.31368318402099,90.34149293193902,3,3.0,True,0.999929904937744
,2024-07-11 09:33:11,sub_102,3,distance,cathedral,spatial_unmasking,5,186,0,0,_eight_,talker-p268_sex-f_text-_eight_.wav,p268,f,5,23,6.0,7.0,RX81,6,0.0,0.0,7.0,83.34149293193903,babble-reversed_n13_p256-three-p318-two-p229-nine-p248-four-p284-one-p268-eight.wav,4,RX81,5,0.0,0.0,6.0,89.31368318402099,mgb_normalisation,89.31368318402099,90.34149293193902,8,8.0,True,1.1874175071716309
,2024-07-11 09:33:15,sub_102,3,distance,cathedral,spatial_unmasking,5,187,0,0,_four_,talker-p268_sex-f_text-_four_.wav,p268,f,5,24,6.0,7.0,RX81,6,0.0,0.0,7.0,82.34149293193902,babble-reversed_n13_p256-five-p307-nine-p318-three-p284-eight-p268-one-p248-two.wav,4,RX81,5,0.0,0.0,6.0,89.31368318402099,mgb_normalisation,89.31368318402099,90.34149293193902,4,9.0,False,1.687445878982544
,2024-07-11 09:33:19,sub_102,3,distance,cathedral,spatial_unmasking,5,188,0,0,_three_,talker-p268_sex-f_text-_three_.wav,p268,f,5,25,6.0,7.0,RX81,6,0.0,0.0,7.0,83.34149293193902,babble-reversed_n13_p229-one-p318-nine-p256-four-p284-eight-p268-five-p245-two.wav,4,RX81,5,0.0,0.0,6.0,89.31368318402099,mgb_normalisation,89.31368318402099,90.34149293193902,3,3.0,True,1.4373981952667236
,2024-07-11 09:33:23,sub_102,3,distance,cathedral,spatial_unmasking,5,189,0,0,_two_,talker-p268_sex-f_text-_two_.wav,p268,f,5,26,6.0,7.0,RX81,6,0.0,0.0,7.0,83.34149293193903,babble-reversed_n13_p318-nine-p256-five-p307-eight-p268-three-p248-one-p245-four.wav,4,RX81,5,0.0,0.0,6.0,89.31368318402099,mgb_normalisation,89.31368318402099,90.34149293193902,2,2.0,True,1.187417984008789
,2024-07-11 09:33:27,sub_102,3,distance,cathedral,spatial_unmasking,5,190,0,0,_four_,talker-p268_sex-f_text-_four_.wav,p268,f,5,27,6.0,7.0,RX81,6,0.0,0.0,7.0,82.34149293193902,babble-reversed_n13_p229-five-p318-three-p307-two-p245-four-p284-nine-p248-eight.wav,4,RX81,5,0.0,0.0,6.0,89.31368318402099,mgb_normalisation,89.31368318402099,90.34149293193902,4,8.0,False,1.9998619556427
,2024-07-11 09:33:31,sub_102,3,distance,cathedral,spatial_unmasking,5,191,0,0,_four_,talker-p268_sex-f_text-_four_.wav,p268,f,5,28,6.0,7.0,RX81,6,0.0,0.0,7.0,83.34149293193902,babble-reversed_n13_p256-nine-p307-four-p229-one-p284-three-p248-two-p245-five.wav,4,RX81,5,0.0,0.0,6.0,89.31368318402099,mgb_normalisation,89.31368318402099,90.34149293193902,4,8.0,False,1.3124077320098877
,2024-07-11 09:33:34,sub_102,3,distance,cathedral,spatial_unmasking,5,192,0,0,_one_,talker-p268_sex-f_text-_one_.wav,p268,f,5,29,6.0,7.0,RX81,6,0.0,0.0,7.0,84.341492931939,babble-reversed_n13_p229-two-p318-eight-p256-three-p268-one-p248-nine-p284-five.wav,4,RX81,5,0.0,0.0,6.0,89.31368318402099,mgb_normalisation,89.31368318402099,90.34149293193902,1,1.0,True,1.1874158382415771
,2024-07-11 09:33:38,sub_102,3,distance,cathedral,spatial_unmasking,5,193,0,0,_four_,talker-p268_sex-f_text-_four_.wav,p268,f,5,30,6.0,7.0,RX81,6,0.0,0.0,7.0,84.341492931939,babble-reversed_n13_p318-nine-p256-five-p307-eight-p268-three-p248-one-p245-four.wav,4,RX81,5,0.0,0.0,6.0,89.31368318402099,mgb_normalisation,89.31368318402099,90.34149293193902,4,4.0,True,0.9999291896820068
,2024-07-11 09:35:34,sub_102,3,distance,cathedral,spatial_unmasking,6,194,0,0,_three_,talker-p268_sex-f_text-_three_.wav,p268,f,5,1,10.0,7.0,RX81,6,0.0,0.0,7.0,92.34149293193902,babble-reversed_n13_p318-five-p256-nine-p307-eight-p248-two-p245-four-p284-three.wav,8,RX81,9,0.0,0.0,10.0,92.0152836843556,mgb_normalisation,92.0152836843556,90.34149293193902,3,3.0,True,1.2499122619628906
,2024-07-11 09:35:38,sub_102,3,distance,cathedral,spatial_unmasking,6,195,0,0,_five_,talker-p268_sex-f_text-_five_.wav,p268,f,5,2,10.0,7.0,RX81,6,0.0,0.0,7.0,88.34149293193902,babble-reversed_n13_p229-five-p318-two-p307-eight-p268-three-p248-four-p245-one.wav,8,RX81,9,0.0,0.0,10.0,92.0152836843556,mgb_normalisation,92.0152836843556,90.34149293193902,5,5.0,True,0.937434196472168
,2024-07-11 09:35:42,sub_102,3,distance,cathedral,spatial_unmasking,6,196,0,0,_four_,talker-p268_sex-f_text-_four_.wav,p268,f,5,3,10.0,7.0,RX81,6,0.0,0.0,7.0,84.341492931939,babble-reversed_n13_p229-one-p318-eight-p256-three-p268-two-p245-five-p248-nine.wav,8,RX81,9,0.0,0.0,10.0,92.0152836843556,mgb_normalisation,92.0152836843556,90.34149293193902,4,9.0,False,2.312397718429565
,2024-07-11 09:35:47,sub_102,3,distance,cathedral,spatial_unmasking,6,197,0,0,_nine_,talker-p268_sex-f_text-_nine_.wav,p268,f,5,4,10.0,7.0,RX81,6,0.0,0.0,7.0,86.34149293193902,babble-reversed_n13_p318-five-p229-three-p256-four-p268-eight-p248-one-p245-nine.wav,8,RX81,9,0.0,0.0,10.0,92.0152836843556,mgb_normalisation,92.0152836843556,90.34149293193902,9,9.0,True,2.124850511550904
,2024-07-11 09:35:51,sub_102,3,distance,cathedral,spatial_unmasking,6,198,0,0,_three_,talker-p268_sex-f_text-_three_.wav,p268,f,5,5,10.0,7.0,RX81,6,0.0,0.0,7.0,86.34149293193902,babble-reversed_n13_p307-two-p229-one-p256-five-p248-nine-p284-three-p268-eight.wav,8,RX81,9,0.0,0.0,10.0,92.0152836843556,mgb_normalisation,92.0152836843556,90.34149293193902,3,3.0,True,1.249911546707153
,2024-07-11 09:35:56,sub_102,3,distance,cathedral,spatial_unmasking,6,199,0,0,_four_,talker-p268_sex-f_text-_four_.wav,p268,f,5,6,10.0,7.0,RX81,6,0.0,0.0,7.0,84.341492931939,babble-reversed_n13_p256-eight-p318-two-p307-five-p245-four-p268-nine-p284-one.wav,8,RX81,9,0.0,0.0,10.0,92.0152836843556,mgb_normalisation,92.0152836843556,90.34149293193902,4,9.0,False,2.6873109340667725
,2024-07-11 09:36:00,sub_102,3,distance,cathedral,spatial_unmasking,6,200,0,0,_five_,talker-p268_sex-f_text-_five_.wav,p268,f,5,7,10.0,7.0,RX81,6,0.0,0.0,7.0,85.34149293193903,babble-reversed_n13_p229-three-p256-one-p307-two-p284-eight-p268-five-p248-nine.wav,8,RX81,9,0.0,0.0,10.0,92.0152836843556,mgb_normalisation,92.0152836843556,90.34149293193902,5,5.0,True,1.6873815059661863
,2024-07-11 09:36:03,sub_102,3,distance,cathedral,spatial_unmasking,6,201,0,0,_eight_,talker-p268_sex-f_text-_eight_.wav,p268,f,5,8,10.0,7.0,RX81,6,0.0,0.0,7.0,85.34149293193903,babble-reversed_n13_p229-nine-p318-one-p307-two-p248-eight-p245-five-p284-four.wav,8,RX81,9,0.0,0.0,10.0,92.0152836843556,mgb_normalisation,92.0152836843556,90.34149293193902,8,8.0,True,1.2498559951782229
,2024-07-11 09:36:07,sub_102,3,distance,cathedral,spatial_unmasking,6,202,0,0,_six_,talker-p268_sex-f_text-_six_.wav,p268,f,5,9,10.0,7.0,RX81,6,0.0,0.0,7.0,84.341492931939,babble-reversed_n13_p229-nine-p307-five-p256-two-p248-three-p245-one-p268-eight.wav,8,RX81,9,0.0,0.0,10.0,92.0152836843556,mgb_normalisation,92.0152836843556,90.34149293193902,6,6.0,True,1.1249394416809082
,2024-07-11 09:36:11,sub_102,3,distance,cathedral,spatial_unmasking,6,203,0,0,_five_,talker-p268_sex-f_text-_five_.wav,p268,f,5,10,10.0,7.0,RX81,6,0.0,0.0,7.0,84.341492931939,babble-reversed_n13_p318-five-p256-nine-p307-two-p245-eight-p248-one-p284-four.wav,8,RX81,9,0.0,0.0,10.0,92.0152836843556,mgb_normalisation,92.0152836843556,90.34149293193902,5,5.0,True,1.3749487400054932
,2024-07-11 09:36:14,sub_102,3,distance,cathedral,spatial_unmasking,6,204,0,0,_two_,talker-p268_sex-f_text-_two_.wav,p268,f,5,11,10.0,7.0,RX81,6,0.0,0.0,7.0,83.34149293193903,babble-reversed_n13_p318-nine-p256-five-p307-eight-p268-three-p248-one-p245-four.wav,8,RX81,9,0.0,0.0,10.0,92.0152836843556,mgb_normalisation,92.0152836843556,90.34149293193902,2,2.0,True,1.4998934268951416
,2024-07-11 09:36:18,sub_102,3,distance,cathedral,spatial_unmasking,6,205,0,0,_three_,talker-p268_sex-f_text-_three_.wav,p268,f,5,12,10.0,7.0,RX81,6,0.0,0.0,7.0,83.34149293193902,babble-reversed_n13_p318-one-p307-two-p256-eight-p284-three-p248-five-p245-four.wav,8,RX81,9,0.0,0.0,10.0,92.0152836843556,mgb_normalisation,92.0152836843556,90.34149293193902,3,3.0,True,1.0624265670776367
,2024-07-11 09:36:24,sub_102,3,distance,cathedral,spatial_unmasking,6,206,0,0,_two_,talker-p268_sex-f_text-_two_.wav,p268,f,5,13,10.0,7.0,RX81,6,0.0,0.0,7.0,82.34149293193902,babble-reversed_n13_p307-five-p229-two-p318-four-p248-three-p245-nine-p268-eight.wav,8,RX81,9,0.0,0.0,10.0,92.0152836843556,mgb_normalisation,92.0152836843556,90.34149293193902,2,3.0,False,3.4997541904449463
,2024-07-11 09:36:28,sub_102,3,distance,cathedral,spatial_unmasking,6,207,0,0,_four_,talker-p268_sex-f_text-_four_.wav,p268,f,5,14,10.0,7.0,RX81,6,0.0,0.0,7.0,83.34149293193902,babble-reversed_n13_p229-nine-p307-five-p256-two-p248-three-p245-one-p268-eight.wav,8,RX81,9,0.0,0.0,10.0,92.0152836843556,mgb_normalisation,92.0152836843556,90.34149293193902,4,4.0,True,1.499894618988037
,2024-07-11 09:36:32,sub_102,3,distance,cathedral,spatial_unmasking,6,208,0,0,_eight_,talker-p268_sex-f_text-_eight_.wav,p268,f,5,15,10.0,7.0,RX81,6,0.0,0.0,7.0,83.34149293193903,babble-reversed_n13_p229-two-p318-eight-p256-three-p268-one-p248-nine-p284-five.wav,8,RX81,9,0.0,0.0,10.0,92.0152836843556,mgb_normalisation,92.0152836843556,90.34149293193902,8,8.0,True,1.812371015548706
,2024-07-11 09:36:36,sub_102,3,distance,cathedral,spatial_unmasking,6,209,0,0,_eight_,talker-p268_sex-f_text-_eight_.wav,p268,f,5,16,10.0,7.0,RX81,6,0.0,0.0,7.0,82.34149293193902,babble-reversed_n13_p318-four-p256-five-p229-three-p284-one-p245-eight-p248-nine.wav,8,RX81,9,0.0,0.0,10.0,92.0152836843556,mgb_normalisation,92.0152836843556,90.34149293193902,8,9.0,False,1.312406301498413
,2024-07-11 09:36:40,sub_102,3,distance,cathedral,spatial_unmasking,6,210,0,0,_four_,talker-p268_sex-f_text-_four_.wav,p268,f,5,17,10.0,7.0,RX81,6,0.0,0.0,7.0,83.34149293193902,babble-reversed_n13_p229-three-p256-nine-p318-five-p248-one-p245-eight-p284-two.wav,8,RX81,9,0.0,0.0,10.0,92.0152836843556,mgb_normalisation,92.0152836843556,90.34149293193902,4,9.0,False,2.24984073638916
,2024-07-11 09:36:44,sub_102,3,distance,cathedral,spatial_unmasking,6,211,0,0,_one_,talker-p268_sex-f_text-_one_.wav,p268,f,5,18,10.0,7.0,RX81,6,0.0,0.0,7.0,84.341492931939,babble-reversed_n13_p318-five-p256-nine-p307-eight-p248-two-p245-four-p284-three.wav,8,RX81,9,0.0,0.0,10.0,92.0152836843556,mgb_normalisation,92.0152836843556,90.34149293193902,1,1.0,True,1.3124067783355713
,2024-07-11 09:36:48,sub_102,3,distance,cathedral,spatial_unmasking,6,212,0,0,_one_,talker-p268_sex-f_text-_one_.wav,p268,f,5,19,10.0,7.0,RX81,6,0.0,0.0,7.0,84.341492931939,babble-reversed_n13_p307-five-p229-three-p318-nine-p245-four-p268-eight-p284-two.wav,8,RX81,9,0.0,0.0,10.0,92.0152836843556,mgb_normalisation,92.0152836843556,90.34149293193902,1,1.0,True,1.1874799728393557
,2024-07-11 09:36:51,sub_102,3,distance,cathedral,spatial_unmasking,6,213,0,0,_six_,talker-p268_sex-f_text-_six_.wav,p268,f,5,20,10.0,7.0,RX81,6,0.0,0.0,7.0,83.34149293193902,babble-reversed_n13_p256-eight-p229-three-p307-nine-p245-five-p248-four-p268-two.wav,8,RX81,9,0.0,0.0,10.0,92.0152836843556,mgb_normalisation,92.0152836843556,90.34149293193902,6,6.0,True,1.2499110698699951
,2024-07-11 09:36:56,sub_102,3,distance,cathedral,spatial_unmasking,6,214,0,0,_two_,talker-p268_sex-f_text-_two_.wav,p268,f,5,21,10.0,7.0,RX81,6,0.0,0.0,7.0,83.34149293193903,babble-reversed_n13_p229-two-p307-five-p318-four-p284-one-p248-nine-p268-eight.wav,8,RX81,9,0.0,0.0,10.0,92.0152836843556,mgb_normalisation,92.0152836843556,90.34149293193902,2,2.0,True,2.6248786449432373
,2024-07-11 09:37:00,sub_102,3,distance,cathedral,spatial_unmasking,6,215,0,0,_one_,talker-p268_sex-f_text-_one_.wav,p268,f,5,22,10.0,7.0,RX81,6,0.0,0.0,7.0,82.34149293193902,babble-reversed_n13_p256-eight-p229-three-p307-nine-p245-five-p248-four-p268-two.wav,8,RX81,9,0.0,0.0,10.0,92.0152836843556,mgb_normalisation,92.0152836843556,90.34149293193902,1,1.0,True,1.3124065399169922
,2024-07-11 09:37:04,sub_102,3,distance,cathedral,spatial_unmasking,6,216,0,0,_six_,talker-p268_sex-f_text-_six_.wav,p268,f,5,23,10.0,7.0,RX81,6,0.0,0.0,7.0,82.34149293193902,babble-reversed_n13_p318-three-p307-one-p256-five-p248-nine-p245-two-p284-eight.wav,8,RX81,9,0.0,0.0,10.0,92.0152836843556,mgb_normalisation,92.0152836843556,90.34149293193902,6,6.0,True,1.4998900890350342
,2024-07-11 09:37:08,sub_102,3,distance,cathedral,spatial_unmasking,6,217,0,0,_three_,talker-p268_sex-f_text-_three_.wav,p268,f,5,24,10.0,7.0,RX81,6,0.0,0.0,7.0,81.34149293193902,babble-reversed_n13_p229-one-p318-eight-p256-three-p268-two-p245-five-p248-nine.wav,8,RX81,9,0.0,0.0,10.0,92.0152836843556,mgb_normalisation,92.0152836843556,90.34149293193902,3,3.0,True,1.624885082244873
,2024-07-11 09:37:12,sub_102,3,distance,cathedral,spatial_unmasking,6,218,0,0,_three_,talker-p268_sex-f_text-_three_.wav,p268,f,5,25,10.0,7.0,RX81,6,0.0,0.0,7.0,81.34149293193902,babble-reversed_n13_p229-one-p318-nine-p256-four-p284-eight-p268-five-p245-two.wav,8,RX81,9,0.0,0.0,10.0,92.0152836843556,mgb_normalisation,92.0152836843556,90.34149293193902,3,8.0,False,1.437398910522461
,2024-07-11 09:37:15,sub_102,3,distance,cathedral,spatial_unmasking,6,219,0,0,_six_,talker-p268_sex-f_text-_six_.wav,p268,f,5,26,10.0,7.0,RX81,6,0.0,0.0,7.0,82.34149293193902,babble-reversed_n13_p256-eight-p318-five-p307-four-p245-three-p268-one-p284-nine.wav,8,RX81,9,0.0,0.0,10.0,92.0152836843556,mgb_normalisation,92.0152836843556,90.34149293193902,6,6.0,True,1.1874375343322754
,2024-07-11 09:37:20,sub_102,3,distance,cathedral,spatial_unmasking,6,220,0,0,_three_,talker-p268_sex-f_text-_three_.wav,p268,f,5,27,10.0,7.0,RX81,6,0.0,0.0,7.0,82.34149293193902,babble-reversed_n13_p318-three-p229-one-p256-eight-p245-five-p248-four-p284-nine.wav,8,RX81,9,0.0,0.0,10.0,92.0152836843556,mgb_normalisation,92.0152836843556,90.34149293193902,3,8.0,False,2.3123373985290527
,2024-07-11 09:37:25,sub_102,3,distance,cathedral,spatial_unmasking,6,221,0,0,_eight_,talker-p268_sex-f_text-_eight_.wav,p268,f,5,28,10.0,7.0,RX81,6,0.0,0.0,7.0,83.34149293193903,babble-reversed_n13_p229-three-p256-nine-p318-five-p248-one-p245-eight-p284-two.wav,8,RX81,9,0.0,0.0,10.0,92.0152836843556,mgb_normalisation,92.0152836843556,90.34149293193902,8,8.0,True,2.624814033508301
,2024-07-11 09:37:29,sub_102,3,distance,cathedral,spatial_unmasking,6,222,0,0,_four_,talker-p268_sex-f_text-_four_.wav,p268,f,5,29,10.0,7.0,RX81,6,0.0,0.0,7.0,83.34149293193902,babble-reversed_n13_p307-four-p318-three-p256-eight-p284-two-p245-nine-p248-five.wav,8,RX81,9,0.0,0.0,10.0,92.0152836843556,mgb_normalisation,92.0152836843556,90.34149293193902,4,9.0,False,1.812371730804444
,2024-07-11 09:37:33,sub_102,3,distance,cathedral,spatial_unmasking,6,223,0,0,_eight_,talker-p268_sex-f_text-_eight_.wav,p268,f,5,30,10.0,7.0,RX81,6,0.0,0.0,7.0,84.34149293193903,babble-reversed_n13_p318-three-p307-one-p256-five-p248-nine-p245-two-p284-eight.wav,8,RX81,9,0.0,0.0,10.0,92.0152836843556,mgb_normalisation,92.0152836843556,90.34149293193902,8,8.0,True,1.687408447265625
,2024-07-11 09:37:37,sub_102,3,distance,cathedral,spatial_unmasking,6,224,0,0,_one_,talker-p268_sex-f_text-_one_.wav,p268,f,5,31,10.0,7.0,RX81,6,0.0,0.0,7.0,84.341492931939,babble-reversed_n13_p307-two-p229-one-p256-five-p248-nine-p284-three-p268-eight.wav,8,RX81,9,0.0,0.0,10.0,92.0152836843556,mgb_normalisation,92.0152836843556,90.34149293193902,1,5.0,False,1.124919891357422
,2024-07-11 09:37:40,sub_102,3,distance,cathedral,spatial_unmasking,6,225,0,0,_nine_,talker-p268_sex-f_text-_nine_.wav,p268,f,5,32,10.0,7.0,RX81,6,0.0,0.0,7.0,85.341492931939,babble-reversed_n13_p229-one-p318-eight-p256-three-p268-two-p245-five-p248-nine.wav,8,RX81,9,0.0,0.0,10.0,92.0152836843556,mgb_normalisation,92.0152836843556,90.34149293193902,9,9.0,True,1.124920129776001
,2024-07-11 09:37:44,sub_102,3,distance,cathedral,spatial_unmasking,6,226,0,0,_two_,talker-p268_sex-f_text-_two_.wav,p268,f,5,33,10.0,7.0,RX81,6,0.0,0.0,7.0,85.34149293193903,babble-reversed_n13_p307-two-p256-four-p318-three-p284-eight-p248-five-p245-nine.wav,8,RX81,9,0.0,0.0,10.0,92.0152836843556,mgb_normalisation,92.0152836843556,90.34149293193902,2,2.0,True,1.2499120235443115
,2024-07-11 09:37:48,sub_102,3,distance,cathedral,spatial_unmasking,6,227,0,0,_one_,talker-p268_sex-f_text-_one_.wav,p268,f,5,34,10.0,7.0,RX81,6,0.0,0.0,7.0,84.341492931939,babble-reversed_n13_p229-one-p318-eight-p256-three-p268-nine-p248-five-p284-four.wav,8,RX81,9,0.0,0.0,10.0,92.0152836843556,mgb_normalisation,92.0152836843556,90.34149293193902,1,1.0,True,1.3124067783355713
,2024-07-11 09:37:51,sub_102,3,distance,cathedral,spatial_unmasking,6,228,0,0,_four_,talker-p268_sex-f_text-_four_.wav,p268,f,5,35,10.0,7.0,RX81,6,0.0,0.0,7.0,84.341492931939,babble-reversed_n13_p307-five-p229-three-p318-nine-p245-four-p268-eight-p284-two.wav,8,RX81,9,0.0,0.0,10.0,92.0152836843556,mgb_normalisation,92.0152836843556,90.34149293193902,4,4.0,True,1.3124048709869385
,2024-07-11 09:37:55,sub_102,3,distance,cathedral,spatial_unmasking,6,229,0,0,_two_,talker-p268_sex-f_text-_two_.wav,p268,f,5,36,10.0,7.0,RX81,6,0.0,0.0,7.0,83.34149293193903,babble-reversed_n13_p256-three-p318-two-p229-nine-p248-four-p284-one-p268-eight.wav,8,RX81,9,0.0,0.0,10.0,92.0152836843556,mgb_normalisation,92.0152836843556,90.34149293193902,2,2.0,True,1.062424659729004
,2024-07-11 09:37:58,sub_102,3,distance,cathedral,spatial_unmasking,6,230,0,0,_one_,talker-p268_sex-f_text-_one_.wav,p268,f,5,37,10.0,7.0,RX81,6,0.0,0.0,7.0,83.34149293193902,babble-reversed_n13_p307-five-p229-three-p318-nine-p245-four-p268-eight-p284-two.wav,8,RX81,9,0.0,0.0,10.0,92.0152836843556,mgb_normalisation,92.0152836843556,90.34149293193902,1,1.0,True,0.9374339580535888
,2024-07-11 09:38:02,sub_102,3,distance,cathedral,spatial_unmasking,6,231,0,0,_three_,talker-p268_sex-f_text-_three_.wav,p268,f,5,38,10.0,7.0,RX81,6,0.0,0.0,7.0,82.34149293193902,babble-reversed_n13_p229-two-p307-five-p318-four-p284-one-p248-nine-p268-eight.wav,8,RX81,9,0.0,0.0,10.0,92.0152836843556,mgb_normalisation,92.0152836843556,90.34149293193902,3,3.0,True,1.562389612197876
,2024-07-11 09:38:06,sub_102,3,distance,cathedral,spatial_unmasking,6,232,0,0,_six_,talker-p268_sex-f_text-_six_.wav,p268,f,5,39,10.0,7.0,RX81,6,0.0,0.0,7.0,82.34149293193902,babble-reversed_n13_p229-three-p307-one-p318-two-p245-eight-p268-five-p284-four.wav,8,RX81,9,0.0,0.0,10.0,92.0152836843556,mgb_normalisation,92.0152836843556,90.34149293193902,6,6.0,True,1.124920129776001
,2024-07-11 09:38:10,sub_102,3,distance,cathedral,spatial_unmasking,6,233,0,0,_two_,talker-p268_sex-f_text-_two_.wav,p268,f,5,40,10.0,7.0,RX81,6,0.0,0.0,7.0,81.34149293193902,babble-reversed_n13_p307-nine-p229-one-p256-eight-p248-four-p284-two-p268-three.wav,8,RX81,9,0.0,0.0,10.0,92.0152836843556,mgb_normalisation,92.0152836843556,90.34149293193902,2,2.0,True,1.3749029636383057
,2024-07-11 09:38:14,sub_102,3,distance,cathedral,spatial_unmasking,6,234,0,0,_two_,talker-p268_sex-f_text-_two_.wav,p268,f,5,41,10.0,7.0,RX81,6,0.0,0.0,7.0,81.34149293193902,babble-reversed_n13_p318-one-p307-two-p256-eight-p284-three-p248-five-p245-four.wav,8,RX81,9,0.0,0.0,10.0,92.0152836843556,mgb_normalisation,92.0152836843556,90.34149293193902,2,2.0,True,1.6873581409454346
,2024-07-11 09:38:17,sub_102,3,distance,cathedral,spatial_unmasking,6,235,0,0,_six_,talker-p268_sex-f_text-_six_.wav,p268,f,5,42,10.0,7.0,RX81,6,0.0,0.0,7.0,80.341492931939,babble-reversed_n13_p256-eight-p318-five-p307-four-p245-three-p268-one-p284-nine.wav,8,RX81,9,0.0,0.0,10.0,92.0152836843556,mgb_normalisation,92.0152836843556,90.34149293193902,6,6.0,True,1.1249206066131592
,2024-07-11 09:38:21,sub_102,3,distance,cathedral,spatial_unmasking,6,236,0,0,_two_,talker-p268_sex-f_text-_two_.wav,p268,f,5,43,10.0,7.0,RX81,6,0.0,0.0,7.0,80.34149293193903,babble-reversed_n13_p318-nine-p256-five-p307-eight-p268-three-p248-one-p245-four.wav,8,RX81,9,0.0,0.0,10.0,92.0152836843556,mgb_normalisation,92.0152836843556,90.34149293193902,2,2.0,True,1.124946355819702
,2024-07-11 09:38:25,sub_102,3,distance,cathedral,spatial_unmasking,6,237,0,0,_four_,talker-p268_sex-f_text-_four_.wav,p268,f,5,44,10.0,7.0,RX81,6,0.0,0.0,7.0,79.341492931939,babble-reversed_n13_p256-eight-p318-five-p307-four-p245-three-p268-one-p284-nine.wav,8,RX81,9,0.0,0.0,10.0,92.0152836843556,mgb_normalisation,92.0152836843556,90.34149293193902,4,5.0,False,1.999859094619751
,2024-07-11 09:38:30,sub_102,3,distance,cathedral,spatial_unmasking,6,238,0,0,_nine_,talker-p268_sex-f_text-_nine_.wav,p268,f,5,45,10.0,7.0,RX81,6,0.0,0.0,7.0,80.341492931939,babble-reversed_n13_p318-five-p229-four-p256-eight-p284-one-p245-three-p248-two.wav,8,RX81,9,0.0,0.0,10.0,92.0152836843556,mgb_normalisation,92.0152836843556,90.34149293193902,9,9.0,True,2.3123369216918945
,2024-07-11 09:38:33,sub_102,3,distance,cathedral,spatial_unmasking,6,239,0,0,_nine_,talker-p268_sex-f_text-_nine_.wav,p268,f,5,46,10.0,7.0,RX81,6,0.0,0.0,7.0,80.341492931939,babble-reversed_n13_p307-four-p318-three-p256-eight-p284-two-p245-nine-p248-five.wav,8,RX81,9,0.0,0.0,10.0,92.0152836843556,mgb_normalisation,92.0152836843556,90.34149293193902,9,9.0,True,1.1874160766601562
,2024-07-11 09:39:52,sub_102,3,distance,cathedral,spatial_unmasking,7,240,0,0,_nine_,talker-p268_sex-f_text-_nine_.wav,p268,f,5,1,2.0,7.0,RX81,6,0.0,0.0,7.0,92.34149293193902,babble-reversed_n13_p256-eight-p318-two-p307-five-p245-four-p268-nine-p284-one.wav,0,RX81,1,0.0,0.0,2.0,84.40078082039426,mgb_normalisation,84.40078082039426,90.34149293193902,9,9.0,True,1.3123726844787598
,2024-07-11 09:39:55,sub_102,3,distance,cathedral,spatial_unmasking,7,241,0,0,_eight_,talker-p268_sex-f_text-_eight_.wav,p268,f,5,2,2.0,7.0,RX81,6,0.0,0.0,7.0,88.34149293193903,babble-reversed_n13_p318-one-p307-two-p256-eight-p284-three-p248-five-p245-four.wav,0,RX81,1,0.0,0.0,2.0,84.40078082039427,mgb_normalisation,84.40078082039426,90.34149293193902,8,8.0,True,1.3124067783355713
,2024-07-11 09:40:00,sub_102,3,distance,cathedral,spatial_unmasking,7,242,0,0,_nine_,talker-p268_sex-f_text-_nine_.wav,p268,f,5,3,2.0,7.0,RX81,6,0.0,0.0,7.0,84.341492931939,babble-reversed_n13_p307-five-p229-three-p318-nine-p245-four-p268-eight-p284-two.wav,0,RX81,1,0.0,0.0,2.0,84.40078082039426,mgb_normalisation,84.40078082039426,90.34149293193902,9,5.0,False,2.3123369216918945
,2024-07-11 09:40:04,sub_102,3,distance,cathedral,spatial_unmasking,7,243,0,0,_two_,talker-p268_sex-f_text-_two_.wav,p268,f,5,4,2.0,7.0,RX81,6,0.0,0.0,7.0,86.34149293193902,babble-reversed_n13_p318-five-p256-nine-p307-two-p245-eight-p248-one-p284-four.wav,0,RX81,1,0.0,0.0,2.0,84.40078082039427,mgb_normalisation,84.40078082039426,90.34149293193902,2,2.0,True,1.5623247623443604
,2024-07-11 09:40:07,sub_102,3,distance,cathedral,spatial_unmasking,7,244,0,0,_one_,talker-p268_sex-f_text-_one_.wav,p268,f,5,5,2.0,7.0,RX81,6,0.0,0.0,7.0,86.34149293193902,babble-reversed_n13_p307-five-p229-two-p318-four-p248-three-p245-nine-p268-eight.wav,0,RX81,1,0.0,0.0,2.0,84.40078082039426,mgb_normalisation,84.40078082039426,90.34149293193902,1,1.0,True,1.1249842643737793
,2024-07-11 09:40:12,sub_102,3,distance,cathedral,spatial_unmasking,7,245,0,0,_eight_,talker-p268_sex-f_text-_eight_.wav,p268,f,5,6,2.0,7.0,RX81,6,0.0,0.0,7.0,84.34149293193903,babble-reversed_n13_p307-five-p229-two-p318-four-p248-three-p245-nine-p268-eight.wav,0,RX81,1,0.0,0.0,2.0,84.40078082039426,mgb_normalisation,84.40078082039426,90.34149293193902,8,8.0,True,1.8123729228973389
,2024-07-11 09:40:15,sub_102,3,distance,cathedral,spatial_unmasking,7,246,0,0,_one_,talker-p268_sex-f_text-_one_.wav,p268,f,5,7,2.0,7.0,RX81,6,0.0,0.0,7.0,84.341492931939,babble-reversed_n13_p229-three-p307-one-p318-two-p245-eight-p268-five-p284-four.wav,0,RX81,1,0.0,0.0,2.0,84.40078082039426,mgb_normalisation,84.40078082039426,90.34149293193902,1,1.0,True,1.2499127388000488
,2024-07-11 09:40:19,sub_102,3,distance,cathedral,spatial_unmasking,7,247,0,0,_three_,talker-p268_sex-f_text-_three_.wav,p268,f,5,8,2.0,7.0,RX81,6,0.0,0.0,7.0,82.34149293193902,babble-reversed_n13_p229-nine-p318-one-p307-two-p248-eight-p245-five-p284-four.wav,0,RX81,1,0.0,0.0,2.0,84.40078082039426,mgb_normalisation,84.40078082039426,90.34149293193902,3,3.0,True,1.2499477863311768
,2024-07-11 09:40:22,sub_102,3,distance,cathedral,spatial_unmasking,7,248,0,0,_six_,talker-p268_sex-f_text-_six_.wav,p268,f,5,9,2.0,7.0,RX81,6,0.0,0.0,7.0,82.34149293193902,babble-reversed_n13_p256-five-p229-one-p318-three-p248-nine-p284-eight-p268-two.wav,0,RX81,1,0.0,0.0,2.0,84.40078082039427,mgb_normalisation,84.40078082039426,90.34149293193902,6,6.0,True,1.062424898147583
,2024-07-11 09:40:26,sub_102,3,distance,cathedral,spatial_unmasking,7,249,0,0,_one_,talker-p268_sex-f_text-_one_.wav,p268,f,5,10,2.0,7.0,RX81,6,0.0,0.0,7.0,80.34149293193903,babble-reversed_n13_p256-eight-p318-two-p307-five-p245-four-p268-nine-p284-one.wav,0,RX81,1,0.0,0.0,2.0,84.40078082039426,mgb_normalisation,84.40078082039426,90.34149293193902,1,1.0,True,1.249911546707153
,2024-07-11 09:40:30,sub_102,3,distance,cathedral,spatial_unmasking,7,250,0,0,_six_,talker-p268_sex-f_text-_six_.wav,p268,f,5,11,2.0,7.0,RX81,6,0.0,0.0,7.0,80.341492931939,babble-reversed_n13_p229-three-p256-nine-p318-five-p248-one-p245-eight-p284-two.wav,0,RX81,1,0.0,0.0,2.0,84.40078082039426,mgb_normalisation,84.40078082039426,90.34149293193902,6,6.0,True,1.374849796295166
,2024-07-11 09:40:35,sub_102,3,distance,cathedral,spatial_unmasking,7,251,0,0,_eight_,talker-p268_sex-f_text-_eight_.wav,p268,f,5,12,2.0,7.0,RX81,6,0.0,0.0,7.0,78.34149293193902,babble-reversed_n13_p318-five-p229-three-p256-four-p268-eight-p248-one-p245-nine.wav,0,RX81,1,0.0,0.0,2.0,84.40078082039426,mgb_normalisation,84.40078082039426,90.34149293193902,8,8.0,True,2.499889373779297
,2024-07-11 09:40:39,sub_102,3,distance,cathedral,spatial_unmasking,7,252,0,0,_three_,talker-p268_sex-f_text-_three_.wav,p268,f,5,13,2.0,7.0,RX81,6,0.0,0.0,7.0,78.34149293193902,babble-reversed_n13_p318-nine-p256-five-p307-eight-p268-three-p248-one-p245-four.wav,0,RX81,1,0.0,0.0,2.0,84.40078082039426,mgb_normalisation,84.40078082039426,90.34149293193902,3,3.0,True,1.562389850616455
,2024-07-11 09:40:43,sub_102,3,distance,cathedral,spatial_unmasking,7,253,0,0,_three_,talker-p268_sex-f_text-_three_.wav,p268,f,5,14,2.0,7.0,RX81,6,0.0,0.0,7.0,76.34149293193902,babble-reversed_n13_p318-five-p229-four-p256-eight-p284-one-p245-three-p248-two.wav,0,RX81,1,0.0,0.0,2.0,84.40078082039426,mgb_normalisation,84.40078082039426,90.34149293193902,3,8.0,False,2.249906539916992
,2024-07-11 09:40:51,sub_102,3,distance,cathedral,spatial_unmasking,7,254,0,0,_two_,talker-p268_sex-f_text-_two_.wav,p268,f,5,15,2.0,7.0,RX81,6,0.0,0.0,7.0,77.34149293193903,babble-reversed_n13_p307-five-p229-two-p318-four-p248-three-p245-nine-p268-eight.wav,0,RX81,1,0.0,0.0,2.0,84.40078082039426,mgb_normalisation,84.40078082039426,90.34149293193902,2,8.0,False,4.8121607303619385
,2024-07-11 09:40:55,sub_102,3,distance,cathedral,spatial_unmasking,7,255,0,0,_five_,talker-p268_sex-f_text-_five_.wav,p268,f,5,16,2.0,7.0,RX81,6,0.0,0.0,7.0,78.34149293193902,babble-reversed_n13_p307-nine-p318-two-p256-one-p245-three-p268-four-p248-eight.wav,0,RX81,1,0.0,0.0,2.0,84.40078082039426,mgb_normalisation,84.40078082039426,90.34149293193902,5,9.0,False,1.4373986721038818
,2024-07-11 09:40:58,sub_102,3,distance,cathedral,spatial_unmasking,7,256,0,0,_six_,talker-p268_sex-f_text-_six_.wav,p268,f,5,17,2.0,7.0,RX81,6,0.0,0.0,7.0,79.341492931939,babble-reversed_n13_p307-nine-p229-one-p256-eight-p248-four-p284-two-p268-three.wav,0,RX81,1,0.0,0.0,2.0,84.40078082039426,mgb_normalisation,84.40078082039426,90.34149293193902,6,6.0,True,1.5623900890350342
,2024-07-11 09:41:02,sub_102,3,distance,cathedral,spatial_unmasking,7,257,0,0,_one_,talker-p268_sex-f_text-_one_.wav,p268,f,5,18,2.0,7.0,RX81,6,0.0,0.0,7.0,79.34149293193902,babble-reversed_n13_p318-three-p229-one-p256-eight-p245-five-p248-four-p284-nine.wav,0,RX81,1,0.0,0.0,2.0,84.40078082039427,mgb_normalisation,84.40078082039426,90.34149293193902,1,1.0,True,1.4373986721038818
,2024-07-11 09:41:06,sub_102,3,distance,cathedral,spatial_unmasking,7,258,0,0,_two_,talker-p268_sex-f_text-_two_.wav,p268,f,5,19,2.0,7.0,RX81,6,0.0,0.0,7.0,78.34149293193902,babble-reversed_n13_p256-eight-p318-five-p307-four-p245-three-p268-one-p284-nine.wav,0,RX81,1,0.0,0.0,2.0,84.40078082039426,mgb_normalisation,84.40078082039426,90.34149293193902,2,2.0,True,1.062424659729004
,2024-07-11 09:41:10,sub_102,3,distance,cathedral,spatial_unmasking,7,259,0,0,_one_,talker-p268_sex-f_text-_one_.wav,p268,f,5,20,2.0,7.0,RX81,6,0.0,0.0,7.0,78.34149293193902,babble-reversed_n13_p229-five-p318-two-p307-eight-p268-three-p248-four-p245-one.wav,0,RX81,1,0.0,0.0,2.0,84.40078082039427,mgb_normalisation,84.40078082039426,90.34149293193902,1,1.0,True,2.062375068664551
