event_id,timestamp,subject_id,session_index,plane,setup,task,block,trial_index,headpose_offset_azi,headpose_offset_ele,target_number,target_filename,target_talker,target_sex,target_speaker_id,step_number:,distance_masker,distance_target,target_speaker_proc,target_speaker_chan,target_speaker_azi,target_speaker_ele,target_speaker_dist,target_stim_level,masker_filename,masker_speaker_id,masker_speaker_proc,masker_speaker_chan,masker_speaker_azi,masker_speaker_ele,masker_speaker_dist,masker_stim_level,normalisation_method,normalisation_level_masker,normalisation_level_target,played_number,resp_number,is_correct,reaction_time
,2024-07-18 14:16:01,sub_114,3,distance,cathedral,spatial_unmasking,1,0,0,0,_two_,talker-p245_sex-f_text-_two_.wav,p245,f,5,1,12.0,7.0,RX81,6,0.0,0.0,7.0,92.341492931939,babble-reversed_n13_p318-five-p229-four-p256-eight-p284-one-p245-three-p248-two.wav,10,RX81,11,0.0,0.0,12.0,93.00003341222718,mgb_normalisation,93.00003341222715,90.34149293193902,2,2.0,True,1.5599877834320068
,2024-07-18 14:16:05,sub_114,3,distance,cathedral,spatial_unmasking,1,1,0,0,_two_,talker-p245_sex-f_text-_two_.wav,p245,f,5,2,12.0,7.0,RX81,6,0.0,0.0,7.0,88.34149293193902,babble-reversed_n13_p256-four-p307-eight-p318-two-p248-three-p284-nine-p268-one.wav,10,RX81,11,0.0,0.0,12.0,93.00003341222718,mgb_normalisation,93.00003341222715,90.34149293193902,2,2.0,True,1.1875669956207275
,2024-07-18 14:16:09,sub_114,3,distance,cathedral,spatial_unmasking,1,2,0,0,_one_,talker-p245_sex-f_text-_one_.wav,p245,f,5,3,12.0,7.0,RX81,6,0.0,0.0,7.0,84.341492931939,babble-reversed_n13_p307-two-p256-four-p318-three-p284-eight-p248-five-p245-nine.wav,10,RX81,11,0.0,0.0,12.0,93.00003341222718,mgb_normalisation,93.00003341222715,90.34149293193902,1,3.0,False,1.5000848770141602
,2024-07-18 14:16:13,sub_114,3,distance,cathedral,spatial_unmasking,1,3,0,0,_one_,talker-p245_sex-f_text-_one_.wav,p245,f,5,4,12.0,7.0,RX81,6,0.0,0.0,7.0,86.341492931939,babble-reversed_n13_p229-one-p318-eight-p256-three-p268-two-p245-five-p248-nine.wav,10,RX81,11,0.0,0.0,12.0,93.00003341222715,mgb_normalisation,93.00003341222715,90.34149293193902,1,1.0,True,1.5486671924591064
,2024-07-18 14:16:17,sub_114,3,distance,cathedral,spatial_unmasking,1,4,0,0,_one_,talker-p245_sex-f_text-_one_.wav,p245,f,5,5,12.0,7.0,RX81,6,0.0,0.0,7.0,86.341492931939,babble-reversed_n13_p229-two-p307-five-p318-four-p284-one-p248-nine-p268-eight.wav,10,RX81,11,0.0,0.0,12.0,93.00003341222718,mgb_normalisation,93.00003341222715,90.34149293193902,1,1.0,True,2.124428987503052
,2024-07-18 14:16:21,sub_114,3,distance,cathedral,spatial_unmasking,1,5,0,0,_three_,talker-p245_sex-f_text-_three_.wav,p245,f,5,6,12.0,7.0,RX81,6,0.0,0.0,7.0,84.34149293193903,babble-reversed_n13_p229-five-p256-three-p318-nine-p248-two-p284-four-p268-one.wav,10,RX81,11,0.0,0.0,12.0,93.00003341222718,mgb_normalisation,93.00003341222715,90.34149293193902,3,3.0,True,1.3114807605743408
,2024-07-18 14:16:25,sub_114,3,distance,cathedral,spatial_unmasking,1,6,0,0,_two_,talker-p245_sex-f_text-_two_.wav,p245,f,5,7,12.0,7.0,RX81,6,0.0,0.0,7.0,84.341492931939,babble-reversed_n13_p229-nine-p307-five-p256-two-p248-three-p245-one-p268-eight.wav,10,RX81,11,0.0,0.0,12.0,93.00003341222715,mgb_normalisation,93.00003341222715,90.34149293193902,2,2.0,True,1.0000555515289309
,2024-07-18 14:16:28,sub_114,3,distance,cathedral,spatial_unmasking,1,7,0,0,_four_,talker-p245_sex-f_text-_four_.wav,p245,f,5,8,12.0,7.0,RX81,6,0.0,0.0,7.0,82.34149293193902,babble-reversed_n13_p307-nine-p229-one-p256-eight-p248-four-p284-two-p268-three.wav,10,RX81,11,0.0,0.0,12.0,93.00003341222718,mgb_normalisation,93.00003341222715,90.34149293193902,4,3.0,False,1.249976396560669
,2024-07-18 14:16:32,sub_114,3,distance,cathedral,spatial_unmasking,1,8,0,0,_five_,talker-p245_sex-f_text-_five_.wav,p245,f,5,9,12.0,7.0,RX81,6,0.0,0.0,7.0,83.34149293193902,babble-reversed_n13_p307-two-p256-four-p318-three-p284-eight-p248-five-p245-nine.wav,10,RX81,11,0.0,0.0,12.0,93.00003341222718,mgb_normalisation,93.00003341222715,90.34149293193902,5,5.0,True,1.1245105266571045
,2024-07-18 14:16:35,sub_114,3,distance,cathedral,spatial_unmasking,1,9,0,0,_three_,talker-p245_sex-f_text-_three_.wav,p245,f,5,10,12.0,7.0,RX81,6,0.0,0.0,7.0,83.34149293193903,babble-reversed_n13_p318-nine-p256-five-p307-eight-p268-three-p248-one-p245-four.wav,10,RX81,11,0.0,0.0,12.0,93.00003341222718,mgb_normalisation,93.00003341222715,90.34149293193902,3,3.0,True,1.2500693798065186
,2024-07-18 14:16:40,sub_114,3,distance,cathedral,spatial_unmasking,1,10,0,0,_eight_,talker-p245_sex-f_text-_eight_.wav,p245,f,5,11,12.0,7.0,RX81,6,0.0,0.0,7.0,82.34149293193902,babble-reversed_n13_p229-one-p318-nine-p256-four-p284-eight-p268-five-p245-two.wav,10,RX81,11,0.0,0.0,12.0,93.00003341222715,mgb_normalisation,93.00003341222715,90.34149293193902,8,8.0,True,1.6875934600830078
,2024-07-18 14:16:43,sub_114,3,distance,cathedral,spatial_unmasking,1,11,0,0,_two_,talker-p245_sex-f_text-_two_.wav,p245,f,5,12,12.0,7.0,RX81,6,0.0,0.0,7.0,82.341492931939,babble-reversed_n13_p229-one-p318-nine-p256-four-p284-eight-p268-five-p245-two.wav,10,RX81,11,0.0,0.0,12.0,93.00003341222715,mgb_normalisation,93.00003341222715,90.34149293193902,2,2.0,True,1.3658435344696045
,2024-07-18 14:16:47,sub_114,3,distance,cathedral,spatial_unmasking,1,12,0,0,_five_,talker-p245_sex-f_text-_five_.wav,p245,f,5,13,12.0,7.0,RX81,6,0.0,0.0,7.0,81.34149293193902,babble-reversed_n13_p318-four-p256-five-p229-three-p284-one-p245-eight-p248-nine.wav,10,RX81,11,0.0,0.0,12.0,93.00003341222718,mgb_normalisation,93.00003341222715,90.34149293193902,5,5.0,True,1.1892411708831787
,2024-07-18 14:16:51,sub_114,3,distance,cathedral,spatial_unmasking,1,13,0,0,_four_,talker-p245_sex-f_text-_four_.wav,p245,f,5,14,12.0,7.0,RX81,6,0.0,0.0,7.0,81.34149293193902,babble-reversed_n13_p229-three-p307-one-p318-two-p245-eight-p268-five-p284-four.wav,10,RX81,11,0.0,0.0,12.0,93.00003341222718,mgb_normalisation,93.00003341222715,90.34149293193902,4,4.0,True,1.9976727962493896
,2024-07-18 14:16:55,sub_114,3,distance,cathedral,spatial_unmasking,1,14,0,0,_three_,talker-p245_sex-f_text-_three_.wav,p245,f,5,15,12.0,7.0,RX81,6,0.0,0.0,7.0,80.34149293193903,babble-reversed_n13_p318-nine-p307-eight-p229-two-p284-one-p248-three-p245-five.wav,10,RX81,11,0.0,0.0,12.0,93.00003341222718,mgb_normalisation,93.00003341222715,90.34149293193902,3,2.0,False,1.6251535415649414
,2024-07-18 14:16:59,sub_114,3,distance,cathedral,spatial_unmasking,1,15,0,0,_six_,talker-p245_sex-f_text-_six_.wav,p245,f,5,16,12.0,7.0,RX81,6,0.0,0.0,7.0,81.34149293193902,babble-reversed_n13_p307-nine-p229-one-p256-eight-p248-four-p284-two-p268-three.wav,10,RX81,11,0.0,0.0,12.0,93.00003341222718,mgb_normalisation,93.00003341222715,90.34149293193902,6,6.0,True,1.1250619888305664
,2024-07-18 14:17:02,sub_114,3,distance,cathedral,spatial_unmasking,1,16,0,0,_three_,talker-p245_sex-f_text-_three_.wav,p245,f,5,17,12.0,7.0,RX81,6,0.0,0.0,7.0,81.34149293193902,babble-reversed_n13_p318-three-p307-one-p256-five-p248-nine-p245-two-p284-eight.wav,10,RX81,11,0.0,0.0,12.0,93.00003341222718,mgb_normalisation,93.00003341222715,90.34149293193902,3,3.0,True,1.0019035339355469
,2024-07-18 14:17:06,sub_114,3,distance,cathedral,spatial_unmasking,1,17,0,0,_eight_,talker-p245_sex-f_text-_eight_.wav,p245,f,5,18,12.0,7.0,RX81,6,0.0,0.0,7.0,80.34149293193903,babble-reversed_n13_p307-two-p256-four-p318-three-p284-eight-p248-five-p245-nine.wav,10,RX81,11,0.0,0.0,12.0,93.00003341222718,mgb_normalisation,93.00003341222715,90.34149293193902,8,2.0,False,1.8738410472869875
,2024-07-18 14:17:11,sub_114,3,distance,cathedral,spatial_unmasking,1,18,0,0,_five_,talker-p245_sex-f_text-_five_.wav,p245,f,5,19,12.0,7.0,RX81,6,0.0,0.0,7.0,81.34149293193902,babble-reversed_n13_p307-two-p229-one-p256-five-p248-nine-p284-three-p268-eight.wav,10,RX81,11,0.0,0.0,12.0,93.00003341222718,mgb_normalisation,93.00003341222715,90.34149293193902,5,5.0,True,1.7500967979431152
,2024-07-18 14:17:15,sub_114,3,distance,cathedral,spatial_unmasking,1,19,0,0,_one_,talker-p245_sex-f_text-_one_.wav,p245,f,5,20,12.0,7.0,RX81,6,0.0,0.0,7.0,81.341492931939,babble-reversed_n13_p229-three-p256-nine-p318-five-p248-one-p245-eight-p284-two.wav,10,RX81,11,0.0,0.0,12.0,93.00003341222718,mgb_normalisation,93.00003341222715,90.34149293193902,1,9.0,False,1.6875941753387451
,2024-07-18 14:17:19,sub_114,3,distance,cathedral,spatial_unmasking,1,20,0,0,_one_,talker-p245_sex-f_text-_one_.wav,p245,f,5,21,12.0,7.0,RX81,6,0.0,0.0,7.0,82.341492931939,babble-reversed_n13_p229-three-p307-one-p318-two-p245-eight-p268-five-p284-four.wav,10,RX81,11,0.0,0.0,12.0,93.00003341222718,mgb_normalisation,93.00003341222715,90.34149293193902,1,1.0,True,1.3750765323638916
,2024-07-18 14:17:23,sub_114,3,distance,cathedral,spatial_unmasking,1,21,0,0,_four_,talker-p245_sex-f_text-_four_.wav,p245,f,5,22,12.0,7.0,RX81,6,0.0,0.0,7.0,82.34149293193902,babble-reversed_n13_p229-nine-p256-four-p318-three-p268-eight-p248-two-p284-five.wav,10,RX81,11,0.0,0.0,12.0,93.00003341222718,mgb_normalisation,93.00003341222715,90.34149293193902,4,4.0,True,1.6729800701141355
,2024-07-18 14:17:27,sub_114,3,distance,cathedral,spatial_unmasking,1,22,0,0,_six_,talker-p245_sex-f_text-_six_.wav,p245,f,5,23,12.0,7.0,RX81,6,0.0,0.0,7.0,81.34149293193902,babble-reversed_n13_p318-five-p229-three-p256-four-p268-eight-p248-one-p245-nine.wav,10,RX81,11,0.0,0.0,12.0,93.00003341222718,mgb_normalisation,93.00003341222715,90.34149293193902,6,3.0,False,1.936324119567871
,2024-07-18 14:17:31,sub_114,3,distance,cathedral,spatial_unmasking,1,23,0,0,_eight_,talker-p245_sex-f_text-_eight_.wav,p245,f,5,24,12.0,7.0,RX81,6,0.0,0.0,7.0,82.34149293193902,babble-reversed_n13_p307-five-p229-three-p318-nine-p245-four-p268-eight-p284-two.wav,10,RX81,11,0.0,0.0,12.0,93.00003341222715,mgb_normalisation,93.00003341222715,90.34149293193902,8,3.0,False,1.562586784362793
,2024-07-18 14:17:35,sub_114,3,distance,cathedral,spatial_unmasking,1,24,0,0,_six_,talker-p245_sex-f_text-_six_.wav,p245,f,5,25,12.0,7.0,RX81,6,0.0,0.0,7.0,83.34149293193902,babble-reversed_n13_p229-eight-p256-nine-p318-four-p245-three-p268-five-p284-two.wav,10,RX81,11,0.0,0.0,12.0,93.00003341222715,mgb_normalisation,93.00003341222715,90.34149293193902,6,6.0,True,1.5000827312469482
,2024-07-18 14:17:39,sub_114,3,distance,cathedral,spatial_unmasking,1,25,0,0,_two_,talker-p245_sex-f_text-_two_.wav,p245,f,5,26,12.0,7.0,RX81,6,0.0,0.0,7.0,83.34149293193902,babble-reversed_n13_p318-five-p229-three-p256-four-p268-eight-p248-one-p245-nine.wav,10,RX81,11,0.0,0.0,12.0,93.00003341222718,mgb_normalisation,93.00003341222715,90.34149293193902,2,2.0,True,1.250070095062256
,2024-07-18 14:17:42,sub_114,3,distance,cathedral,spatial_unmasking,1,26,0,0,_one_,talker-p245_sex-f_text-_one_.wav,p245,f,5,27,12.0,7.0,RX81,6,0.0,0.0,7.0,82.341492931939,babble-reversed_n13_p307-five-p229-two-p318-four-p248-three-p245-nine-p268-eight.wav,10,RX81,11,0.0,0.0,12.0,93.00003341222715,mgb_normalisation,93.00003341222715,90.34149293193902,1,1.0,True,1.3078124523162842
,2024-07-18 14:17:46,sub_114,3,distance,cathedral,spatial_unmasking,1,27,0,0,_five_,talker-p245_sex-f_text-_five_.wav,p245,f,5,28,12.0,7.0,RX81,6,0.0,0.0,7.0,82.34149293193902,babble-reversed_n13_p318-five-p256-nine-p307-two-p245-eight-p248-one-p284-four.wav,10,RX81,11,0.0,0.0,12.0,93.00003341222718,mgb_normalisation,93.00003341222715,90.34149293193902,5,5.0,True,1.1250624656677246
,2024-07-18 14:17:49,sub_114,3,distance,cathedral,spatial_unmasking,1,28,0,0,_eight_,talker-p245_sex-f_text-_eight_.wav,p245,f,5,29,12.0,7.0,RX81,6,0.0,0.0,7.0,81.34149293193902,babble-reversed_n13_p256-three-p318-two-p229-nine-p248-four-p284-one-p268-eight.wav,10,RX81,11,0.0,0.0,12.0,93.00003341222715,mgb_normalisation,93.00003341222715,90.34149293193902,8,3.0,False,1.1250624656677246
,2024-07-18 14:17:53,sub_114,3,distance,cathedral,spatial_unmasking,1,29,0,0,_six_,talker-p245_sex-f_text-_six_.wav,p245,f,5,30,12.0,7.0,RX81,6,0.0,0.0,7.0,82.34149293193902,babble-reversed_n13_p256-five-p229-one-p318-three-p248-nine-p284-eight-p268-two.wav,10,RX81,11,0.0,0.0,12.0,93.00003341222718,mgb_normalisation,93.00003341222715,90.34149293193902,6,6.0,True,1.1246936321258545
,2024-07-18 14:17:57,sub_114,3,distance,cathedral,spatial_unmasking,1,30,0,0,_eight_,talker-p245_sex-f_text-_eight_.wav,p245,f,5,31,12.0,7.0,RX81,6,0.0,0.0,7.0,82.34149293193902,babble-reversed_n13_p229-two-p256-three-p318-eight-p284-five-p268-four-p245-one.wav,10,RX81,11,0.0,0.0,12.0,93.00003341222718,mgb_normalisation,93.00003341222715,90.34149293193902,8,2.0,False,1.624934434890747
,2024-07-18 14:18:00,sub_114,3,distance,cathedral,spatial_unmasking,1,31,0,0,_two_,talker-p245_sex-f_text-_two_.wav,p245,f,5,32,12.0,7.0,RX81,6,0.0,0.0,7.0,83.34149293193902,babble-reversed_n13_p256-five-p229-one-p318-three-p248-nine-p284-eight-p268-two.wav,10,RX81,11,0.0,0.0,12.0,93.00003341222718,mgb_normalisation,93.00003341222715,90.34149293193902,2,2.0,True,1.1875665187835691
,2024-07-18 14:18:04,sub_114,3,distance,cathedral,spatial_unmasking,1,32,0,0,_two_,talker-p245_sex-f_text-_two_.wav,p245,f,5,33,12.0,7.0,RX81,6,0.0,0.0,7.0,83.34149293193902,babble-reversed_n13_p229-five-p318-two-p307-eight-p268-three-p248-four-p245-one.wav,10,RX81,11,0.0,0.0,12.0,93.00003341222718,mgb_normalisation,93.00003341222715,90.34149293193902,2,3.0,False,1.5625874996185305
,2024-07-18 14:18:08,sub_114,3,distance,cathedral,spatial_unmasking,1,33,0,0,_six_,talker-p245_sex-f_text-_six_.wav,p245,f,5,34,12.0,7.0,RX81,6,0.0,0.0,7.0,84.341492931939,babble-reversed_n13_p307-five-p229-three-p318-nine-p245-four-p268-eight-p284-two.wav,10,RX81,11,0.0,0.0,12.0,93.00003341222715,mgb_normalisation,93.00003341222715,90.34149293193902,6,6.0,True,1.4239630699157717
,2024-07-18 14:18:12,sub_114,3,distance,cathedral,spatial_unmasking,1,34,0,0,_five_,talker-p245_sex-f_text-_five_.wav,p245,f,5,35,12.0,7.0,RX81,6,0.0,0.0,7.0,84.341492931939,babble-reversed_n13_p307-one-p318-five-p229-four-p268-eight-p284-two-p245-three.wav,10,RX81,11,0.0,0.0,12.0,93.00003341222715,mgb_normalisation,93.00003341222715,90.34149293193902,5,5.0,True,1.314908504486084
,2024-07-18 14:19:29,sub_114,3,distance,cathedral,spatial_unmasking,2,35,0,0,_nine_,talker-p245_sex-f_text-_nine_.wav,p245,f,5,1,4.0,7.0,RX81,6,0.0,0.0,7.0,92.34149293193902,babble-reversed_n13_p307-four-p318-three-p256-eight-p284-two-p245-nine-p248-five.wav,2,RX81,3,0.0,0.0,4.0,87.57049330475355,mgb_normalisation,87.57049330475357,90.34149293193902,9,9.0,True,1.1250622272491455
,2024-07-18 14:19:32,sub_114,3,distance,cathedral,spatial_unmasking,2,36,0,0,_five_,talker-p245_sex-f_text-_five_.wav,p245,f,5,2,4.0,7.0,RX81,6,0.0,0.0,7.0,88.34149293193902,babble-reversed_n13_p229-nine-p307-five-p256-two-p248-three-p245-one-p268-eight.wav,2,RX81,3,0.0,0.0,4.0,87.57049330475357,mgb_normalisation,87.57049330475357,90.34149293193902,5,5.0,True,0.940924882888794
,2024-07-18 14:19:36,sub_114,3,distance,cathedral,spatial_unmasking,2,37,0,0,_five_,talker-p245_sex-f_text-_five_.wav,p245,f,5,3,4.0,7.0,RX81,6,0.0,0.0,7.0,84.341492931939,babble-reversed_n13_p229-one-p318-eight-p256-three-p268-two-p245-five-p248-nine.wav,2,RX81,3,0.0,0.0,4.0,87.57049330475355,mgb_normalisation,87.57049330475357,90.34149293193902,5,5.0,True,1.4375793933868408
,2024-07-18 14:19:41,sub_114,3,distance,cathedral,spatial_unmasking,2,38,0,0,_one_,talker-p245_sex-f_text-_one_.wav,p245,f,5,4,4.0,7.0,RX81,6,0.0,0.0,7.0,80.341492931939,babble-reversed_n13_p307-five-p229-three-p318-nine-p245-four-p268-eight-p284-two.wav,2,RX81,3,0.0,0.0,4.0,87.57049330475355,mgb_normalisation,87.57049330475357,90.34149293193902,1,4.0,False,2.1876213550567627
,2024-07-18 14:19:44,sub_114,3,distance,cathedral,spatial_unmasking,2,39,0,0,_two_,talker-p245_sex-f_text-_two_.wav,p245,f,5,5,4.0,7.0,RX81,6,0.0,0.0,7.0,82.341492931939,babble-reversed_n13_p318-five-p256-nine-p307-eight-p248-two-p245-four-p284-three.wav,2,RX81,3,0.0,0.0,4.0,87.57049330475357,mgb_normalisation,87.57049330475357,90.34149293193902,2,2.0,True,1.187565803527832
,2024-07-18 14:19:48,sub_114,3,distance,cathedral,spatial_unmasking,2,40,0,0,_five_,talker-p245_sex-f_text-_five_.wav,p245,f,5,6,4.0,7.0,RX81,6,0.0,0.0,7.0,82.34149293193902,babble-reversed_n13_p229-one-p318-eight-p256-three-p268-two-p245-five-p248-nine.wav,2,RX81,3,0.0,0.0,4.0,87.57049330475355,mgb_normalisation,87.57049330475357,90.34149293193902,5,5.0,True,1.1867718696594238
,2024-07-18 14:19:52,sub_114,3,distance,cathedral,spatial_unmasking,2,41,0,0,_eight_,talker-p245_sex-f_text-_eight_.wav,p245,f,5,7,4.0,7.0,RX81,6,0.0,0.0,7.0,80.34149293193903,babble-reversed_n13_p307-nine-p318-two-p256-one-p245-three-p268-four-p248-eight.wav,2,RX81,3,0.0,0.0,4.0,87.57049330475355,mgb_normalisation,87.57049330475357,90.34149293193902,8,8.0,True,1.7488069534301758
,2024-07-18 14:19:56,sub_114,3,distance,cathedral,spatial_unmasking,2,42,0,0,_four_,talker-p245_sex-f_text-_four_.wav,p245,f,5,8,4.0,7.0,RX81,6,0.0,0.0,7.0,80.34149293193903,babble-reversed_n13_p229-two-p318-eight-p256-three-p268-one-p248-nine-p284-five.wav,2,RX81,3,0.0,0.0,4.0,87.57049330475355,mgb_normalisation,87.57049330475357,90.34149293193902,4,9.0,False,1.812628030776977
,2024-07-18 14:20:00,sub_114,3,distance,cathedral,spatial_unmasking,2,43,0,0,_three_,talker-p245_sex-f_text-_three_.wav,p245,f,5,9,4.0,7.0,RX81,6,0.0,0.0,7.0,81.34149293193902,babble-reversed_n13_p256-five-p307-nine-p318-three-p284-eight-p268-one-p248-two.wav,2,RX81,3,0.0,0.0,4.0,87.57049330475357,mgb_normalisation,87.57049330475357,90.34149293193902,3,3.0,True,1.312572717666626
,2024-07-18 14:20:04,sub_114,3,distance,cathedral,spatial_unmasking,2,44,0,0,_six_,talker-p245_sex-f_text-_six_.wav,p245,f,5,10,4.0,7.0,RX81,6,0.0,0.0,7.0,81.34149293193902,babble-reversed_n13_p229-five-p318-three-p307-two-p245-four-p284-nine-p248-eight.wav,2,RX81,3,0.0,0.0,4.0,87.57049330475357,mgb_normalisation,87.57049330475357,90.34149293193902,6,6.0,True,1.0644288063049316
,2024-07-18 14:20:08,sub_114,3,distance,cathedral,spatial_unmasking,2,45,0,0,_eight_,talker-p245_sex-f_text-_eight_.wav,p245,f,5,11,4.0,7.0,RX81,6,0.0,0.0,7.0,80.34149293193903,babble-reversed_n13_p256-eight-p318-two-p307-five-p245-four-p268-nine-p284-one.wav,2,RX81,3,0.0,0.0,4.0,87.57049330475357,mgb_normalisation,87.57049330475357,90.34149293193902,8,9.0,False,2.124829769134521
,2024-07-18 14:20:12,sub_114,3,distance,cathedral,spatial_unmasking,2,46,0,0,_five_,talker-p245_sex-f_text-_five_.wav,p245,f,5,12,4.0,7.0,RX81,6,0.0,0.0,7.0,81.34149293193902,babble-reversed_n13_p256-three-p318-one-p307-two-p284-nine-p268-four-p245-eight.wav,2,RX81,3,0.0,0.0,4.0,87.57049330475357,mgb_normalisation,87.57049330475357,90.34149293193902,5,5.0,True,1.2485835552215576
,2024-07-18 14:20:15,sub_114,3,distance,cathedral,spatial_unmasking,2,47,0,0,_two_,talker-p245_sex-f_text-_two_.wav,p245,f,5,13,4.0,7.0,RX81,6,0.0,0.0,7.0,81.341492931939,babble-reversed_n13_p229-five-p256-three-p318-nine-p248-two-p284-four-p268-one.wav,2,RX81,3,0.0,0.0,4.0,87.57049330475357,mgb_normalisation,87.57049330475357,90.34149293193902,2,2.0,True,1.0000567436218262
,2024-07-18 14:20:19,sub_114,3,distance,cathedral,spatial_unmasking,2,48,0,0,_one_,talker-p245_sex-f_text-_one_.wav,p245,f,5,14,4.0,7.0,RX81,6,0.0,0.0,7.0,80.341492931939,babble-reversed_n13_p256-eight-p229-three-p307-nine-p245-five-p248-four-p268-two.wav,2,RX81,3,0.0,0.0,4.0,87.57049330475355,mgb_normalisation,87.57049330475357,90.34149293193902,1,1.0,True,1.189406394958496
,2024-07-18 14:20:23,sub_114,3,distance,cathedral,spatial_unmasking,2,49,0,0,_one_,talker-p245_sex-f_text-_one_.wav,p245,f,5,15,4.0,7.0,RX81,6,0.0,0.0,7.0,80.341492931939,babble-reversed_n13_p256-four-p307-eight-p318-two-p248-three-p284-nine-p268-one.wav,2,RX81,3,0.0,0.0,4.0,87.57049330475357,mgb_normalisation,87.57049330475357,90.34149293193902,1,1.0,True,2.0622096061706543
,2024-07-18 14:20:28,sub_114,3,distance,cathedral,spatial_unmasking,2,50,0,0,_one_,talker-p245_sex-f_text-_one_.wav,p245,f,5,16,4.0,7.0,RX81,6,0.0,0.0,7.0,79.341492931939,babble-reversed_n13_p256-eight-p229-three-p307-nine-p245-five-p248-four-p268-two.wav,2,RX81,3,0.0,0.0,4.0,87.57049330475355,mgb_normalisation,87.57049330475357,90.34149293193902,1,4.0,False,2.126105785369873
,2024-07-18 14:20:32,sub_114,3,distance,cathedral,spatial_unmasking,2,51,0,0,_three_,talker-p245_sex-f_text-_three_.wav,p245,f,5,17,4.0,7.0,RX81,6,0.0,0.0,7.0,80.34149293193903,babble-reversed_n13_p229-one-p318-eight-p256-three-p268-two-p245-five-p248-nine.wav,2,RX81,3,0.0,0.0,4.0,87.57049330475355,mgb_normalisation,87.57049330475357,90.34149293193902,3,5.0,False,1.5002174377441406
,2024-07-18 14:20:37,sub_114,3,distance,cathedral,spatial_unmasking,2,52,0,0,_four_,talker-p245_sex-f_text-_four_.wav,p245,f,5,18,4.0,7.0,RX81,6,0.0,0.0,7.0,81.34149293193902,babble-reversed_n13_p256-four-p307-eight-p318-two-p248-three-p284-nine-p268-one.wav,2,RX81,3,0.0,0.0,4.0,87.57049330475357,mgb_normalisation,87.57049330475357,90.34149293193902,4,6.0,False,2.687999963760376
,2024-07-18 14:20:41,sub_114,3,distance,cathedral,spatial_unmasking,2,53,0,0,_two_,talker-p245_sex-f_text-_two_.wav,p245,f,5,19,4.0,7.0,RX81,6,0.0,0.0,7.0,82.341492931939,babble-reversed_n13_p229-one-p318-eight-p256-three-p268-nine-p248-five-p284-four.wav,2,RX81,3,0.0,0.0,4.0,87.57049330475357,mgb_normalisation,87.57049330475357,90.34149293193902,2,2.0,True,1.4375531673431396
,2024-07-18 14:20:44,sub_114,3,distance,cathedral,spatial_unmasking,2,54,0,0,_nine_,talker-p245_sex-f_text-_nine_.wav,p245,f,5,20,4.0,7.0,RX81,6,0.0,0.0,7.0,82.34149293193902,babble-reversed_n13_p307-one-p318-five-p229-four-p268-eight-p284-two-p245-three.wav,2,RX81,3,0.0,0.0,4.0,87.57049330475355,mgb_normalisation,87.57049330475357,90.34149293193902,9,9.0,True,1.4375805854797363
,2024-07-18 14:20:48,sub_114,3,distance,cathedral,spatial_unmasking,2,55,0,0,_three_,talker-p245_sex-f_text-_three_.wav,p245,f,5,21,4.0,7.0,RX81,6,0.0,0.0,7.0,81.34149293193902,babble-reversed_n13_p318-three-p307-one-p256-five-p248-nine-p245-two-p284-eight.wav,2,RX81,3,0.0,0.0,4.0,87.57049330475357,mgb_normalisation,87.57049330475357,90.34149293193902,3,3.0,True,1.500540018081665
,2024-07-18 14:20:53,sub_114,3,distance,cathedral,spatial_unmasking,2,56,0,0,_four_,talker-p245_sex-f_text-_four_.wav,p245,f,5,22,4.0,7.0,RX81,6,0.0,0.0,7.0,81.34149293193902,babble-reversed_n13_p256-five-p307-nine-p318-three-p284-eight-p268-one-p248-two.wav,2,RX81,3,0.0,0.0,4.0,87.57049330475357,mgb_normalisation,87.57049330475357,90.34149293193902,4,9.0,False,1.8139050006866453
,2024-07-18 14:20:57,sub_114,3,distance,cathedral,spatial_unmasking,2,57,0,0,_four_,talker-p245_sex-f_text-_four_.wav,p245,f,5,23,4.0,7.0,RX81,6,0.0,0.0,7.0,82.34149293193902,babble-reversed_n13_p318-five-p229-three-p256-four-p268-eight-p248-one-p245-nine.wav,2,RX81,3,0.0,0.0,4.0,87.57049330475357,mgb_normalisation,87.57049330475357,90.34149293193902,4,9.0,False,1.81389594078064
,2024-07-18 14:21:00,sub_114,3,distance,cathedral,spatial_unmasking,2,58,0,0,_three_,talker-p245_sex-f_text-_three_.wav,p245,f,5,24,4.0,7.0,RX81,6,0.0,0.0,7.0,83.34149293193903,babble-reversed_n13_p229-one-p318-nine-p256-four-p284-eight-p268-five-p245-two.wav,2,RX81,3,0.0,0.0,4.0,87.57049330475357,mgb_normalisation,87.57049330475357,90.34149293193902,3,3.0,True,1.1875660419464111
,2024-07-18 14:21:04,sub_114,3,distance,cathedral,spatial_unmasking,2,59,0,0,_five_,talker-p245_sex-f_text-_five_.wav,p245,f,5,25,4.0,7.0,RX81,6,0.0,0.0,7.0,83.34149293193902,babble-reversed_n13_p229-one-p318-eight-p256-three-p268-nine-p248-five-p284-four.wav,2,RX81,3,0.0,0.0,4.0,87.57049330475357,mgb_normalisation,87.57049330475357,90.34149293193902,5,5.0,True,1.0000555515289309
,2024-07-18 14:21:07,sub_114,3,distance,cathedral,spatial_unmasking,2,60,0,0,_two_,talker-p245_sex-f_text-_two_.wav,p245,f,5,26,4.0,7.0,RX81,6,0.0,0.0,7.0,82.341492931939,babble-reversed_n13_p256-two-p307-five-p318-nine-p248-eight-p245-four-p284-one.wav,2,RX81,3,0.0,0.0,4.0,87.57049330475357,mgb_normalisation,87.57049330475357,90.34149293193902,2,2.0,True,0.9995219707489014
,2024-07-18 14:21:12,sub_114,3,distance,cathedral,spatial_unmasking,2,61,0,0,_four_,talker-p245_sex-f_text-_four_.wav,p245,f,5,27,4.0,7.0,RX81,6,0.0,0.0,7.0,82.34149293193902,babble-reversed_n13_p307-five-p229-three-p318-nine-p245-four-p268-eight-p284-two.wav,2,RX81,3,0.0,0.0,4.0,87.57049330475355,mgb_normalisation,87.57049330475357,90.34149293193902,4,3.0,False,2.435359477996826
,2024-07-18 14:22:45,sub_114,3,distance,cathedral,spatial_unmasking,2,62,0,0,_four_,talker-p245_sex-f_text-_four_.wav,p245,f,5,28,4.0,7.0,RX81,6,0.0,0.0,7.0,83.34149293193903,babble-reversed_n13_p256-eight-p318-two-p307-five-p245-four-p268-nine-p284-one.wav,2,RX81,3,0.0,0.0,4.0,87.57049330475357,mgb_normalisation,87.57049330475357,90.34149293193902,4,9.0,False,90.3102879524231
,2024-07-18 14:22:49,sub_114,3,distance,cathedral,spatial_unmasking,2,63,0,0,_two_,talker-p245_sex-f_text-_two_.wav,p245,f,5,29,4.0,7.0,RX81,6,0.0,0.0,7.0,84.341492931939,babble-reversed_n13_p318-five-p256-nine-p307-eight-p248-two-p245-four-p284-three.wav,2,RX81,3,0.0,0.0,4.0,87.57049330475357,mgb_normalisation,87.57049330475357,90.34149293193902,2,2.0,True,1.494264841079712
,2024-07-18 14:22:52,sub_114,3,distance,cathedral,spatial_unmasking,2,64,0,0,_four_,talker-p245_sex-f_text-_four_.wav,p245,f,5,30,4.0,7.0,RX81,6,0.0,0.0,7.0,84.34149293193903,babble-reversed_n13_p229-eight-p256-nine-p318-four-p245-three-p268-five-p284-two.wav,2,RX81,3,0.0,0.0,4.0,87.57049330475355,mgb_normalisation,87.57049330475357,90.34149293193902,4,4.0,True,1.2474515438079834
,2024-07-18 14:24:47,sub_114,3,distance,cathedral,spatial_unmasking,3,65,0,0,_three_,talker-p245_sex-f_text-_three_.wav,p245,f,5,1,7.0,7.0,RX81,6,0.0,0.0,7.0,92.34149293193902,babble-reversed_n13_p229-one-p318-eight-p256-three-p268-nine-p248-five-p284-four.wav,5,RX81,6,0.0,0.0,7.0,90.341492931939,mgb_normalisation,90.34149293193902,90.34149293193902,3,3.0,True,1.623795747756958
,2024-07-18 14:24:51,sub_114,3,distance,cathedral,spatial_unmasking,3,66,0,0,_three_,talker-p245_sex-f_text-_three_.wav,p245,f,5,2,7.0,7.0,RX81,6,0.0,0.0,7.0,88.34149293193903,babble-reversed_n13_p307-four-p318-three-p256-eight-p284-two-p245-nine-p248-five.wav,5,RX81,6,0.0,0.0,7.0,90.341492931939,mgb_normalisation,90.34149293193902,90.34149293193902,3,3.0,True,1.17185378074646
,2024-07-18 14:24:54,sub_114,3,distance,cathedral,spatial_unmasking,3,67,0,0,_four_,talker-p245_sex-f_text-_four_.wav,p245,f,5,3,7.0,7.0,RX81,6,0.0,0.0,7.0,84.34149293193903,babble-reversed_n13_p318-three-p307-one-p256-five-p248-nine-p245-two-p284-eight.wav,5,RX81,6,0.0,0.0,7.0,90.34149293193904,mgb_normalisation,90.34149293193902,90.34149293193902,4,4.0,True,1.3760454654693604
,2024-07-18 14:24:59,sub_114,3,distance,cathedral,spatial_unmasking,3,68,0,0,_four_,talker-p245_sex-f_text-_four_.wav,p245,f,5,4,7.0,7.0,RX81,6,0.0,0.0,7.0,80.34149293193903,babble-reversed_n13_p307-nine-p318-two-p256-one-p245-three-p268-four-p248-eight.wav,5,RX81,6,0.0,0.0,7.0,90.341492931939,mgb_normalisation,90.34149293193902,90.34149293193902,4,4.0,True,1.937774419784546
,2024-07-18 14:25:02,sub_114,3,distance,cathedral,spatial_unmasking,3,69,0,0,_five_,talker-p245_sex-f_text-_five_.wav,p245,f,5,5,7.0,7.0,RX81,6,0.0,0.0,7.0,76.34149293193902,babble-reversed_n13_p318-five-p229-four-p256-eight-p284-one-p245-three-p248-two.wav,5,RX81,6,0.0,0.0,7.0,90.34149293193904,mgb_normalisation,90.34149293193902,90.34149293193902,5,5.0,True,1.2500240802764893
,2024-07-18 14:25:06,sub_114,3,distance,cathedral,spatial_unmasking,3,70,0,0,_six_,talker-p245_sex-f_text-_six_.wav,p245,f,5,6,7.0,7.0,RX81,6,0.0,0.0,7.0,72.34149293193902,babble-reversed_n13_p256-eight-p229-three-p307-nine-p245-five-p248-four-p268-two.wav,5,RX81,6,0.0,0.0,7.0,90.341492931939,mgb_normalisation,90.34149293193902,90.34149293193902,6,6.0,True,1.250025987625122
,2024-07-18 14:25:09,sub_114,3,distance,cathedral,spatial_unmasking,3,71,0,0,_two_,talker-p245_sex-f_text-_two_.wav,p245,f,5,7,7.0,7.0,RX81,6,0.0,0.0,7.0,68.341492931939,babble-reversed_n13_p307-two-p256-four-p318-three-p284-eight-p248-five-p245-nine.wav,5,RX81,6,0.0,0.0,7.0,90.34149293193904,mgb_normalisation,90.34149293193902,90.34149293193902,2,4.0,False,1.3631603717803955
,2024-07-18 14:25:14,sub_114,3,distance,cathedral,spatial_unmasking,3,72,0,0,_two_,talker-p245_sex-f_text-_two_.wav,p245,f,5,8,7.0,7.0,RX81,6,0.0,0.0,7.0,70.341492931939,babble-reversed_n13_p256-five-p307-nine-p318-three-p284-eight-p268-one-p248-two.wav,5,RX81,6,0.0,0.0,7.0,90.34149293193904,mgb_normalisation,90.34149293193902,90.34149293193902,2,4.0,False,2.376351356506348
,2024-07-18 14:25:18,sub_114,3,distance,cathedral,spatial_unmasking,3,73,0,0,_three_,talker-p245_sex-f_text-_three_.wav,p245,f,5,9,7.0,7.0,RX81,6,0.0,0.0,7.0,72.34149293193903,babble-reversed_n13_p318-nine-p307-eight-p229-two-p284-one-p248-three-p245-five.wav,5,RX81,6,0.0,0.0,7.0,90.34149293193904,mgb_normalisation,90.34149293193902,90.34149293193902,3,3.0,True,1.877281904220581
,2024-07-18 14:25:22,sub_114,3,distance,cathedral,spatial_unmasking,3,74,0,0,_five_,talker-p245_sex-f_text-_five_.wav,p245,f,5,10,7.0,7.0,RX81,6,0.0,0.0,7.0,72.34149293193902,babble-reversed_n13_p318-five-p256-nine-p307-two-p245-eight-p248-one-p284-four.wav,5,RX81,6,0.0,0.0,7.0,90.34149293193904,mgb_normalisation,90.34149293193902,90.34149293193902,5,5.0,True,1.5000293254852295
,2024-07-18 14:25:26,sub_114,3,distance,cathedral,spatial_unmasking,3,75,0,0,_two_,talker-p245_sex-f_text-_two_.wav,p245,f,5,11,7.0,7.0,RX81,6,0.0,0.0,7.0,70.341492931939,babble-reversed_n13_p229-five-p256-one-p318-three-p248-nine-p268-four-p284-eight.wav,5,RX81,6,0.0,0.0,7.0,90.341492931939,mgb_normalisation,90.34149293193902,90.34149293193902,2,6.0,False,1.500030755996704
,2024-07-18 14:25:30,sub_114,3,distance,cathedral,spatial_unmasking,3,76,0,0,_three_,talker-p245_sex-f_text-_three_.wav,p245,f,5,12,7.0,7.0,RX81,6,0.0,0.0,7.0,71.34149293193902,babble-reversed_n13_p229-one-p318-eight-p256-three-p268-nine-p248-five-p284-four.wav,5,RX81,6,0.0,0.0,7.0,90.341492931939,mgb_normalisation,90.34149293193902,90.34149293193902,3,6.0,False,2.062873363494873
,2024-07-18 14:27:28,sub_114,3,distance,cathedral,spatial_unmasking,3,77,0,0,_eight_,talker-p245_sex-f_text-_eight_.wav,p245,f,5,13,7.0,7.0,RX81,6,0.0,0.0,7.0,72.34149293193902,babble-reversed_n13_p318-one-p307-two-p256-eight-p284-three-p248-five-p245-four.wav,5,RX81,6,0.0,0.0,7.0,90.34149293193904,mgb_normalisation,90.34149293193902,90.34149293193902,8,8.0,True,115.29750347137453
,2024-07-18 14:27:34,sub_114,3,distance,cathedral,spatial_unmasking,3,78,0,0,_six_,talker-p245_sex-f_text-_six_.wav,p245,f,5,14,7.0,7.0,RX81,6,0.0,0.0,7.0,72.34149293193902,babble-reversed_n13_p256-five-p307-nine-p318-three-p284-eight-p268-one-p248-two.wav,5,RX81,6,0.0,0.0,7.0,90.34149293193904,mgb_normalisation,90.34149293193902,90.34149293193902,6,9.0,False,3.687311887741089
,2024-07-18 14:27:37,sub_114,3,distance,cathedral,spatial_unmasking,3,79,0,0,_one_,talker-p245_sex-f_text-_one_.wav,p245,f,5,15,7.0,7.0,RX81,6,0.0,0.0,7.0,73.341492931939,babble-reversed_n13_p256-three-p318-one-p307-two-p284-nine-p268-four-p245-eight.wav,5,RX81,6,0.0,0.0,7.0,90.34149293193904,mgb_normalisation,90.34149293193902,90.34149293193902,1,9.0,False,1.5631911754608154
,2024-07-18 14:27:42,sub_114,3,distance,cathedral,spatial_unmasking,3,80,0,0,_eight_,talker-p245_sex-f_text-_eight_.wav,p245,f,5,16,7.0,7.0,RX81,6,0.0,0.0,7.0,74.34149293193902,babble-reversed_n13_p229-two-p318-eight-p256-three-p268-one-p248-nine-p284-five.wav,5,RX81,6,0.0,0.0,7.0,90.341492931939,mgb_normalisation,90.34149293193902,90.34149293193902,8,9.0,False,2.000039339065552
,2024-07-18 14:27:46,sub_114,3,distance,cathedral,spatial_unmasking,3,81,0,0,_six_,talker-p245_sex-f_text-_six_.wav,p245,f,5,17,7.0,7.0,RX81,6,0.0,0.0,7.0,75.34149293193902,babble-reversed_n13_p318-nine-p307-eight-p229-two-p284-one-p248-three-p245-five.wav,5,RX81,6,0.0,0.0,7.0,90.34149293193904,mgb_normalisation,90.34149293193902,90.34149293193902,6,6.0,True,1.8750369548797607
,2024-07-18 14:27:51,sub_114,3,distance,cathedral,spatial_unmasking,3,82,0,0,_six_,talker-p245_sex-f_text-_six_.wav,p245,f,5,18,7.0,7.0,RX81,6,0.0,0.0,7.0,75.34149293193902,babble-reversed_n13_p307-five-p229-three-p318-nine-p245-four-p268-eight-p284-two.wav,5,RX81,6,0.0,0.0,7.0,90.341492931939,mgb_normalisation,90.34149293193902,90.34149293193902,6,5.0,False,3.249566078186035
,2024-07-18 14:27:56,sub_114,3,distance,cathedral,spatial_unmasking,3,83,0,0,_one_,talker-p245_sex-f_text-_one_.wav,p245,f,5,19,7.0,7.0,RX81,6,0.0,0.0,7.0,76.34149293193902,babble-reversed_n13_p318-three-p307-one-p256-five-p248-nine-p245-two-p284-eight.wav,5,RX81,6,0.0,0.0,7.0,90.34149293193904,mgb_normalisation,90.34149293193902,90.34149293193902,1,6.0,False,2.6250572204589844
,2024-07-18 14:28:01,sub_114,3,distance,cathedral,spatial_unmasking,3,84,0,0,_eight_,talker-p245_sex-f_text-_eight_.wav,p245,f,5,20,7.0,7.0,RX81,6,0.0,0.0,7.0,77.34149293193902,babble-reversed_n13_p318-three-p229-one-p256-eight-p245-five-p248-four-p284-nine.wav,5,RX81,6,0.0,0.0,7.0,90.34149293193904,mgb_normalisation,90.34149293193902,90.34149293193902,8,8.0,True,1.9375395774841309
,2024-07-18 14:28:04,sub_114,3,distance,cathedral,spatial_unmasking,3,85,0,0,_three_,talker-p245_sex-f_text-_three_.wav,p245,f,5,21,7.0,7.0,RX81,6,0.0,0.0,7.0,77.34149293193903,babble-reversed_n13_p307-two-p229-one-p256-five-p248-nine-p284-three-p268-eight.wav,5,RX81,6,0.0,0.0,7.0,90.34149293193904,mgb_normalisation,90.34149293193902,90.34149293193902,3,9.0,False,1.374389886856079
,2024-07-18 14:28:08,sub_114,3,distance,cathedral,spatial_unmasking,3,86,0,0,_six_,talker-p245_sex-f_text-_six_.wav,p245,f,5,22,7.0,7.0,RX81,6,0.0,0.0,7.0,78.34149293193902,babble-reversed_n13_p307-four-p318-three-p256-eight-p284-two-p245-nine-p248-five.wav,5,RX81,6,0.0,0.0,7.0,90.341492931939,mgb_normalisation,90.34149293193902,90.34149293193902,6,6.0,True,1.3149683475494385
,2024-07-18 14:28:12,sub_114,3,distance,cathedral,spatial_unmasking,3,87,0,0,_nine_,talker-p245_sex-f_text-_nine_.wav,p245,f,5,23,7.0,7.0,RX81,6,0.0,0.0,7.0,78.34149293193902,babble-reversed_n13_p256-eight-p318-five-p307-four-p245-three-p268-one-p284-nine.wav,5,RX81,6,0.0,0.0,7.0,90.341492931939,mgb_normalisation,90.34149293193902,90.34149293193902,9,9.0,True,1.3125755786895752
,2024-07-18 14:28:15,sub_114,3,distance,cathedral,spatial_unmasking,3,88,0,0,_three_,talker-p245_sex-f_text-_three_.wav,p245,f,5,24,7.0,7.0,RX81,6,0.0,0.0,7.0,77.34149293193903,babble-reversed_n13_p229-one-p318-eight-p256-three-p268-two-p245-five-p248-nine.wav,5,RX81,6,0.0,0.0,7.0,90.341492931939,mgb_normalisation,90.34149293193902,90.34149293193902,3,9.0,False,1.312525510787964
,2024-07-18 14:28:19,sub_114,3,distance,cathedral,spatial_unmasking,3,89,0,0,_two_,talker-p245_sex-f_text-_two_.wav,p245,f,5,25,7.0,7.0,RX81,6,0.0,0.0,7.0,78.341492931939,babble-reversed_n13_p256-eight-p229-three-p307-nine-p245-five-p248-four-p268-two.wav,5,RX81,6,0.0,0.0,7.0,90.341492931939,mgb_normalisation,90.34149293193902,90.34149293193902,2,2.0,True,1.6888811588287354
,2024-07-18 14:28:23,sub_114,3,distance,cathedral,spatial_unmasking,3,90,0,0,_two_,talker-p245_sex-f_text-_two_.wav,p245,f,5,26,7.0,7.0,RX81,6,0.0,0.0,7.0,78.341492931939,babble-reversed_n13_p229-three-p307-one-p318-two-p245-eight-p268-five-p284-four.wav,5,RX81,6,0.0,0.0,7.0,90.34149293193904,mgb_normalisation,90.34149293193902,90.34149293193902,2,4.0,False,1.9360063076019287
,2024-07-18 14:28:27,sub_114,3,distance,cathedral,spatial_unmasking,3,91,0,0,_two_,talker-p245_sex-f_text-_two_.wav,p245,f,5,27,7.0,7.0,RX81,6,0.0,0.0,7.0,79.341492931939,babble-reversed_n13_p256-three-p318-two-p229-nine-p248-four-p284-one-p268-eight.wav,5,RX81,6,0.0,0.0,7.0,90.341492931939,mgb_normalisation,90.34149293193902,90.34149293193902,2,2.0,True,1.562532901763916
,2024-07-18 14:28:32,sub_114,3,distance,cathedral,spatial_unmasking,3,92,0,0,_two_,talker-p245_sex-f_text-_two_.wav,p245,f,5,28,7.0,7.0,RX81,6,0.0,0.0,7.0,79.341492931939,babble-reversed_n13_p256-three-p318-two-p229-nine-p248-four-p284-one-p268-eight.wav,5,RX81,6,0.0,0.0,7.0,90.341492931939,mgb_normalisation,90.34149293193902,90.34149293193902,2,2.0,True,2.687605142593384
,2024-07-18 14:28:37,sub_114,3,distance,cathedral,spatial_unmasking,3,93,0,0,_nine_,talker-p245_sex-f_text-_nine_.wav,p245,f,5,29,7.0,7.0,RX81,6,0.0,0.0,7.0,78.34149293193902,babble-reversed_n13_p229-two-p307-five-p318-four-p284-one-p248-nine-p268-eight.wav,5,RX81,6,0.0,0.0,7.0,90.34149293193904,mgb_normalisation,90.34149293193902,90.34149293193902,9,5.0,False,2.6250522136688232
,2024-07-18 14:28:41,sub_114,3,distance,cathedral,spatial_unmasking,3,94,0,0,_three_,talker-p245_sex-f_text-_three_.wav,p245,f,5,30,7.0,7.0,RX81,6,0.0,0.0,7.0,79.34149293193902,babble-reversed_n13_p229-five-p318-two-p307-eight-p268-three-p248-four-p245-one.wav,5,RX81,6,0.0,0.0,7.0,90.34149293193904,mgb_normalisation,90.34149293193902,90.34149293193902,3,4.0,False,1.3749961853027344
,2024-07-18 14:28:45,sub_114,3,distance,cathedral,spatial_unmasking,3,95,0,0,_four_,talker-p245_sex-f_text-_four_.wav,p245,f,5,31,7.0,7.0,RX81,6,0.0,0.0,7.0,80.34149293193903,babble-reversed_n13_p307-nine-p318-two-p256-one-p245-three-p268-four-p248-eight.wav,5,RX81,6,0.0,0.0,7.0,90.341492931939,mgb_normalisation,90.34149293193902,90.34149293193902,4,4.0,True,1.5615835189819336
,2024-07-18 14:28:48,sub_114,3,distance,cathedral,spatial_unmasking,3,96,0,0,_six_,talker-p245_sex-f_text-_six_.wav,p245,f,5,32,7.0,7.0,RX81,6,0.0,0.0,7.0,80.341492931939,babble-reversed_n13_p318-five-p229-three-p256-four-p268-eight-p248-one-p245-nine.wav,5,RX81,6,0.0,0.0,7.0,90.34149293193904,mgb_normalisation,90.34149293193902,90.34149293193902,6,6.0,True,1.245084524154663
,2024-07-18 14:28:52,sub_114,3,distance,cathedral,spatial_unmasking,3,97,0,0,_two_,talker-p245_sex-f_text-_two_.wav,p245,f,5,33,7.0,7.0,RX81,6,0.0,0.0,7.0,79.341492931939,babble-reversed_n13_p229-five-p256-one-p318-three-p248-nine-p268-four-p284-eight.wav,5,RX81,6,0.0,0.0,7.0,90.341492931939,mgb_normalisation,90.34149293193902,90.34149293193902,2,3.0,False,1.8125367164611816
,2024-07-18 14:28:56,sub_114,3,distance,cathedral,spatial_unmasking,3,98,0,0,_two_,talker-p245_sex-f_text-_two_.wav,p245,f,5,34,7.0,7.0,RX81,6,0.0,0.0,7.0,80.341492931939,babble-reversed_n13_p307-one-p318-five-p229-four-p268-eight-p284-two-p245-three.wav,5,RX81,6,0.0,0.0,7.0,90.341492931939,mgb_normalisation,90.34149293193902,90.34149293193902,2,2.0,True,1.1875228881835938
,2024-07-18 14:28:59,sub_114,3,distance,cathedral,spatial_unmasking,3,99,0,0,_three_,talker-p245_sex-f_text-_three_.wav,p245,f,5,35,7.0,7.0,RX81,6,0.0,0.0,7.0,80.34149293193903,babble-reversed_n13_p229-three-p307-one-p318-two-p245-eight-p268-five-p284-four.wav,5,RX81,6,0.0,0.0,7.0,90.34149293193904,mgb_normalisation,90.34149293193902,90.34149293193902,3,3.0,True,1.3135130405426023
,2024-07-18 14:29:03,sub_114,3,distance,cathedral,spatial_unmasking,3,100,0,0,_eight_,talker-p245_sex-f_text-_eight_.wav,p245,f,5,36,7.0,7.0,RX81,6,0.0,0.0,7.0,79.34149293193902,babble-reversed_n13_p229-nine-p318-one-p307-two-p248-eight-p245-five-p284-four.wav,5,RX81,6,0.0,0.0,7.0,90.34149293193904,mgb_normalisation,90.34149293193902,90.34149293193902,8,9.0,False,1.3750531673431396
,2024-07-18 14:29:07,sub_114,3,distance,cathedral,spatial_unmasking,3,101,0,0,_six_,talker-p245_sex-f_text-_six_.wav,p245,f,5,37,7.0,7.0,RX81,6,0.0,0.0,7.0,80.341492931939,babble-reversed_n13_p256-two-p307-five-p318-nine-p248-eight-p245-four-p284-one.wav,5,RX81,6,0.0,0.0,7.0,90.34149293193904,mgb_normalisation,90.34149293193902,90.34149293193902,6,6.0,True,1.263507843017578
,2024-07-18 14:29:10,sub_114,3,distance,cathedral,spatial_unmasking,3,102,0,0,_one_,talker-p245_sex-f_text-_one_.wav,p245,f,5,38,7.0,7.0,RX81,6,0.0,0.0,7.0,80.341492931939,babble-reversed_n13_p318-three-p229-one-p256-eight-p245-five-p248-four-p284-nine.wav,5,RX81,6,0.0,0.0,7.0,90.34149293193904,mgb_normalisation,90.34149293193902,90.34149293193902,1,1.0,True,1.3204538822174072
,2024-07-18 14:30:45,sub_114,3,distance,cathedral,spatial_unmasking,4,103,0,0,_five_,talker-p245_sex-f_text-_five_.wav,p245,f,5,1,6.0,7.0,RX81,6,0.0,0.0,7.0,92.34149293193902,babble-reversed_n13_p229-five-p318-three-p307-two-p245-four-p284-nine-p248-eight.wav,4,RX81,5,0.0,0.0,6.0,89.31368318402099,mgb_normalisation,89.31368318402099,90.34149293193902,5,5.0,True,1.125492811203003
,2024-07-18 14:30:48,sub_114,3,distance,cathedral,spatial_unmasking,4,104,0,0,_one_,talker-p245_sex-f_text-_one_.wav,p245,f,5,2,6.0,7.0,RX81,6,0.0,0.0,7.0,88.34149293193902,babble-reversed_n13_p256-four-p229-two-p318-five-p268-one-p248-eight-p245-three.wav,4,RX81,5,0.0,0.0,6.0,89.31368318402099,mgb_normalisation,89.31368318402099,90.34149293193902,1,1.0,True,1.1279220581054688
,2024-07-18 14:30:52,sub_114,3,distance,cathedral,spatial_unmasking,4,105,0,0,_four_,talker-p245_sex-f_text-_four_.wav,p245,f,5,3,6.0,7.0,RX81,6,0.0,0.0,7.0,84.34149293193903,babble-reversed_n13_p256-eight-p318-five-p307-four-p245-three-p268-one-p284-nine.wav,4,RX81,5,0.0,0.0,6.0,89.31368318402099,mgb_normalisation,89.31368318402099,90.34149293193902,4,4.0,True,1.8750367164611816
,2024-07-18 14:30:57,sub_114,3,distance,cathedral,spatial_unmasking,4,106,0,0,_five_,talker-p245_sex-f_text-_five_.wav,p245,f,5,4,6.0,7.0,RX81,6,0.0,0.0,7.0,80.34149293193903,babble-reversed_n13_p256-five-p229-one-p318-three-p248-nine-p284-eight-p268-two.wav,4,RX81,5,0.0,0.0,6.0,89.31368318402099,mgb_normalisation,89.31368318402099,90.34149293193902,5,5.0,True,1.937537670135498
,2024-07-18 14:31:01,sub_114,3,distance,cathedral,spatial_unmasking,4,107,0,0,_four_,talker-p245_sex-f_text-_four_.wav,p245,f,5,5,6.0,7.0,RX81,6,0.0,0.0,7.0,76.34149293193903,babble-reversed_n13_p256-four-p229-eight-p307-five-p248-three-p245-one-p284-two.wav,4,RX81,5,0.0,0.0,6.0,89.31368318402099,mgb_normalisation,89.31368318402099,90.34149293193902,4,1.0,False,1.625030279159546
,2024-07-18 14:31:04,sub_114,3,distance,cathedral,spatial_unmasking,4,108,0,0,_two_,talker-p245_sex-f_text-_two_.wav,p245,f,5,6,6.0,7.0,RX81,6,0.0,0.0,7.0,78.341492931939,babble-reversed_n13_p256-eight-p318-five-p307-four-p245-three-p268-one-p284-nine.wav,4,RX81,5,0.0,0.0,6.0,89.31368318402099,mgb_normalisation,89.31368318402099,90.34149293193902,2,2.0,True,1.310093641281128
,2024-07-18 14:31:08,sub_114,3,distance,cathedral,spatial_unmasking,4,109,0,0,_nine_,talker-p245_sex-f_text-_nine_.wav,p245,f,5,7,6.0,7.0,RX81,6,0.0,0.0,7.0,78.34149293193902,babble-reversed_n13_p307-two-p229-one-p256-five-p248-nine-p284-three-p268-eight.wav,4,RX81,5,0.0,0.0,6.0,89.313683184021,mgb_normalisation,89.31368318402099,90.34149293193902,9,3.0,False,1.375664234161377
,2024-07-18 14:31:12,sub_114,3,distance,cathedral,spatial_unmasking,4,110,0,0,_four_,talker-p245_sex-f_text-_four_.wav,p245,f,5,8,6.0,7.0,RX81,6,0.0,0.0,7.0,80.34149293193903,babble-reversed_n13_p307-nine-p318-two-p256-one-p245-three-p268-four-p248-eight.wav,4,RX81,5,0.0,0.0,6.0,89.31368318402099,mgb_normalisation,89.31368318402099,90.34149293193902,4,4.0,True,1.187523603439331
,2024-07-18 14:31:16,sub_114,3,distance,cathedral,spatial_unmasking,4,111,0,0,_two_,talker-p245_sex-f_text-_two_.wav,p245,f,5,9,6.0,7.0,RX81,6,0.0,0.0,7.0,80.341492931939,babble-reversed_n13_p307-two-p229-one-p256-five-p248-nine-p284-three-p268-eight.wav,4,RX81,5,0.0,0.0,6.0,89.313683184021,mgb_normalisation,89.31368318402099,90.34149293193902,2,2.0,True,1.5625333786010742
,2024-07-18 14:31:19,sub_114,3,distance,cathedral,spatial_unmasking,4,112,0,0,_two_,talker-p245_sex-f_text-_two_.wav,p245,f,5,10,6.0,7.0,RX81,6,0.0,0.0,7.0,78.341492931939,babble-reversed_n13_p229-three-p256-nine-p318-five-p248-one-p245-eight-p284-two.wav,4,RX81,5,0.0,0.0,6.0,89.31368318402099,mgb_normalisation,89.31368318402099,90.34149293193902,2,9.0,False,1.1877095699310305
,2024-07-18 14:31:23,sub_114,3,distance,cathedral,spatial_unmasking,4,113,0,0,_nine_,talker-p245_sex-f_text-_nine_.wav,p245,f,5,11,6.0,7.0,RX81,6,0.0,0.0,7.0,79.34149293193902,babble-reversed_n13_p318-five-p256-nine-p307-eight-p248-two-p245-four-p284-three.wav,4,RX81,5,0.0,0.0,6.0,89.31368318402099,mgb_normalisation,89.31368318402099,90.34149293193902,9,2.0,False,1.06252121925354
,2024-07-18 14:31:27,sub_114,3,distance,cathedral,spatial_unmasking,4,114,0,0,_nine_,talker-p245_sex-f_text-_nine_.wav,p245,f,5,12,6.0,7.0,RX81,6,0.0,0.0,7.0,80.34149293193903,babble-reversed_n13_p307-five-p229-three-p318-nine-p245-four-p268-eight-p284-two.wav,4,RX81,5,0.0,0.0,6.0,89.31368318402099,mgb_normalisation,89.31368318402099,90.34149293193902,9,3.0,False,1.4375278949737549
,2024-07-18 14:31:30,sub_114,3,distance,cathedral,spatial_unmasking,4,115,0,0,_five_,talker-p245_sex-f_text-_five_.wav,p245,f,5,13,6.0,7.0,RX81,6,0.0,0.0,7.0,81.34149293193902,babble-reversed_n13_p229-three-p256-nine-p318-five-p248-one-p245-eight-p284-two.wav,4,RX81,5,0.0,0.0,6.0,89.31368318402099,mgb_normalisation,89.31368318402099,90.34149293193902,5,9.0,False,1.312525987625122
,2024-07-18 14:31:34,sub_114,3,distance,cathedral,spatial_unmasking,4,116,0,0,_eight_,talker-p245_sex-f_text-_eight_.wav,p245,f,5,14,6.0,7.0,RX81,6,0.0,0.0,7.0,82.34149293193902,babble-reversed_n13_p229-five-p256-one-p318-three-p248-nine-p268-four-p284-eight.wav,4,RX81,5,0.0,0.0,6.0,89.31368318402099,mgb_normalisation,89.31368318402099,90.34149293193902,8,2.0,False,1.2500548362731934
,2024-07-18 14:31:38,sub_114,3,distance,cathedral,spatial_unmasking,4,117,0,0,_two_,talker-p245_sex-f_text-_two_.wav,p245,f,5,15,6.0,7.0,RX81,6,0.0,0.0,7.0,83.34149293193902,babble-reversed_n13_p229-five-p318-three-p307-two-p245-four-p284-nine-p248-eight.wav,4,RX81,5,0.0,0.0,6.0,89.31368318402099,mgb_normalisation,89.31368318402099,90.34149293193902,2,2.0,True,1.3750271797180176
,2024-07-18 14:31:41,sub_114,3,distance,cathedral,spatial_unmasking,4,118,0,0,_one_,talker-p245_sex-f_text-_one_.wav,p245,f,5,16,6.0,7.0,RX81,6,0.0,0.0,7.0,83.34149293193902,babble-reversed_n13_p256-three-p318-one-p307-two-p284-nine-p268-four-p245-eight.wav,4,RX81,5,0.0,0.0,6.0,89.31368318402099,mgb_normalisation,89.31368318402099,90.34149293193902,1,1.0,True,1.1875224113464355
,2024-07-18 14:31:45,sub_114,3,distance,cathedral,spatial_unmasking,4,119,0,0,_three_,talker-p245_sex-f_text-_three_.wav,p245,f,5,17,6.0,7.0,RX81,6,0.0,0.0,7.0,82.34149293193902,babble-reversed_n13_p307-five-p229-two-p318-four-p248-three-p245-nine-p268-eight.wav,4,RX81,5,0.0,0.0,6.0,89.31368318402099,mgb_normalisation,89.31368318402099,90.34149293193902,3,3.0,True,1.113455295562744
,2024-07-18 14:31:49,sub_114,3,distance,cathedral,spatial_unmasking,4,120,0,0,_four_,talker-p245_sex-f_text-_four_.wav,p245,f,5,18,6.0,7.0,RX81,6,0.0,0.0,7.0,82.34149293193902,babble-reversed_n13_p229-three-p307-one-p318-two-p245-eight-p268-five-p284-four.wav,4,RX81,5,0.0,0.0,6.0,89.31368318402099,mgb_normalisation,89.31368318402099,90.34149293193902,4,4.0,True,1.495133638381958
,2024-07-18 14:31:53,sub_114,3,distance,cathedral,spatial_unmasking,4,121,0,0,_four_,talker-p245_sex-f_text-_four_.wav,p245,f,5,19,6.0,7.0,RX81,6,0.0,0.0,7.0,81.34149293193902,babble-reversed_n13_p256-eight-p318-five-p307-four-p245-three-p268-one-p284-nine.wav,4,RX81,5,0.0,0.0,6.0,89.31368318402099,mgb_normalisation,89.31368318402099,90.34149293193902,4,4.0,True,1.6250314712524414
,2024-07-18 14:31:56,sub_114,3,distance,cathedral,spatial_unmasking,4,122,0,0,_three_,talker-p245_sex-f_text-_three_.wav,p245,f,5,20,6.0,7.0,RX81,6,0.0,0.0,7.0,81.34149293193902,babble-reversed_n13_p256-five-p229-one-p318-three-p248-nine-p284-eight-p268-two.wav,4,RX81,5,0.0,0.0,6.0,89.31368318402099,mgb_normalisation,89.31368318402099,90.34149293193902,3,3.0,True,1.3125264644622805
,2024-07-18 14:32:00,sub_114,3,distance,cathedral,spatial_unmasking,4,123,0,0,_one_,talker-p245_sex-f_text-_one_.wav,p245,f,5,21,6.0,7.0,RX81,6,0.0,0.0,7.0,80.341492931939,babble-reversed_n13_p229-two-p318-eight-p256-three-p268-one-p248-nine-p284-five.wav,4,RX81,5,0.0,0.0,6.0,89.31368318402099,mgb_normalisation,89.31368318402099,90.34149293193902,1,2.0,False,1.2547600269317627
,2024-07-18 14:32:04,sub_114,3,distance,cathedral,spatial_unmasking,4,124,0,0,_nine_,talker-p245_sex-f_text-_nine_.wav,p245,f,5,22,6.0,7.0,RX81,6,0.0,0.0,7.0,81.34149293193902,babble-reversed_n13_p256-eight-p318-two-p307-five-p245-four-p268-nine-p284-one.wav,4,RX81,5,0.0,0.0,6.0,89.31368318402099,mgb_normalisation,89.31368318402099,90.34149293193902,9,1.0,False,1.3765549659729004
,2024-07-18 14:32:07,sub_114,3,distance,cathedral,spatial_unmasking,4,125,0,0,_five_,talker-p245_sex-f_text-_five_.wav,p245,f,5,23,6.0,7.0,RX81,6,0.0,0.0,7.0,82.34149293193902,babble-reversed_n13_p307-two-p256-four-p318-three-p284-eight-p248-five-p245-nine.wav,4,RX81,5,0.0,0.0,6.0,89.313683184021,mgb_normalisation,89.31368318402099,90.34149293193902,5,5.0,True,1.0625293254852295
,2024-07-18 14:32:11,sub_114,3,distance,cathedral,spatial_unmasking,4,126,0,0,_nine_,talker-p245_sex-f_text-_nine_.wav,p245,f,5,24,6.0,7.0,RX81,6,0.0,0.0,7.0,82.34149293193902,babble-reversed_n13_p256-three-p318-one-p307-two-p284-nine-p268-four-p245-eight.wav,4,RX81,5,0.0,0.0,6.0,89.31368318402099,mgb_normalisation,89.31368318402099,90.34149293193902,9,1.0,False,1.312525987625122
,2024-07-18 14:32:15,sub_114,3,distance,cathedral,spatial_unmasking,4,127,0,0,_two_,talker-p245_sex-f_text-_two_.wav,p245,f,5,25,6.0,7.0,RX81,6,0.0,0.0,7.0,83.34149293193902,babble-reversed_n13_p229-two-p318-eight-p256-three-p268-one-p248-nine-p284-five.wav,4,RX81,5,0.0,0.0,6.0,89.31368318402099,mgb_normalisation,89.31368318402099,90.34149293193902,2,2.0,True,1.128126859664917
,2024-07-18 14:32:18,sub_114,3,distance,cathedral,spatial_unmasking,4,128,0,0,_three_,talker-p245_sex-f_text-_three_.wav,p245,f,5,26,6.0,7.0,RX81,6,0.0,0.0,7.0,83.34149293193903,babble-reversed_n13_p229-three-p256-nine-p318-five-p248-one-p245-eight-p284-two.wav,4,RX81,5,0.0,0.0,6.0,89.31368318402099,mgb_normalisation,89.31368318402099,90.34149293193902,3,3.0,True,1.2502026557922363
,2024-07-18 14:32:22,sub_114,3,distance,cathedral,spatial_unmasking,4,129,0,0,_one_,talker-p245_sex-f_text-_one_.wav,p245,f,5,27,6.0,7.0,RX81,6,0.0,0.0,7.0,82.341492931939,babble-reversed_n13_p229-one-p318-eight-p256-three-p268-nine-p248-five-p284-four.wav,4,RX81,5,0.0,0.0,6.0,89.31368318402099,mgb_normalisation,89.31368318402099,90.34149293193902,1,1.0,True,1.1250228881835938
,2024-07-18 14:32:25,sub_114,3,distance,cathedral,spatial_unmasking,4,130,0,0,_one_,talker-p245_sex-f_text-_one_.wav,p245,f,5,28,6.0,7.0,RX81,6,0.0,0.0,7.0,82.341492931939,babble-reversed_n13_p318-three-p229-one-p256-eight-p245-five-p248-four-p284-nine.wav,4,RX81,5,0.0,0.0,6.0,89.313683184021,mgb_normalisation,89.31368318402099,90.34149293193902,1,1.0,True,1.2500247955322266
,2024-07-18 14:32:29,sub_114,3,distance,cathedral,spatial_unmasking,4,131,0,0,_five_,talker-p245_sex-f_text-_five_.wav,p245,f,5,29,6.0,7.0,RX81,6,0.0,0.0,7.0,81.34149293193902,babble-reversed_n13_p256-eight-p318-five-p307-four-p245-three-p268-one-p284-nine.wav,4,RX81,5,0.0,0.0,6.0,89.31368318402099,mgb_normalisation,89.31368318402099,90.34149293193902,5,5.0,True,1.1879522800445557
,2024-07-18 14:32:33,sub_114,3,distance,cathedral,spatial_unmasking,4,132,0,0,_two_,talker-p245_sex-f_text-_two_.wav,p245,f,5,30,6.0,7.0,RX81,6,0.0,0.0,7.0,81.341492931939,babble-reversed_n13_p307-two-p229-one-p256-five-p248-nine-p284-three-p268-eight.wav,4,RX81,5,0.0,0.0,6.0,89.313683184021,mgb_normalisation,89.31368318402099,90.34149293193902,2,2.0,True,1.062520980834961
,2024-07-18 14:32:36,sub_114,3,distance,cathedral,spatial_unmasking,4,133,0,0,_three_,talker-p245_sex-f_text-_three_.wav,p245,f,5,31,6.0,7.0,RX81,6,0.0,0.0,7.0,80.34149293193903,babble-reversed_n13_p256-eight-p229-three-p307-nine-p245-five-p248-four-p268-two.wav,4,RX81,5,0.0,0.0,6.0,89.31368318402099,mgb_normalisation,89.31368318402099,90.34149293193902,3,3.0,True,1.1250219345092771
,2024-07-18 14:32:39,sub_114,3,distance,cathedral,spatial_unmasking,4,134,0,0,_two_,talker-p245_sex-f_text-_two_.wav,p245,f,5,32,6.0,7.0,RX81,6,0.0,0.0,7.0,80.341492931939,babble-reversed_n13_p318-five-p256-nine-p307-eight-p248-two-p245-four-p284-three.wav,4,RX81,5,0.0,0.0,6.0,89.31368318402099,mgb_normalisation,89.31368318402099,90.34149293193902,2,2.0,True,1.061589002609253
,2024-07-18 14:32:43,sub_114,3,distance,cathedral,spatial_unmasking,4,135,0,0,_five_,talker-p245_sex-f_text-_five_.wav,p245,f,5,33,6.0,7.0,RX81,6,0.0,0.0,7.0,79.34149293193902,babble-reversed_n13_p256-three-p318-two-p229-nine-p248-four-p284-one-p268-eight.wav,4,RX81,5,0.0,0.0,6.0,89.31368318402099,mgb_normalisation,89.31368318402099,90.34149293193902,5,1.0,False,1.1250214576721191
,2024-07-18 14:32:47,sub_114,3,distance,cathedral,spatial_unmasking,4,136,0,0,_one_,talker-p245_sex-f_text-_one_.wav,p245,f,5,34,6.0,7.0,RX81,6,0.0,0.0,7.0,80.341492931939,babble-reversed_n13_p318-nine-p307-eight-p229-two-p284-one-p248-three-p245-five.wav,4,RX81,5,0.0,0.0,6.0,89.31368318402099,mgb_normalisation,89.31368318402099,90.34149293193902,1,1.0,True,1.125016689300537
,2024-07-18 14:32:50,sub_114,3,distance,cathedral,spatial_unmasking,4,137,0,0,_eight_,talker-p245_sex-f_text-_eight_.wav,p245,f,5,35,6.0,7.0,RX81,6,0.0,0.0,7.0,80.34149293193903,babble-reversed_n13_p229-five-p318-two-p307-eight-p268-three-p248-four-p245-one.wav,4,RX81,5,0.0,0.0,6.0,89.313683184021,mgb_normalisation,89.31368318402099,90.34149293193902,8,3.0,False,1.190739631652832
,2024-07-18 14:32:54,sub_114,3,distance,cathedral,spatial_unmasking,4,138,0,0,_two_,talker-p245_sex-f_text-_two_.wav,p245,f,5,36,6.0,7.0,RX81,6,0.0,0.0,7.0,81.341492931939,babble-reversed_n13_p307-nine-p318-two-p256-one-p245-three-p268-four-p248-eight.wav,4,RX81,5,0.0,0.0,6.0,89.31368318402099,mgb_normalisation,89.31368318402099,90.34149293193902,2,2.0,True,1.060838222503662
,2024-07-18 14:32:57,sub_114,3,distance,cathedral,spatial_unmasking,4,139,0,0,_six_,talker-p245_sex-f_text-_six_.wav,p245,f,5,37,6.0,7.0,RX81,6,0.0,0.0,7.0,81.34149293193902,babble-reversed_n13_p256-two-p307-five-p318-nine-p248-eight-p245-four-p284-one.wav,4,RX81,5,0.0,0.0,6.0,89.31368318402099,mgb_normalisation,89.31368318402099,90.34149293193902,6,6.0,True,1.1875810623168943
,2024-07-18 14:33:01,sub_114,3,distance,cathedral,spatial_unmasking,4,140,0,0,_four_,talker-p245_sex-f_text-_four_.wav,p245,f,5,38,6.0,7.0,RX81,6,0.0,0.0,7.0,80.34149293193903,babble-reversed_n13_p318-one-p307-two-p256-eight-p284-three-p248-five-p245-four.wav,4,RX81,5,0.0,0.0,6.0,89.313683184021,mgb_normalisation,89.31368318402099,90.34149293193902,4,3.0,False,1.6875345706939695
,2024-07-18 14:33:05,sub_114,3,distance,cathedral,spatial_unmasking,4,141,0,0,_four_,talker-p245_sex-f_text-_four_.wav,p245,f,5,39,6.0,7.0,RX81,6,0.0,0.0,7.0,81.34149293193902,babble-reversed_n13_p256-eight-p318-two-p307-five-p245-four-p268-nine-p284-one.wav,4,RX81,5,0.0,0.0,6.0,89.31368318402099,mgb_normalisation,89.31368318402099,90.34149293193902,4,1.0,False,1.2379190921783447
,2024-07-18 14:33:09,sub_114,3,distance,cathedral,spatial_unmasking,4,142,0,0,_two_,talker-p245_sex-f_text-_two_.wav,p245,f,5,40,6.0,7.0,RX81,6,0.0,0.0,7.0,82.341492931939,babble-reversed_n13_p307-five-p229-three-p318-nine-p245-four-p268-eight-p284-two.wav,4,RX81,5,0.0,0.0,6.0,89.31368318402099,mgb_normalisation,89.31368318402099,90.34149293193902,2,2.0,True,1.3780710697174072
,2024-07-18 14:33:12,sub_114,3,distance,cathedral,spatial_unmasking,4,143,0,0,_two_,talker-p245_sex-f_text-_two_.wav,p245,f,5,41,6.0,7.0,RX81,6,0.0,0.0,7.0,82.341492931939,babble-reversed_n13_p307-nine-p318-two-p256-one-p245-three-p268-four-p248-eight.wav,4,RX81,5,0.0,0.0,6.0,89.31368318402099,mgb_normalisation,89.31368318402099,90.34149293193902,2,2.0,True,1.0625207424163818
,2024-07-18 14:33:16,sub_114,3,distance,cathedral,spatial_unmasking,4,144,0,0,_four_,talker-p245_sex-f_text-_four_.wav,p245,f,5,42,6.0,7.0,RX81,6,0.0,0.0,7.0,81.34149293193902,babble-reversed_n13_p318-five-p256-nine-p307-two-p245-eight-p248-one-p284-four.wav,4,RX81,5,0.0,0.0,6.0,89.313683184021,mgb_normalisation,89.31368318402099,90.34149293193902,4,4.0,True,1.250025749206543
,2024-07-18 14:33:20,sub_114,3,distance,cathedral,spatial_unmasking,4,145,0,0,_eight_,talker-p245_sex-f_text-_eight_.wav,p245,f,5,43,6.0,7.0,RX81,6,0.0,0.0,7.0,81.34149293193902,babble-reversed_n13_p307-two-p229-one-p256-five-p248-nine-p284-three-p268-eight.wav,4,RX81,5,0.0,0.0,6.0,89.313683184021,mgb_normalisation,89.31368318402099,90.34149293193902,8,3.0,False,1.7469158172607422
,2024-07-18 14:33:24,sub_114,3,distance,cathedral,spatial_unmasking,4,146,0,0,_eight_,talker-p245_sex-f_text-_eight_.wav,p245,f,5,44,6.0,7.0,RX81,6,0.0,0.0,7.0,82.34149293193902,babble-reversed_n13_p318-four-p256-five-p229-three-p284-one-p245-eight-p248-nine.wav,4,RX81,5,0.0,0.0,6.0,89.31368318402099,mgb_normalisation,89.31368318402099,90.34149293193902,8,9.0,False,1.247976779937744
,2024-07-18 14:33:27,sub_114,3,distance,cathedral,spatial_unmasking,4,147,0,0,_three_,talker-p245_sex-f_text-_three_.wav,p245,f,5,45,6.0,7.0,RX81,6,0.0,0.0,7.0,83.34149293193903,babble-reversed_n13_p256-nine-p307-four-p229-one-p284-three-p248-two-p245-five.wav,4,RX81,5,0.0,0.0,6.0,89.31368318402099,mgb_normalisation,89.31368318402099,90.34149293193902,3,3.0,True,1.250025510787964
,2024-07-18 14:33:31,sub_114,3,distance,cathedral,spatial_unmasking,4,148,0,0,_six_,talker-p245_sex-f_text-_six_.wav,p245,f,5,46,6.0,7.0,RX81,6,0.0,0.0,7.0,83.34149293193902,babble-reversed_n13_p229-one-p318-eight-p256-three-p268-nine-p248-five-p284-four.wav,4,RX81,5,0.0,0.0,6.0,89.31368318402099,mgb_normalisation,89.31368318402099,90.34149293193902,6,6.0,True,1.125077724456787
,2024-07-18 14:36:45,sub_114,3,distance,cathedral,spatial_unmasking,5,149,0,0,_five_,talker-p245_sex-f_text-_five_.wav,p245,f,5,1,10.0,7.0,RX81,6,0.0,0.0,7.0,92.34149293193902,babble-reversed_n13_p256-four-p307-eight-p318-two-p248-three-p284-nine-p268-one.wav,8,RX81,9,0.0,0.0,10.0,92.0152836843556,mgb_normalisation,92.0152836843556,90.34149293193902,5,5.0,True,2.1885111331939697
,2024-07-18 14:36:48,sub_114,3,distance,cathedral,spatial_unmasking,5,150,0,0,_one_,talker-p245_sex-f_text-_one_.wav,p245,f,5,2,10.0,7.0,RX81,6,0.0,0.0,7.0,88.34149293193902,babble-reversed_n13_p229-nine-p307-five-p256-two-p248-three-p245-one-p268-eight.wav,8,RX81,9,0.0,0.0,10.0,92.0152836843556,mgb_normalisation,92.0152836843556,90.34149293193902,1,1.0,True,1.1875343322753906
,2024-07-18 14:36:52,sub_114,3,distance,cathedral,spatial_unmasking,5,151,0,0,_six_,talker-p245_sex-f_text-_six_.wav,p245,f,5,3,10.0,7.0,RX81,6,0.0,0.0,7.0,84.341492931939,babble-reversed_n13_p307-five-p229-two-p318-four-p248-three-p245-nine-p268-eight.wav,8,RX81,9,0.0,0.0,10.0,92.0152836843556,mgb_normalisation,92.0152836843556,90.34149293193902,6,6.0,True,0.93751859664917
,2024-07-18 14:36:55,sub_114,3,distance,cathedral,spatial_unmasking,5,152,0,0,_five_,talker-p245_sex-f_text-_five_.wav,p245,f,5,4,10.0,7.0,RX81,6,0.0,0.0,7.0,80.34149293193903,babble-reversed_n13_p229-five-p318-two-p307-eight-p268-three-p248-four-p245-one.wav,8,RX81,9,0.0,0.0,10.0,92.0152836843556,mgb_normalisation,92.0152836843556,90.34149293193902,5,5.0,True,1.124074935913086
,2024-07-18 14:36:59,sub_114,3,distance,cathedral,spatial_unmasking,5,153,0,0,_five_,talker-p245_sex-f_text-_five_.wav,p245,f,5,5,10.0,7.0,RX81,6,0.0,0.0,7.0,76.34149293193902,babble-reversed_n13_p229-two-p307-five-p318-four-p284-one-p248-nine-p268-eight.wav,8,RX81,9,0.0,0.0,10.0,92.0152836843556,mgb_normalisation,92.0152836843556,90.34149293193902,5,9.0,False,1.5619165897369385
,2024-07-18 14:37:03,sub_114,3,distance,cathedral,spatial_unmasking,5,154,0,0,_five_,talker-p245_sex-f_text-_five_.wav,p245,f,5,6,10.0,7.0,RX81,6,0.0,0.0,7.0,78.34149293193902,babble-reversed_n13_p318-four-p256-five-p229-three-p284-one-p245-eight-p248-nine.wav,8,RX81,9,0.0,0.0,10.0,92.0152836843556,mgb_normalisation,92.0152836843556,90.34149293193902,5,9.0,False,1.2500245571136477
,2024-07-18 14:37:08,sub_114,3,distance,cathedral,spatial_unmasking,5,155,0,0,_eight_,talker-p245_sex-f_text-_eight_.wav,p245,f,5,7,10.0,7.0,RX81,6,0.0,0.0,7.0,80.34149293193903,babble-reversed_n13_p229-one-p318-nine-p256-four-p284-eight-p268-five-p245-two.wav,8,RX81,9,0.0,0.0,10.0,92.0152836843556,mgb_normalisation,92.0152836843556,90.34149293193902,8,1.0,False,2.4375479221343994
,2024-07-18 14:37:11,sub_114,3,distance,cathedral,spatial_unmasking,5,156,0,0,_five_,talker-p245_sex-f_text-_five_.wav,p245,f,5,8,10.0,7.0,RX81,6,0.0,0.0,7.0,82.34149293193902,babble-reversed_n13_p307-one-p318-five-p229-four-p268-eight-p284-two-p245-three.wav,8,RX81,9,0.0,0.0,10.0,92.0152836843556,mgb_normalisation,92.0152836843556,90.34149293193902,5,5.0,True,1.0625207424163818
,2024-07-18 14:37:15,sub_114,3,distance,cathedral,spatial_unmasking,5,157,0,0,_one_,talker-p245_sex-f_text-_one_.wav,p245,f,5,9,10.0,7.0,RX81,6,0.0,0.0,7.0,82.341492931939,babble-reversed_n13_p229-two-p307-five-p318-four-p284-one-p248-nine-p268-eight.wav,8,RX81,9,0.0,0.0,10.0,92.0152836843556,mgb_normalisation,92.0152836843556,90.34149293193902,1,6.0,False,1.0623550415039062
,2024-07-18 14:37:18,sub_114,3,distance,cathedral,spatial_unmasking,5,158,0,0,_six_,talker-p245_sex-f_text-_six_.wav,p245,f,5,10,10.0,7.0,RX81,6,0.0,0.0,7.0,84.341492931939,babble-reversed_n13_p229-five-p256-one-p318-three-p248-nine-p268-four-p284-eight.wav,8,RX81,9,0.0,0.0,10.0,92.0152836843556,mgb_normalisation,92.0152836843556,90.34149293193902,6,6.0,True,1.187523603439331
,2024-07-18 14:37:22,sub_114,3,distance,cathedral,spatial_unmasking,5,159,0,0,_six_,talker-p245_sex-f_text-_six_.wav,p245,f,5,11,10.0,7.0,RX81,6,0.0,0.0,7.0,84.341492931939,babble-reversed_n13_p307-five-p229-three-p318-nine-p245-four-p268-eight-p284-two.wav,8,RX81,9,0.0,0.0,10.0,92.0152836843556,mgb_normalisation,92.0152836843556,90.34149293193902,6,6.0,True,1.1250226497650146
,2024-07-18 14:37:25,sub_114,3,distance,cathedral,spatial_unmasking,5,160,0,0,_five_,talker-p245_sex-f_text-_five_.wav,p245,f,5,12,10.0,7.0,RX81,6,0.0,0.0,7.0,82.34149293193902,babble-reversed_n13_p256-two-p307-five-p318-nine-p248-eight-p245-four-p284-one.wav,8,RX81,9,0.0,0.0,10.0,92.0152836843556,mgb_normalisation,92.0152836843556,90.34149293193902,5,5.0,True,0.9383015632629396
,2024-07-18 14:37:29,sub_114,3,distance,cathedral,spatial_unmasking,5,161,0,0,_two_,talker-p245_sex-f_text-_two_.wav,p245,f,5,13,10.0,7.0,RX81,6,0.0,0.0,7.0,82.341492931939,babble-reversed_n13_p256-eight-p318-two-p307-five-p245-four-p268-nine-p284-one.wav,8,RX81,9,0.0,0.0,10.0,92.0152836843556,mgb_normalisation,92.0152836843556,90.34149293193902,2,2.0,True,1.3117425441741943
,2024-07-18 14:37:32,sub_114,3,distance,cathedral,spatial_unmasking,5,162,0,0,_three_,talker-p245_sex-f_text-_three_.wav,p245,f,5,14,10.0,7.0,RX81,6,0.0,0.0,7.0,80.34149293193903,babble-reversed_n13_p229-five-p256-three-p318-nine-p248-two-p284-four-p268-one.wav,8,RX81,9,0.0,0.0,10.0,92.0152836843556,mgb_normalisation,92.0152836843556,90.34149293193902,3,3.0,True,1.2500240802764893
,2024-07-18 14:37:36,sub_114,3,distance,cathedral,spatial_unmasking,5,163,0,0,_eight_,talker-p245_sex-f_text-_eight_.wav,p245,f,5,15,10.0,7.0,RX81,6,0.0,0.0,7.0,80.34149293193903,babble-reversed_n13_p256-four-p229-eight-p307-five-p248-three-p245-one-p284-two.wav,8,RX81,9,0.0,0.0,10.0,92.0152836843556,mgb_normalisation,92.0152836843556,90.34149293193902,8,1.0,False,1.5000288486480713
,2024-07-18 14:37:40,sub_114,3,distance,cathedral,spatial_unmasking,5,164,0,0,_eight_,talker-p245_sex-f_text-_eight_.wav,p245,f,5,16,10.0,7.0,RX81,6,0.0,0.0,7.0,81.34149293193902,babble-reversed_n13_p229-nine-p318-one-p307-two-p248-eight-p245-five-p284-four.wav,8,RX81,9,0.0,0.0,10.0,92.0152836843556,mgb_normalisation,92.0152836843556,90.34149293193902,8,9.0,False,1.3140645027160645
,2024-07-18 14:37:44,sub_114,3,distance,cathedral,spatial_unmasking,5,165,0,0,_five_,talker-p245_sex-f_text-_five_.wav,p245,f,5,17,10.0,7.0,RX81,6,0.0,0.0,7.0,82.34149293193902,babble-reversed_n13_p318-one-p307-two-p256-eight-p284-three-p248-five-p245-four.wav,8,RX81,9,0.0,0.0,10.0,92.0152836843556,mgb_normalisation,92.0152836843556,90.34149293193902,5,5.0,True,1.1875498294830322
,2024-07-18 14:37:48,sub_114,3,distance,cathedral,spatial_unmasking,5,166,0,0,_four_,talker-p245_sex-f_text-_four_.wav,p245,f,5,18,10.0,7.0,RX81,6,0.0,0.0,7.0,82.34149293193902,babble-reversed_n13_p229-two-p307-five-p318-four-p284-one-p248-nine-p268-eight.wav,8,RX81,9,0.0,0.0,10.0,92.0152836843556,mgb_normalisation,92.0152836843556,90.34149293193902,4,1.0,False,1.4375271797180176
,2024-07-18 14:37:51,sub_114,3,distance,cathedral,spatial_unmasking,5,167,0,0,_five_,talker-p245_sex-f_text-_five_.wav,p245,f,5,19,10.0,7.0,RX81,6,0.0,0.0,7.0,83.34149293193902,babble-reversed_n13_p229-two-p256-three-p318-eight-p284-five-p268-four-p245-one.wav,8,RX81,9,0.0,0.0,10.0,92.0152836843556,mgb_normalisation,92.0152836843556,90.34149293193902,5,5.0,True,1.1249690055847168
,2024-07-18 14:37:55,sub_114,3,distance,cathedral,spatial_unmasking,5,168,0,0,_eight_,talker-p245_sex-f_text-_eight_.wav,p245,f,5,20,10.0,7.0,RX81,6,0.0,0.0,7.0,83.34149293193902,babble-reversed_n13_p229-two-p307-five-p318-four-p284-one-p248-nine-p268-eight.wav,8,RX81,9,0.0,0.0,10.0,92.0152836843556,mgb_normalisation,92.0152836843556,90.34149293193902,8,1.0,False,1.375354528427124
,2024-07-18 14:37:59,sub_114,3,distance,cathedral,spatial_unmasking,5,169,0,0,_five_,talker-p245_sex-f_text-_five_.wav,p245,f,5,21,10.0,7.0,RX81,6,0.0,0.0,7.0,84.341492931939,babble-reversed_n13_p229-one-p318-eight-p256-three-p268-two-p245-five-p248-nine.wav,8,RX81,9,0.0,0.0,10.0,92.0152836843556,mgb_normalisation,92.0152836843556,90.34149293193902,5,5.0,True,1.3125264644622805
,2024-07-18 14:38:02,sub_114,3,distance,cathedral,spatial_unmasking,5,170,0,0,_three_,talker-p245_sex-f_text-_three_.wav,p245,f,5,22,10.0,7.0,RX81,6,0.0,0.0,7.0,84.34149293193903,babble-reversed_n13_p256-two-p307-five-p318-nine-p248-eight-p245-four-p284-one.wav,8,RX81,9,0.0,0.0,10.0,92.0152836843556,mgb_normalisation,92.0152836843556,90.34149293193902,3,3.0,True,1.2500245571136477
,2024-07-18 14:38:06,sub_114,3,distance,cathedral,spatial_unmasking,5,171,0,0,_one_,talker-p245_sex-f_text-_one_.wav,p245,f,5,23,10.0,7.0,RX81,6,0.0,0.0,7.0,83.34149293193902,babble-reversed_n13_p256-eight-p318-five-p307-four-p245-three-p268-one-p284-nine.wav,8,RX81,9,0.0,0.0,10.0,92.0152836843556,mgb_normalisation,92.0152836843556,90.34149293193902,1,1.0,True,1.189105987548828
,2024-07-18 14:38:10,sub_114,3,distance,cathedral,spatial_unmasking,5,172,0,0,_eight_,talker-p245_sex-f_text-_eight_.wav,p245,f,5,24,10.0,7.0,RX81,6,0.0,0.0,7.0,83.34149293193902,babble-reversed_n13_p256-four-p307-eight-p318-two-p248-three-p284-nine-p268-one.wav,8,RX81,9,0.0,0.0,10.0,92.0152836843556,mgb_normalisation,92.0152836843556,90.34149293193902,8,3.0,False,1.315333366394043
,2024-07-18 14:38:13,sub_114,3,distance,cathedral,spatial_unmasking,5,173,0,0,_three_,talker-p245_sex-f_text-_three_.wav,p245,f,5,25,10.0,7.0,RX81,6,0.0,0.0,7.0,84.34149293193903,babble-reversed_n13_p256-three-p318-two-p229-nine-p248-four-p284-one-p268-eight.wav,8,RX81,9,0.0,0.0,10.0,92.0152836843556,mgb_normalisation,92.0152836843556,90.34149293193902,3,3.0,True,1.2500240802764893
,2024-07-18 14:38:17,sub_114,3,distance,cathedral,spatial_unmasking,5,174,0,0,_four_,talker-p245_sex-f_text-_four_.wav,p245,f,5,26,10.0,7.0,RX81,6,0.0,0.0,7.0,84.34149293193903,babble-reversed_n13_p229-five-p318-three-p307-two-p245-four-p284-nine-p248-eight.wav,8,RX81,9,0.0,0.0,10.0,92.0152836843556,mgb_normalisation,92.0152836843556,90.34149293193902,4,4.0,True,1.1249949932098389
,2024-07-18 14:38:20,sub_114,3,distance,cathedral,spatial_unmasking,5,175,0,0,_two_,talker-p245_sex-f_text-_two_.wav,p245,f,5,27,10.0,7.0,RX81,6,0.0,0.0,7.0,83.34149293193902,babble-reversed_n13_p229-five-p256-three-p318-nine-p248-two-p284-four-p268-one.wav,8,RX81,9,0.0,0.0,10.0,92.0152836843556,mgb_normalisation,92.0152836843556,90.34149293193902,2,2.0,True,0.9979214668273926
,2024-07-18 14:38:24,sub_114,3,distance,cathedral,spatial_unmasking,5,176,0,0,_nine_,talker-p245_sex-f_text-_nine_.wav,p245,f,5,28,10.0,7.0,RX81,6,0.0,0.0,7.0,83.34149293193902,babble-reversed_n13_p318-one-p307-two-p256-eight-p284-three-p248-five-p245-four.wav,8,RX81,9,0.0,0.0,10.0,92.0152836843556,mgb_normalisation,92.0152836843556,90.34149293193902,9,9.0,True,1.6891136169433594
,2024-07-18 14:38:28,sub_114,3,distance,cathedral,spatial_unmasking,5,177,0,0,_five_,talker-p245_sex-f_text-_five_.wav,p245,f,5,29,10.0,7.0,RX81,6,0.0,0.0,7.0,82.34149293193902,babble-reversed_n13_p318-nine-p256-five-p307-eight-p268-three-p248-one-p245-four.wav,8,RX81,9,0.0,0.0,10.0,92.0152836843556,mgb_normalisation,92.0152836843556,90.34149293193902,5,5.0,True,1.0624656677246094
,2024-07-18 14:38:31,sub_114,3,distance,cathedral,spatial_unmasking,5,178,0,0,_eight_,talker-p245_sex-f_text-_eight_.wav,p245,f,5,30,10.0,7.0,RX81,6,0.0,0.0,7.0,82.34149293193902,babble-reversed_n13_p318-five-p229-four-p256-eight-p284-one-p245-three-p248-two.wav,8,RX81,9,0.0,0.0,10.0,92.0152836843556,mgb_normalisation,92.0152836843556,90.34149293193902,8,3.0,False,1.1874651908874512
,2024-07-18 14:38:35,sub_114,3,distance,cathedral,spatial_unmasking,5,179,0,0,_two_,talker-p245_sex-f_text-_two_.wav,p245,f,5,31,10.0,7.0,RX81,6,0.0,0.0,7.0,83.34149293193902,babble-reversed_n13_p229-nine-p318-one-p307-two-p248-eight-p245-five-p284-four.wav,8,RX81,9,0.0,0.0,10.0,92.0152836843556,mgb_normalisation,92.0152836843556,90.34149293193902,2,2.0,True,1.2495639324188232
,2024-07-18 14:38:38,sub_114,3,distance,cathedral,spatial_unmasking,5,180,0,0,_three_,talker-p245_sex-f_text-_three_.wav,p245,f,5,32,10.0,7.0,RX81,6,0.0,0.0,7.0,83.34149293193903,babble-reversed_n13_p307-two-p229-one-p256-five-p248-nine-p284-three-p268-eight.wav,8,RX81,9,0.0,0.0,10.0,92.0152836843556,mgb_normalisation,92.0152836843556,90.34149293193902,3,3.0,True,1.1874589920043943
,2024-07-18 14:38:42,sub_114,3,distance,cathedral,spatial_unmasking,5,181,0,0,_three_,talker-p245_sex-f_text-_three_.wav,p245,f,5,33,10.0,7.0,RX81,6,0.0,0.0,7.0,82.34149293193902,babble-reversed_n13_p229-three-p307-one-p318-two-p245-eight-p268-five-p284-four.wav,8,RX81,9,0.0,0.0,10.0,92.0152836843556,mgb_normalisation,92.0152836843556,90.34149293193902,3,4.0,False,1.2500238418579102
,2024-07-18 14:38:46,sub_114,3,distance,cathedral,spatial_unmasking,5,182,0,0,_two_,talker-p245_sex-f_text-_two_.wav,p245,f,5,34,10.0,7.0,RX81,6,0.0,0.0,7.0,83.34149293193902,babble-reversed_n13_p229-nine-p318-one-p307-two-p248-eight-p245-five-p284-four.wav,8,RX81,9,0.0,0.0,10.0,92.0152836843556,mgb_normalisation,92.0152836843556,90.34149293193902,2,2.0,True,1.1896915435791016
,2024-07-18 14:38:49,sub_114,3,distance,cathedral,spatial_unmasking,5,183,0,0,_two_,talker-p245_sex-f_text-_two_.wav,p245,f,5,35,10.0,7.0,RX81,6,0.0,0.0,7.0,83.34149293193902,babble-reversed_n13_p229-one-p318-eight-p256-three-p268-nine-p248-five-p284-four.wav,8,RX81,9,0.0,0.0,10.0,92.0152836843556,mgb_normalisation,92.0152836843556,90.34149293193902,2,2.0,True,1.0649590492248535
,2024-07-18 14:38:52,sub_114,3,distance,cathedral,spatial_unmasking,5,184,0,0,_three_,talker-p245_sex-f_text-_three_.wav,p245,f,5,36,10.0,7.0,RX81,6,0.0,0.0,7.0,82.34149293193902,babble-reversed_n13_p307-four-p318-three-p256-eight-p284-two-p245-nine-p248-five.wav,8,RX81,9,0.0,0.0,10.0,92.0152836843556,mgb_normalisation,92.0152836843556,90.34149293193902,3,3.0,True,0.8750171661376953
,2024-07-18 14:38:56,sub_114,3,distance,cathedral,spatial_unmasking,5,185,0,0,_three_,talker-p245_sex-f_text-_three_.wav,p245,f,5,37,10.0,7.0,RX81,6,0.0,0.0,7.0,82.34149293193902,babble-reversed_n13_p229-five-p318-three-p307-two-p245-four-p284-nine-p248-eight.wav,8,RX81,9,0.0,0.0,10.0,92.0152836843556,mgb_normalisation,92.0152836843556,90.34149293193902,3,3.0,True,0.8125143051147461
,2024-07-18 14:38:59,sub_114,3,distance,cathedral,spatial_unmasking,5,186,0,0,_one_,talker-p245_sex-f_text-_one_.wav,p245,f,5,38,10.0,7.0,RX81,6,0.0,0.0,7.0,81.341492931939,babble-reversed_n13_p307-two-p256-four-p318-three-p284-eight-p248-five-p245-nine.wav,8,RX81,9,0.0,0.0,10.0,92.0152836843556,mgb_normalisation,92.0152836843556,90.34149293193902,1,3.0,False,1.3097679615020752
,2024-07-18 14:39:03,sub_114,3,distance,cathedral,spatial_unmasking,5,187,0,0,_four_,talker-p245_sex-f_text-_four_.wav,p245,f,5,39,10.0,7.0,RX81,6,0.0,0.0,7.0,82.34149293193902,babble-reversed_n13_p307-five-p229-three-p318-nine-p245-four-p268-eight-p284-two.wav,8,RX81,9,0.0,0.0,10.0,92.0152836843556,mgb_normalisation,92.0152836843556,90.34149293193902,4,4.0,True,1.2500245571136477
,2024-07-18 14:39:07,sub_114,3,distance,cathedral,spatial_unmasking,5,188,0,0,_nine_,talker-p245_sex-f_text-_nine_.wav,p245,f,5,40,10.0,7.0,RX81,6,0.0,0.0,7.0,82.34149293193902,babble-reversed_n13_p318-five-p229-four-p256-eight-p284-one-p245-three-p248-two.wav,8,RX81,9,0.0,0.0,10.0,92.0152836843556,mgb_normalisation,92.0152836843556,90.34149293193902,9,5.0,False,1.1250219345092771
,2024-07-18 14:39:10,sub_114,3,distance,cathedral,spatial_unmasking,5,189,0,0,_two_,talker-p245_sex-f_text-_two_.wav,p245,f,5,41,10.0,7.0,RX81,6,0.0,0.0,7.0,83.34149293193902,babble-reversed_n13_p307-five-p229-two-p318-four-p248-three-p245-nine-p268-eight.wav,8,RX81,9,0.0,0.0,10.0,92.0152836843556,mgb_normalisation,92.0152836843556,90.34149293193902,2,2.0,True,1.3742475509643557
,2024-07-18 14:39:14,sub_114,3,distance,cathedral,spatial_unmasking,5,190,0,0,_five_,talker-p245_sex-f_text-_five_.wav,p245,f,5,42,10.0,7.0,RX81,6,0.0,0.0,7.0,83.34149293193902,babble-reversed_n13_p229-two-p307-five-p318-four-p284-one-p248-nine-p268-eight.wav,8,RX81,9,0.0,0.0,10.0,92.0152836843556,mgb_normalisation,92.0152836843556,90.34149293193902,5,5.0,True,1.4343571662902832
,2024-07-18 14:40:27,sub_114,3,distance,cathedral,spatial_unmasking,6,191,0,0,_three_,talker-p245_sex-f_text-_three_.wav,p245,f,5,1,8.0,7.0,RX81,6,0.0,0.0,7.0,92.34149293193902,babble-reversed_n13_p229-one-p318-eight-p256-three-p268-two-p245-five-p248-nine.wav,6,RX81,7,0.0,0.0,8.0,91.58892582949886,mgb_normalisation,91.58892582949886,90.34149293193902,3,3.0,True,1.1874923706054688
,2024-07-18 14:40:31,sub_114,3,distance,cathedral,spatial_unmasking,6,192,0,0,_five_,talker-p245_sex-f_text-_five_.wav,p245,f,5,2,8.0,7.0,RX81,6,0.0,0.0,7.0,88.34149293193902,babble-reversed_n13_p229-nine-p256-four-p318-three-p268-eight-p248-two-p284-five.wav,6,RX81,7,0.0,0.0,8.0,91.58892582949888,mgb_normalisation,91.58892582949886,90.34149293193902,5,5.0,True,1.123791217803955
,2024-07-18 14:40:34,sub_114,3,distance,cathedral,spatial_unmasking,6,193,0,0,_three_,talker-p245_sex-f_text-_three_.wav,p245,f,5,3,8.0,7.0,RX81,6,0.0,0.0,7.0,84.34149293193903,babble-reversed_n13_p256-four-p229-eight-p307-five-p248-three-p245-one-p284-two.wav,6,RX81,7,0.0,0.0,8.0,91.58892582949886,mgb_normalisation,91.58892582949886,90.34149293193902,3,3.0,True,1.1233174800872805
,2024-07-18 14:40:38,sub_114,3,distance,cathedral,spatial_unmasking,6,194,0,0,_six_,talker-p245_sex-f_text-_six_.wav,p245,f,5,4,8.0,7.0,RX81,6,0.0,0.0,7.0,80.341492931939,babble-reversed_n13_p229-eight-p256-nine-p318-four-p245-three-p268-five-p284-two.wav,6,RX81,7,0.0,0.0,8.0,91.58892582949886,mgb_normalisation,91.58892582949886,90.34149293193902,6,6.0,True,1.187492609024048
,2024-07-18 14:40:42,sub_114,3,distance,cathedral,spatial_unmasking,6,195,0,0,_one_,talker-p245_sex-f_text-_one_.wav,p245,f,5,5,8.0,7.0,RX81,6,0.0,0.0,7.0,76.34149293193902,babble-reversed_n13_p229-nine-p256-four-p318-three-p268-eight-p248-two-p284-five.wav,6,RX81,7,0.0,0.0,8.0,91.58892582949888,mgb_normalisation,91.58892582949886,90.34149293193902,1,3.0,False,1.4999918937683103
,2024-07-18 14:40:46,sub_114,3,distance,cathedral,spatial_unmasking,6,196,0,0,_one_,talker-p245_sex-f_text-_one_.wav,p245,f,5,6,8.0,7.0,RX81,6,0.0,0.0,7.0,78.341492931939,babble-reversed_n13_p256-four-p229-eight-p307-five-p248-three-p245-one-p284-two.wav,6,RX81,7,0.0,0.0,8.0,91.58892582949886,mgb_normalisation,91.58892582949886,90.34149293193902,1,1.0,True,1.7494475841522217
,2024-07-18 14:40:50,sub_114,3,distance,cathedral,spatial_unmasking,6,197,0,0,_four_,talker-p245_sex-f_text-_four_.wav,p245,f,5,7,8.0,7.0,RX81,6,0.0,0.0,7.0,78.34149293193902,babble-reversed_n13_p318-nine-p256-five-p307-eight-p268-three-p248-one-p245-four.wav,6,RX81,7,0.0,0.0,8.0,91.58892582949888,mgb_normalisation,91.58892582949886,90.34149293193902,4,4.0,True,1.876083850860596
,2024-07-18 14:40:55,sub_114,3,distance,cathedral,spatial_unmasking,6,198,0,0,_one_,talker-p245_sex-f_text-_one_.wav,p245,f,5,8,8.0,7.0,RX81,6,0.0,0.0,7.0,76.34149293193902,babble-reversed_n13_p229-one-p318-eight-p256-three-p268-two-p245-five-p248-nine.wav,6,RX81,7,0.0,0.0,8.0,91.58892582949886,mgb_normalisation,91.58892582949886,90.34149293193902,1,1.0,True,1.935834646224976
,2024-07-18 14:40:58,sub_114,3,distance,cathedral,spatial_unmasking,6,199,0,0,_three_,talker-p245_sex-f_text-_three_.wav,p245,f,5,9,8.0,7.0,RX81,6,0.0,0.0,7.0,76.34149293193902,babble-reversed_n13_p229-three-p256-one-p307-two-p284-eight-p268-five-p248-nine.wav,6,RX81,7,0.0,0.0,8.0,91.58892582949888,mgb_normalisation,91.58892582949886,90.34149293193902,3,4.0,False,1.0625100135803225
,2024-07-18 14:41:02,sub_114,3,distance,cathedral,spatial_unmasking,6,200,0,0,_six_,talker-p245_sex-f_text-_six_.wav,p245,f,5,10,8.0,7.0,RX81,6,0.0,0.0,7.0,77.34149293193902,babble-reversed_n13_p256-eight-p229-three-p307-nine-p245-five-p248-four-p268-two.wav,6,RX81,7,0.0,0.0,8.0,91.58892582949886,mgb_normalisation,91.58892582949886,90.34149293193902,6,6.0,True,1.0624938011169434
,2024-07-18 14:41:06,sub_114,3,distance,cathedral,spatial_unmasking,6,201,0,0,_four_,talker-p245_sex-f_text-_four_.wav,p245,f,5,11,8.0,7.0,RX81,6,0.0,0.0,7.0,77.34149293193903,babble-reversed_n13_p229-eight-p256-nine-p318-four-p245-three-p268-five-p284-two.wav,6,RX81,7,0.0,0.0,8.0,91.58892582949886,mgb_normalisation,91.58892582949886,90.34149293193902,4,4.0,True,1.501579999923706
,2024-07-18 14:41:09,sub_114,3,distance,cathedral,spatial_unmasking,6,202,0,0,_two_,talker-p245_sex-f_text-_two_.wav,p245,f,5,12,8.0,7.0,RX81,6,0.0,0.0,7.0,76.341492931939,babble-reversed_n13_p318-nine-p256-five-p307-eight-p268-three-p248-one-p245-four.wav,6,RX81,7,0.0,0.0,8.0,91.58892582949888,mgb_normalisation,91.58892582949886,90.34149293193902,2,2.0,True,1.310948371887207
,2024-07-18 14:41:13,sub_114,3,distance,cathedral,spatial_unmasking,6,203,0,0,_five_,talker-p245_sex-f_text-_five_.wav,p245,f,5,13,8.0,7.0,RX81,6,0.0,0.0,7.0,76.34149293193902,babble-reversed_n13_p256-three-p318-one-p307-two-p284-nine-p268-four-p245-eight.wav,6,RX81,7,0.0,0.0,8.0,91.58892582949888,mgb_normalisation,91.58892582949886,90.34149293193902,5,3.0,False,1.2499918937683103
,2024-07-18 14:41:17,sub_114,3,distance,cathedral,spatial_unmasking,6,204,0,0,_one_,talker-p245_sex-f_text-_one_.wav,p245,f,5,14,8.0,7.0,RX81,6,0.0,0.0,7.0,77.341492931939,babble-reversed_n13_p307-nine-p318-two-p256-one-p245-three-p268-four-p248-eight.wav,6,RX81,7,0.0,0.0,8.0,91.58892582949886,mgb_normalisation,91.58892582949886,90.34149293193902,1,9.0,False,1.437490940093994
,2024-07-18 14:41:20,sub_114,3,distance,cathedral,spatial_unmasking,6,205,0,0,_three_,talker-p245_sex-f_text-_three_.wav,p245,f,5,15,8.0,7.0,RX81,6,0.0,0.0,7.0,78.34149293193902,babble-reversed_n13_p318-five-p229-three-p256-four-p268-eight-p248-one-p245-nine.wav,6,RX81,7,0.0,0.0,8.0,91.58892582949888,mgb_normalisation,91.58892582949886,90.34149293193902,3,1.0,False,1.0624618530273438
,2024-07-18 14:41:24,sub_114,3,distance,cathedral,spatial_unmasking,6,206,0,0,_three_,talker-p245_sex-f_text-_three_.wav,p245,f,5,16,8.0,7.0,RX81,6,0.0,0.0,7.0,79.34149293193902,babble-reversed_n13_p229-five-p318-three-p307-two-p245-four-p284-nine-p248-eight.wav,6,RX81,7,0.0,0.0,8.0,91.58892582949886,mgb_normalisation,91.58892582949886,90.34149293193902,3,2.0,False,1.249992609024048
,2024-07-18 14:41:28,sub_114,3,distance,cathedral,spatial_unmasking,6,207,0,0,_five_,talker-p245_sex-f_text-_five_.wav,p245,f,5,17,8.0,7.0,RX81,6,0.0,0.0,7.0,80.34149293193903,babble-reversed_n13_p229-five-p256-one-p318-three-p248-nine-p268-four-p284-eight.wav,6,RX81,7,0.0,0.0,8.0,91.58892582949886,mgb_normalisation,91.58892582949886,90.34149293193902,5,5.0,True,1.3749699592590332
,2024-07-18 14:41:31,sub_114,3,distance,cathedral,spatial_unmasking,6,208,0,0,_six_,talker-p245_sex-f_text-_six_.wav,p245,f,5,18,8.0,7.0,RX81,6,0.0,0.0,7.0,80.341492931939,babble-reversed_n13_p229-nine-p256-four-p318-three-p268-eight-p248-two-p284-five.wav,6,RX81,7,0.0,0.0,8.0,91.58892582949888,mgb_normalisation,91.58892582949886,90.34149293193902,6,6.0,True,0.9412376880645752
,2024-07-18 14:41:34,sub_114,3,distance,cathedral,spatial_unmasking,6,209,0,0,_two_,talker-p245_sex-f_text-_two_.wav,p245,f,5,19,8.0,7.0,RX81,6,0.0,0.0,7.0,79.341492931939,babble-reversed_n13_p318-three-p229-one-p256-eight-p245-five-p248-four-p284-nine.wav,6,RX81,7,0.0,0.0,8.0,91.58892582949888,mgb_normalisation,91.58892582949886,90.34149293193902,2,2.0,True,1.0652658939361572
,2024-07-18 14:41:38,sub_114,3,distance,cathedral,spatial_unmasking,6,210,0,0,_three_,talker-p245_sex-f_text-_three_.wav,p245,f,5,20,8.0,7.0,RX81,6,0.0,0.0,7.0,79.34149293193902,babble-reversed_n13_p307-two-p229-one-p256-five-p248-nine-p284-three-p268-eight.wav,6,RX81,7,0.0,0.0,8.0,91.58892582949888,mgb_normalisation,91.58892582949886,90.34149293193902,3,3.0,True,1.249992847442627
,2024-07-18 14:41:42,sub_114,3,distance,cathedral,spatial_unmasking,6,211,0,0,_five_,talker-p245_sex-f_text-_five_.wav,p245,f,5,21,8.0,7.0,RX81,6,0.0,0.0,7.0,78.34149293193902,babble-reversed_n13_p256-three-p318-one-p307-two-p284-nine-p268-four-p245-eight.wav,6,RX81,7,0.0,0.0,8.0,91.58892582949888,mgb_normalisation,91.58892582949886,90.34149293193902,5,5.0,True,1.0624940395355225
,2024-07-18 14:41:45,sub_114,3,distance,cathedral,spatial_unmasking,6,212,0,0,_one_,talker-p245_sex-f_text-_one_.wav,p245,f,5,22,8.0,7.0,RX81,6,0.0,0.0,7.0,78.341492931939,babble-reversed_n13_p229-three-p256-one-p307-two-p284-eight-p268-five-p248-nine.wav,6,RX81,7,0.0,0.0,8.0,91.58892582949888,mgb_normalisation,91.58892582949886,90.34149293193902,1,1.0,True,1.2460241317749023
,2024-07-18 14:41:49,sub_114,3,distance,cathedral,spatial_unmasking,6,213,0,0,_one_,talker-p245_sex-f_text-_one_.wav,p245,f,5,23,8.0,7.0,RX81,6,0.0,0.0,7.0,77.341492931939,babble-reversed_n13_p256-nine-p307-four-p229-one-p284-three-p248-two-p245-five.wav,6,RX81,7,0.0,0.0,8.0,91.58892582949888,mgb_normalisation,91.58892582949886,90.34149293193902,1,3.0,False,1.3124933242797852
,2024-07-18 14:41:53,sub_114,3,distance,cathedral,spatial_unmasking,6,214,0,0,_four_,talker-p245_sex-f_text-_four_.wav,p245,f,5,24,8.0,7.0,RX81,6,0.0,0.0,7.0,78.34149293193902,babble-reversed_n13_p229-two-p307-five-p318-four-p284-one-p248-nine-p268-eight.wav,6,RX81,7,0.0,0.0,8.0,91.58892582949888,mgb_normalisation,91.58892582949886,90.34149293193902,4,4.0,True,1.1874933242797852
,2024-07-18 14:41:56,sub_114,3,distance,cathedral,spatial_unmasking,6,215,0,0,_five_,talker-p245_sex-f_text-_five_.wav,p245,f,5,25,8.0,7.0,RX81,6,0.0,0.0,7.0,78.34149293193902,babble-reversed_n13_p256-four-p229-two-p318-five-p268-one-p248-eight-p245-three.wav,6,RX81,7,0.0,0.0,8.0,91.58892582949886,mgb_normalisation,91.58892582949886,90.34149293193902,5,5.0,True,0.9395766258239746
,2024-07-18 14:42:00,sub_114,3,distance,cathedral,spatial_unmasking,6,216,0,0,_six_,talker-p245_sex-f_text-_six_.wav,p245,f,5,26,8.0,7.0,RX81,6,0.0,0.0,7.0,77.34149293193902,babble-reversed_n13_p318-five-p256-nine-p307-eight-p248-two-p245-four-p284-three.wav,6,RX81,7,0.0,0.0,8.0,91.58892582949886,mgb_normalisation,91.58892582949886,90.34149293193902,6,6.0,True,1.374211072921753
,2024-07-18 14:42:03,sub_114,3,distance,cathedral,spatial_unmasking,6,217,0,0,_eight_,talker-p245_sex-f_text-_eight_.wav,p245,f,5,27,8.0,7.0,RX81,6,0.0,0.0,7.0,77.34149293193902,babble-reversed_n13_p229-five-p256-three-p318-nine-p248-two-p284-four-p268-one.wav,6,RX81,7,0.0,0.0,8.0,91.58892582949888,mgb_normalisation,91.58892582949886,90.34149293193902,8,3.0,False,1.2499885559082031
,2024-07-18 14:42:07,sub_114,3,distance,cathedral,spatial_unmasking,6,218,0,0,_eight_,talker-p245_sex-f_text-_eight_.wav,p245,f,5,28,8.0,7.0,RX81,6,0.0,0.0,7.0,78.34149293193902,babble-reversed_n13_p256-four-p229-two-p318-five-p268-one-p248-eight-p245-three.wav,6,RX81,7,0.0,0.0,8.0,91.58892582949886,mgb_normalisation,91.58892582949886,90.34149293193902,8,2.0,False,1.4375581741333008
,2024-07-18 14:42:11,sub_114,3,distance,cathedral,spatial_unmasking,6,219,0,0,_four_,talker-p245_sex-f_text-_four_.wav,p245,f,5,29,8.0,7.0,RX81,6,0.0,0.0,7.0,79.34149293193903,babble-reversed_n13_p318-five-p229-three-p256-four-p268-eight-p248-one-p245-nine.wav,6,RX81,7,0.0,0.0,8.0,91.58892582949888,mgb_normalisation,91.58892582949886,90.34149293193902,4,1.0,False,1.3638427257537842
,2024-07-18 14:42:15,sub_114,3,distance,cathedral,spatial_unmasking,6,220,0,0,_three_,talker-p245_sex-f_text-_three_.wav,p245,f,5,30,8.0,7.0,RX81,6,0.0,0.0,7.0,80.34149293193903,babble-reversed_n13_p256-eight-p318-five-p307-four-p245-three-p268-one-p284-nine.wav,6,RX81,7,0.0,0.0,8.0,91.58892582949886,mgb_normalisation,91.58892582949886,90.34149293193902,3,6.0,False,1.937605857849121
,2024-07-18 14:42:19,sub_114,3,distance,cathedral,spatial_unmasking,6,221,0,0,_five_,talker-p245_sex-f_text-_five_.wav,p245,f,5,31,8.0,7.0,RX81,6,0.0,0.0,7.0,81.34149293193902,babble-reversed_n13_p318-three-p307-one-p256-five-p248-nine-p245-two-p284-eight.wav,6,RX81,7,0.0,0.0,8.0,91.58892582949888,mgb_normalisation,91.58892582949886,90.34149293193902,5,5.0,True,1.4999911785125732
,2024-07-18 14:42:24,sub_114,3,distance,cathedral,spatial_unmasking,6,222,0,0,_nine_,talker-p245_sex-f_text-_nine_.wav,p245,f,5,32,8.0,7.0,RX81,6,0.0,0.0,7.0,81.34149293193902,babble-reversed_n13_p256-four-p307-eight-p318-two-p248-three-p284-nine-p268-one.wav,6,RX81,7,0.0,0.0,8.0,91.58892582949888,mgb_normalisation,91.58892582949886,90.34149293193902,9,9.0,True,1.999988079071045
,2024-07-18 14:42:27,sub_114,3,distance,cathedral,spatial_unmasking,6,223,0,0,_six_,talker-p245_sex-f_text-_six_.wav,p245,f,5,33,8.0,7.0,RX81,6,0.0,0.0,7.0,80.341492931939,babble-reversed_n13_p229-nine-p256-four-p318-three-p268-eight-p248-two-p284-five.wav,6,RX81,7,0.0,0.0,8.0,91.58892582949888,mgb_normalisation,91.58892582949886,90.34149293193902,6,6.0,True,1.4999911785125732
,2024-07-18 14:42:32,sub_114,3,distance,cathedral,spatial_unmasking,6,224,0,0,_nine_,talker-p245_sex-f_text-_nine_.wav,p245,f,5,34,8.0,7.0,RX81,6,0.0,0.0,7.0,80.34149293193903,babble-reversed_n13_p256-three-p318-two-p229-nine-p248-four-p284-one-p268-eight.wav,6,RX81,7,0.0,0.0,8.0,91.58892582949886,mgb_normalisation,91.58892582949886,90.34149293193902,9,4.0,False,1.859226942062378
,2024-07-18 14:42:35,sub_114,3,distance,cathedral,spatial_unmasking,6,225,0,0,_six_,talker-p245_sex-f_text-_six_.wav,p245,f,5,35,8.0,7.0,RX81,6,0.0,0.0,7.0,81.34149293193902,babble-reversed_n13_p256-four-p229-eight-p307-five-p248-three-p245-one-p284-two.wav,6,RX81,7,0.0,0.0,8.0,91.58892582949886,mgb_normalisation,91.58892582949886,90.34149293193902,6,6.0,True,1.249239444732666
,2024-07-18 14:42:39,sub_114,3,distance,cathedral,spatial_unmasking,6,226,0,0,_nine_,talker-p245_sex-f_text-_nine_.wav,p245,f,5,36,8.0,7.0,RX81,6,0.0,0.0,7.0,81.34149293193902,babble-reversed_n13_p256-three-p318-one-p307-two-p284-nine-p268-four-p245-eight.wav,6,RX81,7,0.0,0.0,8.0,91.58892582949888,mgb_normalisation,91.58892582949886,90.34149293193902,9,9.0,True,1.437519073486328
,2024-07-18 14:43:40,sub_114,3,distance,cathedral,spatial_unmasking,7,227,0,0,_six_,talker-p245_sex-f_text-_six_.wav,p245,f,5,1,2.0,7.0,RX81,6,0.0,0.0,7.0,92.34149293193902,babble-reversed_n13_p256-three-p318-one-p307-two-p284-nine-p268-four-p245-eight.wav,0,RX81,1,0.0,0.0,2.0,84.40078082039426,mgb_normalisation,84.40078082039426,90.34149293193902,6,6.0,True,2.75105619430542
,2024-07-18 14:43:44,sub_114,3,distance,cathedral,spatial_unmasking,7,228,0,0,_two_,talker-p245_sex-f_text-_two_.wav,p245,f,5,2,2.0,7.0,RX81,6,0.0,0.0,7.0,88.34149293193902,babble-reversed_n13_p318-one-p307-two-p256-eight-p284-three-p248-five-p245-four.wav,0,RX81,1,0.0,0.0,2.0,84.40078082039427,mgb_normalisation,84.40078082039426,90.34149293193902,2,2.0,True,1.3749918937683103
,2024-07-18 14:43:48,sub_114,3,distance,cathedral,spatial_unmasking,7,229,0,0,_eight_,talker-p245_sex-f_text-_eight_.wav,p245,f,5,3,2.0,7.0,RX81,6,0.0,0.0,7.0,84.341492931939,babble-reversed_n13_p256-four-p307-eight-p318-two-p248-three-p284-nine-p268-one.wav,0,RX81,1,0.0,0.0,2.0,84.40078082039427,mgb_normalisation,84.40078082039426,90.34149293193902,8,3.0,False,1.5624899864196775
,2024-07-18 14:43:52,sub_114,3,distance,cathedral,spatial_unmasking,7,230,0,0,_eight_,talker-p245_sex-f_text-_eight_.wav,p245,f,5,4,2.0,7.0,RX81,6,0.0,0.0,7.0,86.34149293193902,babble-reversed_n13_p256-four-p229-two-p318-five-p268-one-p248-eight-p245-three.wav,0,RX81,1,0.0,0.0,2.0,84.40078082039426,mgb_normalisation,84.40078082039426,90.34149293193902,8,3.0,False,1.3749945163726809
,2024-07-18 14:43:56,sub_114,3,distance,cathedral,spatial_unmasking,7,231,0,0,_one_,talker-p245_sex-f_text-_one_.wav,p245,f,5,5,2.0,7.0,RX81,6,0.0,0.0,7.0,88.34149293193902,babble-reversed_n13_p256-three-p318-one-p307-two-p284-nine-p268-four-p245-eight.wav,0,RX81,1,0.0,0.0,2.0,84.40078082039426,mgb_normalisation,84.40078082039426,90.34149293193902,1,1.0,True,1.2497422695159912
,2024-07-18 14:43:59,sub_114,3,distance,cathedral,spatial_unmasking,7,232,0,0,_five_,talker-p245_sex-f_text-_five_.wav,p245,f,5,6,2.0,7.0,RX81,6,0.0,0.0,7.0,88.34149293193902,babble-reversed_n13_p229-eight-p256-nine-p318-four-p245-three-p268-five-p284-two.wav,0,RX81,1,0.0,0.0,2.0,84.40078082039426,mgb_normalisation,84.40078082039426,90.34149293193902,5,5.0,True,1.3124933242797852
,2024-07-18 14:44:03,sub_114,3,distance,cathedral,spatial_unmasking,7,233,0,0,_nine_,talker-p245_sex-f_text-_nine_.wav,p245,f,5,7,2.0,7.0,RX81,6,0.0,0.0,7.0,86.34149293193902,babble-reversed_n13_p307-five-p229-three-p318-nine-p245-four-p268-eight-p284-two.wav,0,RX81,1,0.0,0.0,2.0,84.40078082039426,mgb_normalisation,84.40078082039426,90.34149293193902,9,9.0,True,1.1874940395355225
,2024-07-18 14:44:06,sub_114,3,distance,cathedral,spatial_unmasking,7,234,0,0,_one_,talker-p245_sex-f_text-_one_.wav,p245,f,5,8,2.0,7.0,RX81,6,0.0,0.0,7.0,86.341492931939,babble-reversed_n13_p318-three-p229-one-p256-eight-p245-five-p248-four-p284-nine.wav,0,RX81,1,0.0,0.0,2.0,84.40078082039427,mgb_normalisation,84.40078082039426,90.34149293193902,1,1.0,True,1.059990406036377
,2024-07-18 14:44:10,sub_114,3,distance,cathedral,spatial_unmasking,7,235,0,0,_nine_,talker-p245_sex-f_text-_nine_.wav,p245,f,5,9,2.0,7.0,RX81,6,0.0,0.0,7.0,84.341492931939,babble-reversed_n13_p318-nine-p307-eight-p229-two-p284-one-p248-three-p245-five.wav,0,RX81,1,0.0,0.0,2.0,84.40078082039426,mgb_normalisation,84.40078082039426,90.34149293193902,9,9.0,True,1.1230335235595703
,2024-07-18 14:44:13,sub_114,3,distance,cathedral,spatial_unmasking,7,236,0,0,_nine_,talker-p245_sex-f_text-_nine_.wav,p245,f,5,10,2.0,7.0,RX81,6,0.0,0.0,7.0,84.341492931939,babble-reversed_n13_p229-five-p318-two-p307-eight-p268-three-p248-four-p245-one.wav,0,RX81,1,0.0,0.0,2.0,84.40078082039427,mgb_normalisation,84.40078082039426,90.34149293193902,9,9.0,True,1.0624887943267822
,2024-07-18 14:44:17,sub_114,3,distance,cathedral,spatial_unmasking,7,237,0,0,_four_,talker-p245_sex-f_text-_four_.wav,p245,f,5,11,2.0,7.0,RX81,6,0.0,0.0,7.0,82.34149293193902,babble-reversed_n13_p256-four-p229-two-p318-five-p268-one-p248-eight-p245-three.wav,0,RX81,1,0.0,0.0,2.0,84.40078082039426,mgb_normalisation,84.40078082039426,90.34149293193902,4,3.0,False,1.187466382980347
,2024-07-18 14:44:21,sub_114,3,distance,cathedral,spatial_unmasking,7,238,0,0,_eight_,talker-p245_sex-f_text-_eight_.wav,p245,f,5,12,2.0,7.0,RX81,6,0.0,0.0,7.0,83.34149293193902,babble-reversed_n13_p256-two-p307-five-p318-nine-p248-eight-p245-four-p284-one.wav,0,RX81,1,0.0,0.0,2.0,84.40078082039426,mgb_normalisation,84.40078082039426,90.34149293193902,8,3.0,False,1.1890144348144531
,2024-07-18 14:44:24,sub_114,3,distance,cathedral,spatial_unmasking,7,239,0,0,_six_,talker-p245_sex-f_text-_six_.wav,p245,f,5,13,2.0,7.0,RX81,6,0.0,0.0,7.0,84.341492931939,babble-reversed_n13_p318-five-p229-four-p256-eight-p284-one-p245-three-p248-two.wav,0,RX81,1,0.0,0.0,2.0,84.40078082039426,mgb_normalisation,84.40078082039426,90.34149293193902,6,6.0,True,1.1249938011169434
,2024-07-18 14:44:28,sub_114,3,distance,cathedral,spatial_unmasking,7,240,0,0,_five_,talker-p245_sex-f_text-_five_.wav,p245,f,5,14,2.0,7.0,RX81,6,0.0,0.0,7.0,84.341492931939,babble-reversed_n13_p307-nine-p318-two-p256-one-p245-three-p268-four-p248-eight.wav,0,RX81,1,0.0,0.0,2.0,84.40078082039426,mgb_normalisation,84.40078082039426,90.34149293193902,5,5.0,True,1.1250460147857666
,2024-07-18 14:44:31,sub_114,3,distance,cathedral,spatial_unmasking,7,241,0,0,_eight_,talker-p245_sex-f_text-_eight_.wav,p245,f,5,15,2.0,7.0,RX81,6,0.0,0.0,7.0,83.34149293193902,babble-reversed_n13_p256-five-p229-one-p318-three-p248-nine-p284-eight-p268-two.wav,0,RX81,1,0.0,0.0,2.0,84.40078082039427,mgb_normalisation,84.40078082039426,90.34149293193902,8,3.0,False,1.2989864349365234
,2024-07-18 14:44:35,sub_114,3,distance,cathedral,spatial_unmasking,7,242,0,0,_six_,talker-p245_sex-f_text-_six_.wav,p245,f,5,16,2.0,7.0,RX81,6,0.0,0.0,7.0,84.341492931939,babble-reversed_n13_p229-five-p256-one-p318-three-p248-nine-p268-four-p284-eight.wav,0,RX81,1,0.0,0.0,2.0,84.40078082039426,mgb_normalisation,84.40078082039426,90.34149293193902,6,6.0,True,1.1859796047210691
,2024-07-18 14:44:38,sub_114,3,distance,cathedral,spatial_unmasking,7,243,0,0,_nine_,talker-p245_sex-f_text-_nine_.wav,p245,f,5,17,2.0,7.0,RX81,6,0.0,0.0,7.0,84.341492931939,babble-reversed_n13_p307-one-p318-five-p229-four-p268-eight-p284-two-p245-three.wav,0,RX81,1,0.0,0.0,2.0,84.40078082039426,mgb_normalisation,84.40078082039426,90.34149293193902,9,9.0,True,1.1249935626983645
,2024-07-18 14:44:42,sub_114,3,distance,cathedral,spatial_unmasking,7,244,0,0,_nine_,talker-p245_sex-f_text-_nine_.wav,p245,f,5,18,2.0,7.0,RX81,6,0.0,0.0,7.0,83.34149293193902,babble-reversed_n13_p229-eight-p256-nine-p318-four-p245-three-p268-five-p284-two.wav,0,RX81,1,0.0,0.0,2.0,84.40078082039426,mgb_normalisation,84.40078082039426,90.34149293193902,9,9.0,True,1.1874940395355225
,2024-07-18 14:44:46,sub_114,3,distance,cathedral,spatial_unmasking,7,245,0,0,_nine_,talker-p245_sex-f_text-_nine_.wav,p245,f,5,19,2.0,7.0,RX81,6,0.0,0.0,7.0,83.34149293193902,babble-reversed_n13_p318-nine-p307-eight-p229-two-p284-one-p248-three-p245-five.wav,0,RX81,1,0.0,0.0,2.0,84.40078082039426,mgb_normalisation,84.40078082039426,90.34149293193902,9,9.0,True,1.126071214675903
,2024-07-18 14:44:49,sub_114,3,distance,cathedral,spatial_unmasking,7,246,0,0,_eight_,talker-p245_sex-f_text-_eight_.wav,p245,f,5,20,2.0,7.0,RX81,6,0.0,0.0,7.0,82.34149293193902,babble-reversed_n13_p229-three-p256-one-p307-two-p284-eight-p268-five-p248-nine.wav,0,RX81,1,0.0,0.0,2.0,84.40078082039426,mgb_normalisation,84.40078082039426,90.34149293193902,8,1.0,False,1.124995470046997
,2024-07-18 14:44:53,sub_114,3,distance,cathedral,spatial_unmasking,7,247,0,0,_one_,talker-p245_sex-f_text-_one_.wav,p245,f,5,21,2.0,7.0,RX81,6,0.0,0.0,7.0,83.34149293193902,babble-reversed_n13_p229-eight-p256-nine-p318-four-p245-three-p268-five-p284-two.wav,0,RX81,1,0.0,0.0,2.0,84.40078082039426,mgb_normalisation,84.40078082039426,90.34149293193902,1,1.0,True,1.187493085861206
,2024-07-18 14:44:56,sub_114,3,distance,cathedral,spatial_unmasking,7,248,0,0,_four_,talker-p245_sex-f_text-_four_.wav,p245,f,5,22,2.0,7.0,RX81,6,0.0,0.0,7.0,83.34149293193903,babble-reversed_n13_p318-five-p256-nine-p307-two-p245-eight-p248-one-p284-four.wav,0,RX81,1,0.0,0.0,2.0,84.40078082039427,mgb_normalisation,84.40078082039426,90.34149293193902,4,4.0,True,1.0644237995147705
,2024-07-18 14:45:00,sub_114,3,distance,cathedral,spatial_unmasking,7,249,0,0,_three_,talker-p245_sex-f_text-_three_.wav,p245,f,5,23,2.0,7.0,RX81,6,0.0,0.0,7.0,82.34149293193902,babble-reversed_n13_p307-two-p229-one-p256-five-p248-nine-p284-three-p268-eight.wav,0,RX81,1,0.0,0.0,2.0,84.40078082039427,mgb_normalisation,84.40078082039426,90.34149293193902,3,3.0,True,1.1898953914642334
,2024-07-18 14:45:03,sub_114,3,distance,cathedral,spatial_unmasking,7,250,0,0,_six_,talker-p245_sex-f_text-_six_.wav,p245,f,5,24,2.0,7.0,RX81,6,0.0,0.0,7.0,82.34149293193902,babble-reversed_n13_p256-nine-p307-four-p229-one-p284-three-p248-two-p245-five.wav,0,RX81,1,0.0,0.0,2.0,84.40078082039427,mgb_normalisation,84.40078082039426,90.34149293193902,6,6.0,True,1.0625207424163818
,2024-07-18 14:45:07,sub_114,3,distance,cathedral,spatial_unmasking,7,251,0,0,_four_,talker-p245_sex-f_text-_four_.wav,p245,f,5,25,2.0,7.0,RX81,6,0.0,0.0,7.0,81.34149293193902,babble-reversed_n13_p229-two-p318-eight-p256-three-p268-one-p248-nine-p284-five.wav,0,RX81,1,0.0,0.0,2.0,84.40078082039426,mgb_normalisation,84.40078082039426,90.34149293193902,4,4.0,True,1.0624938011169434
,2024-07-18 14:45:10,sub_114,3,distance,cathedral,spatial_unmasking,7,252,0,0,_five_,talker-p245_sex-f_text-_five_.wav,p245,f,5,26,2.0,7.0,RX81,6,0.0,0.0,7.0,81.34149293193902,babble-reversed_n13_p229-five-p318-three-p307-two-p245-four-p284-nine-p248-eight.wav,0,RX81,1,0.0,0.0,2.0,84.40078082039426,mgb_normalisation,84.40078082039426,90.34149293193902,5,5.0,True,1.121962547302246
,2024-07-18 14:45:14,sub_114,3,distance,cathedral,spatial_unmasking,7,253,0,0,_nine_,talker-p245_sex-f_text-_nine_.wav,p245,f,5,27,2.0,7.0,RX81,6,0.0,0.0,7.0,80.34149293193903,babble-reversed_n13_p307-two-p229-one-p256-five-p248-nine-p284-three-p268-eight.wav,0,RX81,1,0.0,0.0,2.0,84.40078082039427,mgb_normalisation,84.40078082039426,90.34149293193902,9,3.0,False,1.4374933242797852
,2024-07-18 14:45:18,sub_114,3,distance,cathedral,spatial_unmasking,7,254,0,0,_eight_,talker-p245_sex-f_text-_eight_.wav,p245,f,5,28,2.0,7.0,RX81,6,0.0,0.0,7.0,81.34149293193902,babble-reversed_n13_p229-one-p318-eight-p256-three-p268-two-p245-five-p248-nine.wav,0,RX81,1,0.0,0.0,2.0,84.40078082039426,mgb_normalisation,84.40078082039426,90.34149293193902,8,3.0,False,1.3749921321868896
,2024-07-18 14:45:22,sub_114,3,distance,cathedral,spatial_unmasking,7,255,0,0,_eight_,talker-p245_sex-f_text-_eight_.wav,p245,f,5,29,2.0,7.0,RX81,6,0.0,0.0,7.0,82.34149293193902,babble-reversed_n13_p307-two-p229-one-p256-five-p248-nine-p284-three-p268-eight.wav,0,RX81,1,0.0,0.0,2.0,84.40078082039427,mgb_normalisation,84.40078082039426,90.34149293193902,8,3.0,False,1.5014986991882324
,2024-07-18 14:45:25,sub_114,3,distance,cathedral,spatial_unmasking,7,256,0,0,_nine_,talker-p245_sex-f_text-_nine_.wav,p245,f,5,30,2.0,7.0,RX81,6,0.0,0.0,7.0,83.34149293193902,babble-reversed_n13_p307-two-p229-one-p256-five-p248-nine-p284-three-p268-eight.wav,0,RX81,1,0.0,0.0,2.0,84.40078082039427,mgb_normalisation,84.40078082039426,90.34149293193902,9,9.0,True,1.248511552810669
,2024-07-18 14:45:29,sub_114,3,distance,cathedral,spatial_unmasking,7,257,0,0,_two_,talker-p245_sex-f_text-_two_.wav,p245,f,5,31,2.0,7.0,RX81,6,0.0,0.0,7.0,83.34149293193902,babble-reversed_n13_p229-five-p318-three-p307-two-p245-four-p284-nine-p248-eight.wav,0,RX81,1,0.0,0.0,2.0,84.40078082039426,mgb_normalisation,84.40078082039426,90.34149293193902,2,2.0,True,1.0624942779541016
,2024-07-18 14:45:33,sub_114,3,distance,cathedral,spatial_unmasking,7,258,0,0,_four_,talker-p245_sex-f_text-_four_.wav,p245,f,5,32,2.0,7.0,RX81,6,0.0,0.0,7.0,82.34149293193902,babble-reversed_n13_p307-two-p229-one-p256-five-p248-nine-p284-three-p268-eight.wav,0,RX81,1,0.0,0.0,2.0,84.40078082039427,mgb_normalisation,84.40078082039426,90.34149293193902,4,3.0,False,1.499943494796753
,2024-07-18 14:45:36,sub_114,3,distance,cathedral,spatial_unmasking,7,259,0,0,_five_,talker-p245_sex-f_text-_five_.wav,p245,f,5,33,2.0,7.0,RX81,6,0.0,0.0,7.0,83.34149293193902,babble-reversed_n13_p256-eight-p229-three-p307-nine-p245-five-p248-four-p268-two.wav,0,RX81,1,0.0,0.0,2.0,84.40078082039426,mgb_normalisation,84.40078082039426,90.34149293193902,5,5.0,True,1.1900601387023926
