event_id,timestamp,subject_id,session_index,plane,setup,task,block,trial_index,headpose_offset_azi,headpose_offset_ele,target_number,target_filename,target_talker,target_sex,target_speaker_id,step_number:,distance_masker,distance_target,target_speaker_proc,target_speaker_chan,target_speaker_azi,target_speaker_ele,target_speaker_dist,target_stim_level,masker_filename,masker_speaker_id,masker_speaker_proc,masker_speaker_chan,masker_speaker_azi,masker_speaker_ele,masker_speaker_dist,masker_stim_level,normalisation_method,normalisation_level_masker,normalisation_level_target,played_number,resp_number,is_correct,reaction_time
,2024-07-10 11:15:23,sub_111,3,distance,cathedral,spatial_unmasking,1,0,0,0,_six_,talker-p284_sex-f_text-_six_.wav,p284,f,5,1,4.0,7.0,RX81,6,0.0,0.0,7.0,92.34149293193902,babble-reversed_n13_p229-three-p256-one-p307-two-p284-eight-p268-five-p248-nine.wav,2,RX81,3,0.0,0.0,4.0,87.57049330475357,mgb_normalisation,87.57049330475357,90.34149293193902,6,6.0,True,1.0625176429748535
,2024-07-10 11:15:26,sub_111,3,distance,cathedral,spatial_unmasking,1,1,0,0,_eight_,talker-p284_sex-f_text-_eight_.wav,p284,f,5,2,4.0,7.0,RX81,6,0.0,0.0,7.0,88.34149293193902,babble-reversed_n13_p318-nine-p307-eight-p229-two-p284-one-p248-three-p245-five.wav,2,RX81,3,0.0,0.0,4.0,87.57049330475357,mgb_normalisation,87.57049330475357,90.34149293193902,8,8.0,True,0.939746618270874
,2024-07-10 11:15:30,sub_111,3,distance,cathedral,spatial_unmasking,1,2,0,0,_six_,talker-p284_sex-f_text-_six_.wav,p284,f,5,3,4.0,7.0,RX81,6,0.0,0.0,7.0,84.341492931939,babble-reversed_n13_p318-one-p307-two-p256-eight-p284-three-p248-five-p245-four.wav,2,RX81,3,0.0,0.0,4.0,87.57049330475357,mgb_normalisation,87.57049330475357,90.34149293193902,6,6.0,True,1.3125226497650146
,2024-07-10 11:15:35,sub_111,3,distance,cathedral,spatial_unmasking,1,3,0,0,_four_,talker-p284_sex-f_text-_four_.wav,p284,f,5,4,4.0,7.0,RX81,6,0.0,0.0,7.0,80.341492931939,babble-reversed_n13_p229-three-p256-one-p307-two-p284-eight-p268-five-p248-nine.wav,2,RX81,3,0.0,0.0,4.0,87.57049330475357,mgb_normalisation,87.57049330475357,90.34149293193902,4,4.0,True,3.247091770172119
,2024-07-10 11:15:39,sub_111,3,distance,cathedral,spatial_unmasking,1,4,0,0,_one_,talker-p284_sex-f_text-_one_.wav,p284,f,5,5,4.0,7.0,RX81,6,0.0,0.0,7.0,76.34149293193902,babble-reversed_n13_p229-one-p318-eight-p256-three-p268-nine-p248-five-p284-four.wav,2,RX81,3,0.0,0.0,4.0,87.57049330475357,mgb_normalisation,87.57049330475357,90.34149293193902,1,1.0,True,1.2500202655792236
,2024-07-10 11:15:43,sub_111,3,distance,cathedral,spatial_unmasking,1,5,0,0,_two_,talker-p284_sex-f_text-_two_.wav,p284,f,5,6,4.0,7.0,RX81,6,0.0,0.0,7.0,72.34149293193902,babble-reversed_n13_p229-one-p318-nine-p256-four-p284-eight-p268-five-p245-two.wav,2,RX81,3,0.0,0.0,4.0,87.57049330475357,mgb_normalisation,87.57049330475357,90.34149293193902,2,2.0,True,1.12501859664917
,2024-07-10 11:15:49,sub_111,3,distance,cathedral,spatial_unmasking,1,6,0,0,_two_,talker-p284_sex-f_text-_two_.wav,p284,f,5,7,4.0,7.0,RX81,6,0.0,0.0,7.0,68.34149293193902,babble-reversed_n13_p229-five-p318-two-p307-eight-p268-three-p248-four-p245-one.wav,2,RX81,3,0.0,0.0,4.0,87.57049330475357,mgb_normalisation,87.57049330475357,90.34149293193902,2,4.0,False,4.06191349029541
,2024-07-10 11:15:55,sub_111,3,distance,cathedral,spatial_unmasking,1,7,0,0,_two_,talker-p284_sex-f_text-_two_.wav,p284,f,5,8,4.0,7.0,RX81,6,0.0,0.0,7.0,70.34149293193903,babble-reversed_n13_p307-five-p229-two-p318-four-p248-three-p245-nine-p268-eight.wav,2,RX81,3,0.0,0.0,4.0,87.57049330475355,mgb_normalisation,87.57049330475357,90.34149293193902,2,4.0,False,3.4374239444732666
,2024-07-10 11:16:00,sub_111,3,distance,cathedral,spatial_unmasking,1,8,0,0,_nine_,talker-p284_sex-f_text-_nine_.wav,p284,f,5,9,4.0,7.0,RX81,6,0.0,0.0,7.0,72.341492931939,babble-reversed_n13_p318-nine-p256-five-p307-eight-p268-three-p248-one-p245-four.wav,2,RX81,3,0.0,0.0,4.0,87.57049330475357,mgb_normalisation,87.57049330475357,90.34149293193902,9,4.0,False,2.9368972778320312
,2024-07-10 11:16:05,sub_111,3,distance,cathedral,spatial_unmasking,1,9,0,0,_two_,talker-p284_sex-f_text-_two_.wav,p284,f,5,10,4.0,7.0,RX81,6,0.0,0.0,7.0,74.34149293193902,babble-reversed_n13_p229-nine-p307-five-p256-two-p248-three-p245-one-p268-eight.wav,2,RX81,3,0.0,0.0,4.0,87.57049330475357,mgb_normalisation,87.57049330475357,90.34149293193902,2,3.0,False,1.937530517578125
,2024-07-10 11:16:10,sub_111,3,distance,cathedral,spatial_unmasking,1,10,0,0,_eight_,talker-p284_sex-f_text-_eight_.wav,p284,f,5,11,4.0,7.0,RX81,6,0.0,0.0,7.0,76.34149293193902,babble-reversed_n13_p256-nine-p307-four-p229-one-p284-three-p248-two-p245-five.wav,2,RX81,3,0.0,0.0,4.0,87.57049330475357,mgb_normalisation,87.57049330475357,90.34149293193902,8,3.0,False,2.624979019165039
,2024-07-10 11:16:14,sub_111,3,distance,cathedral,spatial_unmasking,1,11,0,0,_two_,talker-p284_sex-f_text-_two_.wav,p284,f,5,12,4.0,7.0,RX81,6,0.0,0.0,7.0,78.34149293193902,babble-reversed_n13_p229-nine-p307-five-p256-two-p248-three-p245-one-p268-eight.wav,2,RX81,3,0.0,0.0,4.0,87.57049330475357,mgb_normalisation,87.57049330475357,90.34149293193902,2,6.0,False,2.3125367164611816
,2024-07-10 11:16:19,sub_111,3,distance,cathedral,spatial_unmasking,1,12,0,0,_four_,talker-p284_sex-f_text-_four_.wav,p284,f,5,13,4.0,7.0,RX81,6,0.0,0.0,7.0,80.341492931939,babble-reversed_n13_p256-four-p229-two-p318-five-p268-one-p248-eight-p245-three.wav,2,RX81,3,0.0,0.0,4.0,87.57049330475355,mgb_normalisation,87.57049330475357,90.34149293193902,4,6.0,False,2.6251060962677
,2024-07-10 11:16:23,sub_111,3,distance,cathedral,spatial_unmasking,1,13,0,0,_nine_,talker-p284_sex-f_text-_nine_.wav,p284,f,5,14,4.0,7.0,RX81,6,0.0,0.0,7.0,82.34149293193902,babble-reversed_n13_p307-two-p229-one-p256-five-p248-nine-p284-three-p268-eight.wav,2,RX81,3,0.0,0.0,4.0,87.57049330475357,mgb_normalisation,87.57049330475357,90.34149293193902,9,9.0,True,1.187518835067749
,2024-07-10 11:16:28,sub_111,3,distance,cathedral,spatial_unmasking,1,14,0,0,_four_,talker-p284_sex-f_text-_four_.wav,p284,f,5,15,4.0,7.0,RX81,6,0.0,0.0,7.0,82.341492931939,babble-reversed_n13_p307-one-p318-five-p229-four-p268-eight-p284-two-p245-three.wav,2,RX81,3,0.0,0.0,4.0,87.57049330475355,mgb_normalisation,87.57049330475357,90.34149293193902,4,4.0,True,2.3099398612976074
,2024-07-10 11:16:31,sub_111,3,distance,cathedral,spatial_unmasking,1,15,0,0,_nine_,talker-p284_sex-f_text-_nine_.wav,p284,f,5,16,4.0,7.0,RX81,6,0.0,0.0,7.0,80.341492931939,babble-reversed_n13_p318-three-p307-one-p256-five-p248-nine-p245-two-p284-eight.wav,2,RX81,3,0.0,0.0,4.0,87.57049330475357,mgb_normalisation,87.57049330475357,90.34149293193902,9,9.0,True,1.2506821155548096
,2024-07-10 11:16:35,sub_111,3,distance,cathedral,spatial_unmasking,1,16,0,0,_three_,talker-p284_sex-f_text-_three_.wav,p284,f,5,17,4.0,7.0,RX81,6,0.0,0.0,7.0,80.34149293193903,babble-reversed_n13_p307-nine-p229-one-p256-eight-p248-four-p284-two-p268-three.wav,2,RX81,3,0.0,0.0,4.0,87.57049330475357,mgb_normalisation,87.57049330475357,90.34149293193902,3,3.0,True,1.187518835067749
,2024-07-10 11:16:39,sub_111,3,distance,cathedral,spatial_unmasking,1,17,0,0,_eight_,talker-p284_sex-f_text-_eight_.wav,p284,f,5,18,4.0,7.0,RX81,6,0.0,0.0,7.0,78.341492931939,babble-reversed_n13_p229-two-p256-three-p318-eight-p284-five-p268-four-p245-one.wav,2,RX81,3,0.0,0.0,4.0,87.57049330475357,mgb_normalisation,87.57049330475357,90.34149293193902,8,8.0,True,1.5625250339508057
,2024-07-10 11:16:44,sub_111,3,distance,cathedral,spatial_unmasking,1,18,0,0,_eight_,talker-p284_sex-f_text-_eight_.wav,p284,f,5,19,4.0,7.0,RX81,6,0.0,0.0,7.0,78.341492931939,babble-reversed_n13_p318-nine-p307-eight-p229-two-p284-one-p248-three-p245-five.wav,2,RX81,3,0.0,0.0,4.0,87.57049330475357,mgb_normalisation,87.57049330475357,90.34149293193902,8,8.0,True,2.687542676925659
,2024-07-10 11:16:48,sub_111,3,distance,cathedral,spatial_unmasking,1,19,0,0,_one_,talker-p284_sex-f_text-_one_.wav,p284,f,5,20,4.0,7.0,RX81,6,0.0,0.0,7.0,76.34149293193902,babble-reversed_n13_p318-three-p307-one-p256-five-p248-nine-p245-two-p284-eight.wav,2,RX81,3,0.0,0.0,4.0,87.57049330475357,mgb_normalisation,87.57049330475357,90.34149293193902,1,8.0,False,2.1250340938568115
,2024-07-10 11:16:52,sub_111,3,distance,cathedral,spatial_unmasking,1,20,0,0,_three_,talker-p284_sex-f_text-_three_.wav,p284,f,5,21,4.0,7.0,RX81,6,0.0,0.0,7.0,77.34149293193903,babble-reversed_n13_p229-three-p256-nine-p318-five-p248-one-p245-eight-p284-two.wav,2,RX81,3,0.0,0.0,4.0,87.57049330475357,mgb_normalisation,87.57049330475357,90.34149293193902,3,3.0,True,1.189344882965088
,2024-07-10 11:16:56,sub_111,3,distance,cathedral,spatial_unmasking,1,21,0,0,_five_,talker-p284_sex-f_text-_five_.wav,p284,f,5,22,4.0,7.0,RX81,6,0.0,0.0,7.0,77.34149293193902,babble-reversed_n13_p229-one-p318-eight-p256-three-p268-two-p245-five-p248-nine.wav,2,RX81,3,0.0,0.0,4.0,87.57049330475355,mgb_normalisation,87.57049330475357,90.34149293193902,5,4.0,False,1.999841928482056
,2024-07-10 11:17:02,sub_111,3,distance,cathedral,spatial_unmasking,1,22,0,0,_eight_,talker-p284_sex-f_text-_eight_.wav,p284,f,5,23,4.0,7.0,RX81,6,0.0,0.0,7.0,78.341492931939,babble-reversed_n13_p256-four-p229-eight-p307-five-p248-three-p245-one-p284-two.wav,2,RX81,3,0.0,0.0,4.0,87.57049330475355,mgb_normalisation,87.57049330475357,90.34149293193902,8,3.0,False,3.501128911972046
,2024-07-10 11:17:08,sub_111,3,distance,cathedral,spatial_unmasking,1,23,0,0,_four_,talker-p284_sex-f_text-_four_.wav,p284,f,5,24,4.0,7.0,RX81,6,0.0,0.0,7.0,79.341492931939,babble-reversed_n13_p256-four-p229-two-p318-five-p268-one-p248-eight-p245-three.wav,2,RX81,3,0.0,0.0,4.0,87.57049330475355,mgb_normalisation,87.57049330475357,90.34149293193902,4,3.0,False,3.0626416206359863
,2024-07-10 11:17:14,sub_111,3,distance,cathedral,spatial_unmasking,1,24,0,0,_eight_,talker-p284_sex-f_text-_eight_.wav,p284,f,5,25,4.0,7.0,RX81,6,0.0,0.0,7.0,80.341492931939,babble-reversed_n13_p318-four-p256-five-p229-three-p284-one-p245-eight-p248-nine.wav,2,RX81,3,0.0,0.0,4.0,87.57049330475357,mgb_normalisation,87.57049330475357,90.34149293193902,8,4.0,False,4.249499797821045
,2024-07-10 11:17:21,sub_111,3,distance,cathedral,spatial_unmasking,1,25,0,0,_five_,talker-p284_sex-f_text-_five_.wav,p284,f,5,26,4.0,7.0,RX81,6,0.0,0.0,7.0,81.34149293193902,babble-reversed_n13_p307-five-p229-two-p318-four-p248-three-p245-nine-p268-eight.wav,2,RX81,3,0.0,0.0,4.0,87.57049330475355,mgb_normalisation,87.57049330475357,90.34149293193902,5,8.0,False,4.563900470733643
,2024-07-10 11:17:27,sub_111,3,distance,cathedral,spatial_unmasking,1,26,0,0,_five_,talker-p284_sex-f_text-_five_.wav,p284,f,5,27,4.0,7.0,RX81,6,0.0,0.0,7.0,82.34149293193902,babble-reversed_n13_p256-nine-p307-four-p229-one-p284-three-p248-two-p245-five.wav,2,RX81,3,0.0,0.0,4.0,87.57049330475357,mgb_normalisation,87.57049330475357,90.34149293193902,5,5.0,True,3.0003931522369385
,2024-07-10 11:17:30,sub_111,3,distance,cathedral,spatial_unmasking,1,27,0,0,_three_,talker-p284_sex-f_text-_three_.wav,p284,f,5,28,4.0,7.0,RX81,6,0.0,0.0,7.0,82.34149293193902,babble-reversed_n13_p307-two-p256-four-p318-three-p284-eight-p248-five-p245-nine.wav,2,RX81,3,0.0,0.0,4.0,87.57049330475357,mgb_normalisation,87.57049330475357,90.34149293193902,3,3.0,True,1.0004117488861084
,2024-07-10 11:17:35,sub_111,3,distance,cathedral,spatial_unmasking,1,28,0,0,_one_,talker-p284_sex-f_text-_one_.wav,p284,f,5,29,4.0,7.0,RX81,6,0.0,0.0,7.0,81.34149293193902,babble-reversed_n13_p318-four-p256-five-p229-three-p284-one-p245-eight-p248-nine.wav,2,RX81,3,0.0,0.0,4.0,87.57049330475357,mgb_normalisation,87.57049330475357,90.34149293193902,1,9.0,False,2.2500345706939697
,2024-07-10 11:17:38,sub_111,3,distance,cathedral,spatial_unmasking,1,29,0,0,_five_,talker-p284_sex-f_text-_five_.wav,p284,f,5,30,4.0,7.0,RX81,6,0.0,0.0,7.0,82.34149293193902,babble-reversed_n13_p256-eight-p318-two-p307-five-p245-four-p268-nine-p284-one.wav,2,RX81,3,0.0,0.0,4.0,87.57049330475357,mgb_normalisation,87.57049330475357,90.34149293193902,5,5.0,True,0.9374542236328124
,2024-07-10 11:17:43,sub_111,3,distance,cathedral,spatial_unmasking,1,30,0,0,_two_,talker-p284_sex-f_text-_two_.wav,p284,f,5,31,4.0,7.0,RX81,6,0.0,0.0,7.0,82.34149293193902,babble-reversed_n13_p229-five-p318-three-p307-two-p245-four-p284-nine-p248-eight.wav,2,RX81,3,0.0,0.0,4.0,87.57049330475357,mgb_normalisation,87.57049330475357,90.34149293193902,2,2.0,True,2.186510801315308
,2024-07-10 11:17:47,sub_111,3,distance,cathedral,spatial_unmasking,1,31,0,0,_eight_,talker-p284_sex-f_text-_eight_.wav,p284,f,5,32,4.0,7.0,RX81,6,0.0,0.0,7.0,81.341492931939,babble-reversed_n13_p229-five-p318-two-p307-eight-p268-three-p248-four-p245-one.wav,2,RX81,3,0.0,0.0,4.0,87.57049330475357,mgb_normalisation,87.57049330475357,90.34149293193902,8,8.0,True,2.1885781288146973
,2024-07-10 11:17:52,sub_111,3,distance,cathedral,spatial_unmasking,1,32,0,0,_eight_,talker-p284_sex-f_text-_eight_.wav,p284,f,5,33,4.0,7.0,RX81,6,0.0,0.0,7.0,81.341492931939,babble-reversed_n13_p256-eight-p318-two-p307-five-p245-four-p268-nine-p284-one.wav,2,RX81,3,0.0,0.0,4.0,87.57049330475357,mgb_normalisation,87.57049330475357,90.34149293193902,8,8.0,True,2.124931573867798
,2024-07-10 11:17:58,sub_111,3,distance,cathedral,spatial_unmasking,1,33,0,0,_two_,talker-p284_sex-f_text-_two_.wav,p284,f,5,34,4.0,7.0,RX81,6,0.0,0.0,7.0,80.34149293193903,babble-reversed_n13_p318-nine-p307-eight-p229-two-p284-one-p248-three-p245-five.wav,2,RX81,3,0.0,0.0,4.0,87.57049330475357,mgb_normalisation,87.57049330475357,90.34149293193902,2,3.0,False,3.5478172302246094
,2024-07-10 11:18:02,sub_111,3,distance,cathedral,spatial_unmasking,1,34,0,0,_one_,talker-p284_sex-f_text-_one_.wav,p284,f,5,35,4.0,7.0,RX81,6,0.0,0.0,7.0,81.34149293193902,babble-reversed_n13_p256-four-p229-eight-p307-five-p248-three-p245-one-p284-two.wav,2,RX81,3,0.0,0.0,4.0,87.57049330475355,mgb_normalisation,87.57049330475357,90.34149293193902,1,9.0,False,2.126027822494507
,2024-07-10 11:18:06,sub_111,3,distance,cathedral,spatial_unmasking,1,35,0,0,_five_,talker-p284_sex-f_text-_five_.wav,p284,f,5,36,4.0,7.0,RX81,6,0.0,0.0,7.0,82.34149293193902,babble-reversed_n13_p307-two-p229-one-p256-five-p248-nine-p284-three-p268-eight.wav,2,RX81,3,0.0,0.0,4.0,87.57049330475357,mgb_normalisation,87.57049330475357,90.34149293193902,5,5.0,True,1.1259567737579346
,2024-07-10 11:18:09,sub_111,3,distance,cathedral,spatial_unmasking,1,36,0,0,_four_,talker-p284_sex-f_text-_four_.wav,p284,f,5,37,4.0,7.0,RX81,6,0.0,0.0,7.0,82.341492931939,babble-reversed_n13_p256-four-p307-eight-p318-two-p248-three-p284-nine-p268-one.wav,2,RX81,3,0.0,0.0,4.0,87.57049330475357,mgb_normalisation,87.57049330475357,90.34149293193902,4,9.0,False,1.18752121925354
,2024-07-10 11:18:13,sub_111,3,distance,cathedral,spatial_unmasking,1,37,0,0,_one_,talker-p284_sex-f_text-_one_.wav,p284,f,5,38,4.0,7.0,RX81,6,0.0,0.0,7.0,83.34149293193902,babble-reversed_n13_p307-five-p229-three-p318-nine-p245-four-p268-eight-p284-two.wav,2,RX81,3,0.0,0.0,4.0,87.57049330475355,mgb_normalisation,87.57049330475357,90.34149293193902,1,1.0,True,1.125017166137695
,2024-07-10 11:18:19,sub_111,3,distance,cathedral,spatial_unmasking,1,38,0,0,_two_,talker-p284_sex-f_text-_two_.wav,p284,f,5,39,4.0,7.0,RX81,6,0.0,0.0,7.0,83.34149293193902,babble-reversed_n13_p307-one-p318-five-p229-four-p268-eight-p284-two-p245-three.wav,2,RX81,3,0.0,0.0,4.0,87.57049330475355,mgb_normalisation,87.57049330475357,90.34149293193902,2,5.0,False,4.298267364501953
,2024-07-10 11:18:24,sub_111,3,distance,cathedral,spatial_unmasking,1,39,0,0,_eight_,talker-p284_sex-f_text-_eight_.wav,p284,f,5,40,4.0,7.0,RX81,6,0.0,0.0,7.0,84.341492931939,babble-reversed_n13_p229-two-p307-five-p318-four-p284-one-p248-nine-p268-eight.wav,2,RX81,3,0.0,0.0,4.0,87.57049330475357,mgb_normalisation,87.57049330475357,90.34149293193902,8,8.0,True,1.750056266784668
,2024-07-10 11:18:29,sub_111,3,distance,cathedral,spatial_unmasking,1,40,0,0,_four_,talker-p284_sex-f_text-_four_.wav,p284,f,5,41,4.0,7.0,RX81,6,0.0,0.0,7.0,84.341492931939,babble-reversed_n13_p256-eight-p318-two-p307-five-p245-four-p268-nine-p284-one.wav,2,RX81,3,0.0,0.0,4.0,87.57049330475357,mgb_normalisation,87.57049330475357,90.34149293193902,4,9.0,False,2.9347984790802
,2024-07-10 11:18:32,sub_111,3,distance,cathedral,spatial_unmasking,1,41,0,0,_five_,talker-p284_sex-f_text-_five_.wav,p284,f,5,42,4.0,7.0,RX81,6,0.0,0.0,7.0,85.34149293193903,babble-reversed_n13_p318-three-p229-one-p256-eight-p245-five-p248-four-p284-nine.wav,2,RX81,3,0.0,0.0,4.0,87.57049330475357,mgb_normalisation,87.57049330475357,90.34149293193902,5,5.0,True,1.0000159740447998
,2024-07-10 11:18:37,sub_111,3,distance,cathedral,spatial_unmasking,1,42,0,0,_one_,talker-p284_sex-f_text-_one_.wav,p284,f,5,43,4.0,7.0,RX81,6,0.0,0.0,7.0,85.34149293193903,babble-reversed_n13_p307-one-p318-five-p229-four-p268-eight-p284-two-p245-three.wav,2,RX81,3,0.0,0.0,4.0,87.57049330475355,mgb_normalisation,87.57049330475357,90.34149293193902,1,1.0,True,2.188549041748047
,2024-07-10 11:18:41,sub_111,3,distance,cathedral,spatial_unmasking,1,43,0,0,_nine_,talker-p284_sex-f_text-_nine_.wav,p284,f,5,44,4.0,7.0,RX81,6,0.0,0.0,7.0,84.341492931939,babble-reversed_n13_p229-five-p256-three-p318-nine-p248-two-p284-four-p268-one.wav,2,RX81,3,0.0,0.0,4.0,87.57049330475357,mgb_normalisation,87.57049330475357,90.34149293193902,9,9.0,True,1.2493927478790283
,2024-07-10 11:18:44,sub_111,3,distance,cathedral,spatial_unmasking,1,44,0,0,_four_,talker-p284_sex-f_text-_four_.wav,p284,f,5,45,4.0,7.0,RX81,6,0.0,0.0,7.0,84.341492931939,babble-reversed_n13_p256-three-p318-one-p307-two-p284-nine-p268-four-p245-eight.wav,2,RX81,3,0.0,0.0,4.0,87.57049330475357,mgb_normalisation,87.57049330475357,90.34149293193902,4,9.0,False,1.000016212463379
,2024-07-10 11:18:50,sub_111,3,distance,cathedral,spatial_unmasking,1,45,0,0,_six_,talker-p284_sex-f_text-_six_.wav,p284,f,5,46,4.0,7.0,RX81,6,0.0,0.0,7.0,85.341492931939,babble-reversed_n13_p307-one-p318-five-p229-four-p268-eight-p284-two-p245-three.wav,2,RX81,3,0.0,0.0,4.0,87.57049330475355,mgb_normalisation,87.57049330475357,90.34149293193902,6,6.0,True,3.375051975250244
,2024-07-10 11:18:53,sub_111,3,distance,cathedral,spatial_unmasking,1,46,0,0,_three_,talker-p284_sex-f_text-_three_.wav,p284,f,5,47,4.0,7.0,RX81,6,0.0,0.0,7.0,85.34149293193903,babble-reversed_n13_p307-nine-p318-two-p256-one-p245-three-p268-four-p248-eight.wav,2,RX81,3,0.0,0.0,4.0,87.57049330475355,mgb_normalisation,87.57049330475357,90.34149293193902,3,3.0,True,0.9375145435333252
,2024-07-10 11:18:56,sub_111,3,distance,cathedral,spatial_unmasking,1,47,0,0,_two_,talker-p284_sex-f_text-_two_.wav,p284,f,5,48,4.0,7.0,RX81,6,0.0,0.0,7.0,84.34149293193903,babble-reversed_n13_p256-three-p318-one-p307-two-p284-nine-p268-four-p245-eight.wav,2,RX81,3,0.0,0.0,4.0,87.57049330475357,mgb_normalisation,87.57049330475357,90.34149293193902,2,2.0,True,0.939016580581665
,2024-07-10 11:19:01,sub_111,3,distance,cathedral,spatial_unmasking,1,48,0,0,_one_,talker-p284_sex-f_text-_one_.wav,p284,f,5,49,4.0,7.0,RX81,6,0.0,0.0,7.0,84.341492931939,babble-reversed_n13_p229-five-p318-two-p307-eight-p268-three-p248-four-p245-one.wav,2,RX81,3,0.0,0.0,4.0,87.57049330475357,mgb_normalisation,87.57049330475357,90.34149293193902,1,1.0,True,1.8107526302337649
,2024-07-10 11:19:04,sub_111,3,distance,cathedral,spatial_unmasking,1,49,0,0,_six_,talker-p284_sex-f_text-_six_.wav,p284,f,5,50,4.0,7.0,RX81,6,0.0,0.0,7.0,83.34149293193902,babble-reversed_n13_p307-nine-p318-two-p256-one-p245-three-p268-four-p248-eight.wav,2,RX81,3,0.0,0.0,4.0,87.57049330475355,mgb_normalisation,87.57049330475357,90.34149293193902,6,6.0,True,1.1250181198120115
,2024-07-10 11:19:08,sub_111,3,distance,cathedral,spatial_unmasking,1,50,0,0,_four_,talker-p284_sex-f_text-_four_.wav,p284,f,5,51,4.0,7.0,RX81,6,0.0,0.0,7.0,83.34149293193902,babble-reversed_n13_p307-one-p318-five-p229-four-p268-eight-p284-two-p245-three.wav,2,RX81,3,0.0,0.0,4.0,87.57049330475355,mgb_normalisation,87.57049330475357,90.34149293193902,4,4.0,True,1.4375228881835938
,2024-07-10 11:19:11,sub_111,3,distance,cathedral,spatial_unmasking,1,51,0,0,_two_,talker-p284_sex-f_text-_two_.wav,p284,f,5,52,4.0,7.0,RX81,6,0.0,0.0,7.0,82.34149293193902,babble-reversed_n13_p318-three-p307-one-p256-five-p248-nine-p245-two-p284-eight.wav,2,RX81,3,0.0,0.0,4.0,87.57049330475357,mgb_normalisation,87.57049330475357,90.34149293193902,2,2.0,True,0.8759040832519531
,2024-07-10 11:19:15,sub_111,3,distance,cathedral,spatial_unmasking,1,52,0,0,_five_,talker-p284_sex-f_text-_five_.wav,p284,f,5,53,4.0,7.0,RX81,6,0.0,0.0,7.0,82.34149293193902,babble-reversed_n13_p229-three-p256-nine-p318-five-p248-one-p245-eight-p284-two.wav,2,RX81,3,0.0,0.0,4.0,87.57049330475357,mgb_normalisation,87.57049330475357,90.34149293193902,5,9.0,False,1.062469720840454
,2024-07-10 11:19:18,sub_111,3,distance,cathedral,spatial_unmasking,1,53,0,0,_eight_,talker-p284_sex-f_text-_eight_.wav,p284,f,5,54,4.0,7.0,RX81,6,0.0,0.0,7.0,83.34149293193902,babble-reversed_n13_p318-five-p229-four-p256-eight-p284-one-p245-three-p248-two.wav,2,RX81,3,0.0,0.0,4.0,87.57049330475357,mgb_normalisation,87.57049330475357,90.34149293193902,8,8.0,True,1.000016450881958
,2024-07-10 11:19:22,sub_111,3,distance,cathedral,spatial_unmasking,1,54,0,0,_three_,talker-p284_sex-f_text-_three_.wav,p284,f,5,55,4.0,7.0,RX81,6,0.0,0.0,7.0,83.34149293193903,babble-reversed_n13_p318-four-p256-five-p229-three-p284-one-p245-eight-p248-nine.wav,2,RX81,3,0.0,0.0,4.0,87.57049330475357,mgb_normalisation,87.57049330475357,90.34149293193902,3,3.0,True,1.0633201599121094
,2024-07-10 11:21:01,sub_111,3,distance,cathedral,spatial_unmasking,2,55,0,0,_one_,talker-p284_sex-f_text-_one_.wav,p284,f,5,1,2.0,7.0,RX81,6,0.0,0.0,7.0,92.34149293193902,babble-reversed_n13_p307-one-p318-five-p229-four-p268-eight-p284-two-p245-three.wav,0,RX81,1,0.0,0.0,2.0,84.40078082039426,mgb_normalisation,84.40078082039426,90.34149293193902,1,1.0,True,1.1855599880218506
,2024-07-10 11:21:04,sub_111,3,distance,cathedral,spatial_unmasking,2,56,0,0,_five_,talker-p284_sex-f_text-_five_.wav,p284,f,5,2,2.0,7.0,RX81,6,0.0,0.0,7.0,88.34149293193902,babble-reversed_n13_p256-four-p307-eight-p318-two-p248-three-p284-nine-p268-one.wav,0,RX81,1,0.0,0.0,2.0,84.40078082039427,mgb_normalisation,84.40078082039426,90.34149293193902,5,5.0,True,0.9374916553497314
,2024-07-10 11:21:10,sub_111,3,distance,cathedral,spatial_unmasking,2,57,0,0,_four_,talker-p284_sex-f_text-_four_.wav,p284,f,5,3,2.0,7.0,RX81,6,0.0,0.0,7.0,84.341492931939,babble-reversed_n13_p307-two-p229-one-p256-five-p248-nine-p284-three-p268-eight.wav,0,RX81,1,0.0,0.0,2.0,84.40078082039427,mgb_normalisation,84.40078082039426,90.34149293193902,4,4.0,True,2.937408685684204
,2024-07-10 11:21:13,sub_111,3,distance,cathedral,spatial_unmasking,2,58,0,0,_three_,talker-p284_sex-f_text-_three_.wav,p284,f,5,4,2.0,7.0,RX81,6,0.0,0.0,7.0,80.34149293193903,babble-reversed_n13_p307-four-p318-three-p256-eight-p284-two-p245-nine-p248-five.wav,0,RX81,1,0.0,0.0,2.0,84.40078082039426,mgb_normalisation,84.40078082039426,90.34149293193902,3,3.0,True,0.999929904937744
,2024-07-10 11:21:17,sub_111,3,distance,cathedral,spatial_unmasking,2,59,0,0,_one_,talker-p284_sex-f_text-_one_.wav,p284,f,5,5,2.0,7.0,RX81,6,0.0,0.0,7.0,76.34149293193902,babble-reversed_n13_p229-nine-p256-four-p318-three-p268-eight-p248-two-p284-five.wav,0,RX81,1,0.0,0.0,2.0,84.40078082039426,mgb_normalisation,84.40078082039426,90.34149293193902,1,9.0,False,1.624050855636597
,2024-07-10 11:21:22,sub_111,3,distance,cathedral,spatial_unmasking,2,60,0,0,_four_,talker-p284_sex-f_text-_four_.wav,p284,f,5,6,2.0,7.0,RX81,6,0.0,0.0,7.0,78.341492931939,babble-reversed_n13_p229-nine-p256-four-p318-three-p268-eight-p248-two-p284-five.wav,0,RX81,1,0.0,0.0,2.0,84.40078082039426,mgb_normalisation,84.40078082039426,90.34149293193902,4,9.0,False,2.4850988388061523
,2024-07-10 11:21:25,sub_111,3,distance,cathedral,spatial_unmasking,2,61,0,0,_eight_,talker-p284_sex-f_text-_eight_.wav,p284,f,5,7,2.0,7.0,RX81,6,0.0,0.0,7.0,80.341492931939,babble-reversed_n13_p307-one-p318-five-p229-four-p268-eight-p284-two-p245-three.wav,0,RX81,1,0.0,0.0,2.0,84.40078082039426,mgb_normalisation,84.40078082039426,90.34149293193902,8,8.0,True,0.8749918937683105
,2024-07-10 11:21:29,sub_111,3,distance,cathedral,spatial_unmasking,2,62,0,0,_four_,talker-p284_sex-f_text-_four_.wav,p284,f,5,8,2.0,7.0,RX81,6,0.0,0.0,7.0,80.341492931939,babble-reversed_n13_p229-three-p256-nine-p318-five-p248-one-p245-eight-p284-two.wav,0,RX81,1,0.0,0.0,2.0,84.40078082039426,mgb_normalisation,84.40078082039426,90.34149293193902,4,9.0,False,1.312488317489624
,2024-07-10 11:21:32,sub_111,3,distance,cathedral,spatial_unmasking,2,63,0,0,_eight_,talker-p284_sex-f_text-_eight_.wav,p284,f,5,9,2.0,7.0,RX81,6,0.0,0.0,7.0,82.341492931939,babble-reversed_n13_p256-eight-p229-three-p307-nine-p245-five-p248-four-p268-two.wav,0,RX81,1,0.0,0.0,2.0,84.40078082039426,mgb_normalisation,84.40078082039426,90.34149293193902,8,8.0,True,0.9261443614959716
,2024-07-10 11:21:36,sub_111,3,distance,cathedral,spatial_unmasking,2,64,0,0,_four_,talker-p284_sex-f_text-_four_.wav,p284,f,5,10,2.0,7.0,RX81,6,0.0,0.0,7.0,82.341492931939,babble-reversed_n13_p307-five-p229-three-p318-nine-p245-four-p268-eight-p284-two.wav,0,RX81,1,0.0,0.0,2.0,84.40078082039426,mgb_normalisation,84.40078082039426,90.34149293193902,4,4.0,True,1.3743491172790527
,2024-07-10 11:21:41,sub_111,3,distance,cathedral,spatial_unmasking,2,65,0,0,_four_,talker-p284_sex-f_text-_four_.wav,p284,f,5,11,2.0,7.0,RX81,6,0.0,0.0,7.0,80.341492931939,babble-reversed_n13_p256-five-p229-one-p318-three-p248-nine-p284-eight-p268-two.wav,0,RX81,1,0.0,0.0,2.0,84.40078082039427,mgb_normalisation,84.40078082039426,90.34149293193902,4,5.0,False,2.498789072036743
,2024-07-10 11:21:45,sub_111,3,distance,cathedral,spatial_unmasking,2,66,0,0,_four_,talker-p284_sex-f_text-_four_.wav,p284,f,5,12,2.0,7.0,RX81,6,0.0,0.0,7.0,81.341492931939,babble-reversed_n13_p256-eight-p318-five-p307-four-p245-three-p268-one-p284-nine.wav,0,RX81,1,0.0,0.0,2.0,84.40078082039426,mgb_normalisation,84.40078082039426,90.34149293193902,4,4.0,True,1.8749847412109373
,2024-07-10 11:21:49,sub_111,3,distance,cathedral,spatial_unmasking,2,67,0,0,_six_,talker-p284_sex-f_text-_six_.wav,p284,f,5,13,2.0,7.0,RX81,6,0.0,0.0,7.0,81.341492931939,babble-reversed_n13_p318-five-p256-nine-p307-eight-p248-two-p245-four-p284-three.wav,0,RX81,1,0.0,0.0,2.0,84.40078082039426,mgb_normalisation,84.40078082039426,90.34149293193902,6,6.0,True,1.1249911785125732
,2024-07-10 11:21:57,sub_111,3,distance,cathedral,spatial_unmasking,2,68,0,0,_two_,talker-p284_sex-f_text-_two_.wav,p284,f,5,14,2.0,7.0,RX81,6,0.0,0.0,7.0,80.34149293193903,babble-reversed_n13_p256-five-p229-one-p318-three-p248-nine-p284-eight-p268-two.wav,0,RX81,1,0.0,0.0,2.0,84.40078082039427,mgb_normalisation,84.40078082039426,90.34149293193902,2,3.0,False,5.688528537750244
,2024-07-10 11:22:03,sub_111,3,distance,cathedral,spatial_unmasking,2,69,0,0,_six_,talker-p284_sex-f_text-_six_.wav,p284,f,5,15,2.0,7.0,RX81,6,0.0,0.0,7.0,81.341492931939,babble-reversed_n13_p229-five-p318-two-p307-eight-p268-three-p248-four-p245-one.wav,0,RX81,1,0.0,0.0,2.0,84.40078082039427,mgb_normalisation,84.40078082039426,90.34149293193902,6,3.0,False,3.876227140426636
,2024-07-10 11:22:06,sub_111,3,distance,cathedral,spatial_unmasking,2,70,0,0,_six_,talker-p284_sex-f_text-_six_.wav,p284,f,5,16,2.0,7.0,RX81,6,0.0,0.0,7.0,82.34149293193902,babble-reversed_n13_p256-eight-p318-five-p307-four-p245-three-p268-one-p284-nine.wav,0,RX81,1,0.0,0.0,2.0,84.40078082039426,mgb_normalisation,84.40078082039426,90.34149293193902,6,6.0,True,1.0601961612701416
,2024-07-10 11:22:10,sub_111,3,distance,cathedral,spatial_unmasking,2,71,0,0,_five_,talker-p284_sex-f_text-_five_.wav,p284,f,5,17,2.0,7.0,RX81,6,0.0,0.0,7.0,82.34149293193902,babble-reversed_n13_p307-two-p229-one-p256-five-p248-nine-p284-three-p268-eight.wav,0,RX81,1,0.0,0.0,2.0,84.40078082039427,mgb_normalisation,84.40078082039426,90.34149293193902,5,5.0,True,0.9999921321868896
,2024-07-10 11:22:14,sub_111,3,distance,cathedral,spatial_unmasking,2,72,0,0,_four_,talker-p284_sex-f_text-_four_.wav,p284,f,5,18,2.0,7.0,RX81,6,0.0,0.0,7.0,81.341492931939,babble-reversed_n13_p229-three-p256-nine-p318-five-p248-one-p245-eight-p284-two.wav,0,RX81,1,0.0,0.0,2.0,84.40078082039426,mgb_normalisation,84.40078082039426,90.34149293193902,4,9.0,False,1.5624868869781494
,2024-07-10 11:22:19,sub_111,3,distance,cathedral,spatial_unmasking,2,73,0,0,_four_,talker-p284_sex-f_text-_four_.wav,p284,f,5,19,2.0,7.0,RX81,6,0.0,0.0,7.0,82.341492931939,babble-reversed_n13_p307-four-p318-three-p256-eight-p284-two-p245-nine-p248-five.wav,0,RX81,1,0.0,0.0,2.0,84.40078082039426,mgb_normalisation,84.40078082039426,90.34149293193902,4,9.0,False,2.937678337097168
,2024-07-10 11:22:22,sub_111,3,distance,cathedral,spatial_unmasking,2,74,0,0,_nine_,talker-p284_sex-f_text-_nine_.wav,p284,f,5,20,2.0,7.0,RX81,6,0.0,0.0,7.0,83.34149293193902,babble-reversed_n13_p318-four-p256-five-p229-three-p284-one-p245-eight-p248-nine.wav,0,RX81,1,0.0,0.0,2.0,84.40078082039427,mgb_normalisation,84.40078082039426,90.34149293193902,9,9.0,True,0.9397797584533693
,2024-07-10 11:22:26,sub_111,3,distance,cathedral,spatial_unmasking,2,75,0,0,_two_,talker-p284_sex-f_text-_two_.wav,p284,f,5,21,2.0,7.0,RX81,6,0.0,0.0,7.0,83.34149293193902,babble-reversed_n13_p256-five-p307-nine-p318-three-p284-eight-p268-one-p248-two.wav,0,RX81,1,0.0,0.0,2.0,84.40078082039426,mgb_normalisation,84.40078082039426,90.34149293193902,2,2.0,True,1.1237642765045166
,2024-07-10 11:22:30,sub_111,3,distance,cathedral,spatial_unmasking,2,76,0,0,_four_,talker-p284_sex-f_text-_four_.wav,p284,f,5,22,2.0,7.0,RX81,6,0.0,0.0,7.0,82.341492931939,babble-reversed_n13_p318-one-p307-two-p256-eight-p284-three-p248-five-p245-four.wav,0,RX81,1,0.0,0.0,2.0,84.40078082039427,mgb_normalisation,84.40078082039426,90.34149293193902,4,4.0,True,2.125009536743164
,2024-07-10 11:22:34,sub_111,3,distance,cathedral,spatial_unmasking,2,77,0,0,_five_,talker-p284_sex-f_text-_five_.wav,p284,f,5,23,2.0,7.0,RX81,6,0.0,0.0,7.0,82.34149293193902,babble-reversed_n13_p256-four-p229-eight-p307-five-p248-three-p245-one-p284-two.wav,0,RX81,1,0.0,0.0,2.0,84.40078082039426,mgb_normalisation,84.40078082039426,90.34149293193902,5,5.0,True,0.9999642372131348
,2024-07-10 11:22:37,sub_111,3,distance,cathedral,spatial_unmasking,2,78,0,0,_nine_,talker-p284_sex-f_text-_nine_.wav,p284,f,5,24,2.0,7.0,RX81,6,0.0,0.0,7.0,81.341492931939,babble-reversed_n13_p307-two-p256-four-p318-three-p284-eight-p248-five-p245-nine.wav,0,RX81,1,0.0,0.0,2.0,84.40078082039427,mgb_normalisation,84.40078082039426,90.34149293193902,9,9.0,True,1.0488173961639404
,2024-07-10 11:22:44,sub_111,3,distance,cathedral,spatial_unmasking,2,79,0,0,_four_,talker-p284_sex-f_text-_four_.wav,p284,f,5,25,2.0,7.0,RX81,6,0.0,0.0,7.0,81.341492931939,babble-reversed_n13_p256-two-p307-five-p318-nine-p248-eight-p245-four-p284-one.wav,0,RX81,1,0.0,0.0,2.0,84.40078082039426,mgb_normalisation,84.40078082039426,90.34149293193902,4,9.0,False,4.7498838901519775
,2024-07-10 11:22:48,sub_111,3,distance,cathedral,spatial_unmasking,2,80,0,0,_nine_,talker-p284_sex-f_text-_nine_.wav,p284,f,5,26,2.0,7.0,RX81,6,0.0,0.0,7.0,82.34149293193902,babble-reversed_n13_p318-one-p307-two-p256-eight-p284-three-p248-five-p245-four.wav,0,RX81,1,0.0,0.0,2.0,84.40078082039427,mgb_normalisation,84.40078082039426,90.34149293193902,9,9.0,True,0.8749923706054688
,2024-07-10 11:22:53,sub_111,3,distance,cathedral,spatial_unmasking,2,81,0,0,_eight_,talker-p284_sex-f_text-_eight_.wav,p284,f,5,27,2.0,7.0,RX81,6,0.0,0.0,7.0,82.341492931939,babble-reversed_n13_p229-two-p307-five-p318-four-p284-one-p248-nine-p268-eight.wav,0,RX81,1,0.0,0.0,2.0,84.40078082039426,mgb_normalisation,84.40078082039426,90.34149293193902,8,8.0,True,2.6861164569854736
,2024-07-10 11:22:56,sub_111,3,distance,cathedral,spatial_unmasking,2,82,0,0,_six_,talker-p284_sex-f_text-_six_.wav,p284,f,5,28,2.0,7.0,RX81,6,0.0,0.0,7.0,81.341492931939,babble-reversed_n13_p256-three-p318-two-p229-nine-p248-four-p284-one-p268-eight.wav,0,RX81,1,0.0,0.0,2.0,84.40078082039426,mgb_normalisation,84.40078082039426,90.34149293193902,6,6.0,True,0.7486929893493652
,2024-07-10 11:22:59,sub_111,3,distance,cathedral,spatial_unmasking,2,83,0,0,_two_,talker-p284_sex-f_text-_two_.wav,p284,f,5,29,2.0,7.0,RX81,6,0.0,0.0,7.0,81.34149293193902,babble-reversed_n13_p318-four-p256-five-p229-three-p284-one-p245-eight-p248-nine.wav,0,RX81,1,0.0,0.0,2.0,84.40078082039427,mgb_normalisation,84.40078082039426,90.34149293193902,2,2.0,True,0.9374918937683104
,2024-07-10 11:23:03,sub_111,3,distance,cathedral,spatial_unmasking,2,84,0,0,_one_,talker-p284_sex-f_text-_one_.wav,p284,f,5,30,2.0,7.0,RX81,6,0.0,0.0,7.0,80.34149293193903,babble-reversed_n13_p307-four-p318-three-p256-eight-p284-two-p245-nine-p248-five.wav,0,RX81,1,0.0,0.0,2.0,84.40078082039426,mgb_normalisation,84.40078082039426,90.34149293193902,1,9.0,False,1.1266469955444336
,2024-07-10 11:23:06,sub_111,3,distance,cathedral,spatial_unmasking,2,85,0,0,_two_,talker-p284_sex-f_text-_two_.wav,p284,f,5,31,2.0,7.0,RX81,6,0.0,0.0,7.0,81.34149293193902,babble-reversed_n13_p318-nine-p256-five-p307-eight-p268-three-p248-one-p245-four.wav,0,RX81,1,0.0,0.0,2.0,84.40078082039426,mgb_normalisation,84.40078082039426,90.34149293193902,2,2.0,True,1.0015380382537842
,2024-07-10 11:23:10,sub_111,3,distance,cathedral,spatial_unmasking,2,86,0,0,_five_,talker-p284_sex-f_text-_five_.wav,p284,f,5,32,2.0,7.0,RX81,6,0.0,0.0,7.0,81.34149293193902,babble-reversed_n13_p318-three-p307-one-p256-five-p248-nine-p245-two-p284-eight.wav,0,RX81,1,0.0,0.0,2.0,84.40078082039426,mgb_normalisation,84.40078082039426,90.34149293193902,5,9.0,False,0.9999911785125732
,2024-07-10 11:23:13,sub_111,3,distance,cathedral,spatial_unmasking,2,87,0,0,_three_,talker-p284_sex-f_text-_three_.wav,p284,f,5,33,2.0,7.0,RX81,6,0.0,0.0,7.0,82.34149293193902,babble-reversed_n13_p307-two-p229-one-p256-five-p248-nine-p284-three-p268-eight.wav,0,RX81,1,0.0,0.0,2.0,84.40078082039427,mgb_normalisation,84.40078082039426,90.34149293193902,3,3.0,True,0.999992847442627
,2024-07-10 11:23:16,sub_111,3,distance,cathedral,spatial_unmasking,2,88,0,0,_nine_,talker-p284_sex-f_text-_nine_.wav,p284,f,5,34,2.0,7.0,RX81,6,0.0,0.0,7.0,82.34149293193902,babble-reversed_n13_p229-eight-p256-nine-p318-four-p245-three-p268-five-p284-two.wav,0,RX81,1,0.0,0.0,2.0,84.40078082039426,mgb_normalisation,84.40078082039426,90.34149293193902,9,9.0,True,0.8758983612060547
,2024-07-10 11:25:16,sub_111,3,distance,cathedral,spatial_unmasking,3,89,0,0,_five_,talker-p284_sex-f_text-_five_.wav,p284,f,5,1,7.0,7.0,RX81,6,0.0,0.0,7.0,92.34149293193902,babble-reversed_n13_p307-four-p318-three-p256-eight-p284-two-p245-nine-p248-five.wav,5,RX81,6,0.0,0.0,7.0,90.341492931939,mgb_normalisation,90.34149293193902,90.34149293193902,5,5.0,True,1.1875007152557373
,2024-07-10 11:25:19,sub_111,3,distance,cathedral,spatial_unmasking,3,90,0,0,_two_,talker-p284_sex-f_text-_two_.wav,p284,f,5,2,7.0,7.0,RX81,6,0.0,0.0,7.0,88.34149293193902,babble-reversed_n13_p307-nine-p229-one-p256-eight-p248-four-p284-two-p268-three.wav,5,RX81,6,0.0,0.0,7.0,90.34149293193904,mgb_normalisation,90.34149293193902,90.34149293193902,2,2.0,True,1.0624911785125732
,2024-07-10 11:25:22,sub_111,3,distance,cathedral,spatial_unmasking,3,91,0,0,_nine_,talker-p284_sex-f_text-_nine_.wav,p284,f,5,3,7.0,7.0,RX81,6,0.0,0.0,7.0,84.341492931939,babble-reversed_n13_p256-three-p318-one-p307-two-p284-nine-p268-four-p245-eight.wav,5,RX81,6,0.0,0.0,7.0,90.34149293193904,mgb_normalisation,90.34149293193902,90.34149293193902,9,9.0,True,1.0595111846923828
,2024-07-10 11:25:28,sub_111,3,distance,cathedral,spatial_unmasking,3,92,0,0,_two_,talker-p284_sex-f_text-_two_.wav,p284,f,5,4,7.0,7.0,RX81,6,0.0,0.0,7.0,80.34149293193903,babble-reversed_n13_p229-two-p256-three-p318-eight-p284-five-p268-four-p245-one.wav,5,RX81,6,0.0,0.0,7.0,90.34149293193904,mgb_normalisation,90.34149293193902,90.34149293193902,2,4.0,False,2.9390206336975098
,2024-07-10 11:25:31,sub_111,3,distance,cathedral,spatial_unmasking,3,93,0,0,_six_,talker-p284_sex-f_text-_six_.wav,p284,f,5,5,7.0,7.0,RX81,6,0.0,0.0,7.0,82.34149293193902,babble-reversed_n13_p229-two-p307-five-p318-four-p284-one-p248-nine-p268-eight.wav,5,RX81,6,0.0,0.0,7.0,90.34149293193904,mgb_normalisation,90.34149293193902,90.34149293193902,6,6.0,True,0.9374923706054688
,2024-07-10 11:25:34,sub_111,3,distance,cathedral,spatial_unmasking,3,94,0,0,_six_,talker-p284_sex-f_text-_six_.wav,p284,f,5,6,7.0,7.0,RX81,6,0.0,0.0,7.0,82.34149293193902,babble-reversed_n13_p256-four-p229-eight-p307-five-p248-three-p245-one-p284-two.wav,5,RX81,6,0.0,0.0,7.0,90.341492931939,mgb_normalisation,90.34149293193902,90.34149293193902,6,6.0,True,1.1249914169311523
,2024-07-10 11:25:40,sub_111,3,distance,cathedral,spatial_unmasking,3,95,0,0,_two_,talker-p284_sex-f_text-_two_.wav,p284,f,5,7,7.0,7.0,RX81,6,0.0,0.0,7.0,80.34149293193903,babble-reversed_n13_p229-three-p256-one-p307-two-p284-eight-p268-five-p248-nine.wav,5,RX81,6,0.0,0.0,7.0,90.34149293193904,mgb_normalisation,90.34149293193902,90.34149293193902,2,3.0,False,3.375252485275269
,2024-07-10 11:25:44,sub_111,3,distance,cathedral,spatial_unmasking,3,96,0,0,_eight_,talker-p284_sex-f_text-_eight_.wav,p284,f,5,8,7.0,7.0,RX81,6,0.0,0.0,7.0,81.341492931939,babble-reversed_n13_p229-three-p256-nine-p318-five-p248-one-p245-eight-p284-two.wav,5,RX81,6,0.0,0.0,7.0,90.34149293193904,mgb_normalisation,90.34149293193902,90.34149293193902,8,4.0,False,1.749983787536621
,2024-07-10 11:25:47,sub_111,3,distance,cathedral,spatial_unmasking,3,97,0,0,_nine_,talker-p284_sex-f_text-_nine_.wav,p284,f,5,9,7.0,7.0,RX81,6,0.0,0.0,7.0,82.34149293193902,babble-reversed_n13_p229-two-p318-eight-p256-three-p268-one-p248-nine-p284-five.wav,5,RX81,6,0.0,0.0,7.0,90.341492931939,mgb_normalisation,90.34149293193902,90.34149293193902,9,9.0,True,0.9388539791107178
,2024-07-10 11:25:54,sub_111,3,distance,cathedral,spatial_unmasking,3,98,0,0,_three_,talker-p284_sex-f_text-_three_.wav,p284,f,5,10,7.0,7.0,RX81,6,0.0,0.0,7.0,82.34149293193902,babble-reversed_n13_p256-four-p229-two-p318-five-p268-one-p248-eight-p245-three.wav,5,RX81,6,0.0,0.0,7.0,90.341492931939,mgb_normalisation,90.34149293193902,90.34149293193902,3,5.0,False,4.751338005065918
,2024-07-10 11:25:57,sub_111,3,distance,cathedral,spatial_unmasking,3,99,0,0,_nine_,talker-p284_sex-f_text-_nine_.wav,p284,f,5,11,7.0,7.0,RX81,6,0.0,0.0,7.0,83.34149293193902,babble-reversed_n13_p318-four-p256-five-p229-three-p284-one-p245-eight-p248-nine.wav,5,RX81,6,0.0,0.0,7.0,90.34149293193904,mgb_normalisation,90.34149293193902,90.34149293193902,9,9.0,True,0.8711950778961182
,2024-07-10 11:26:02,sub_111,3,distance,cathedral,spatial_unmasking,3,100,0,0,_four_,talker-p284_sex-f_text-_four_.wav,p284,f,5,12,7.0,7.0,RX81,6,0.0,0.0,7.0,83.34149293193902,babble-reversed_n13_p256-three-p318-two-p229-nine-p248-four-p284-one-p268-eight.wav,5,RX81,6,0.0,0.0,7.0,90.341492931939,mgb_normalisation,90.34149293193902,90.34149293193902,4,5.0,False,2.750999927520752
,2024-07-10 11:26:06,sub_111,3,distance,cathedral,spatial_unmasking,3,101,0,0,_four_,talker-p284_sex-f_text-_four_.wav,p284,f,5,13,7.0,7.0,RX81,6,0.0,0.0,7.0,84.341492931939,babble-reversed_n13_p256-five-p307-nine-p318-three-p284-eight-p268-one-p248-two.wav,5,RX81,6,0.0,0.0,7.0,90.34149293193904,mgb_normalisation,90.34149293193902,90.34149293193902,4,9.0,False,1.7506279945373535
,2024-07-10 11:26:10,sub_111,3,distance,cathedral,spatial_unmasking,3,102,0,0,_one_,talker-p284_sex-f_text-_one_.wav,p284,f,5,14,7.0,7.0,RX81,6,0.0,0.0,7.0,85.34149293193903,babble-reversed_n13_p229-nine-p256-four-p318-three-p268-eight-p248-two-p284-five.wav,5,RX81,6,0.0,0.0,7.0,90.34149293193904,mgb_normalisation,90.34149293193902,90.34149293193902,1,1.0,True,1.0624897480010986
,2024-07-10 11:26:13,sub_111,3,distance,cathedral,spatial_unmasking,3,103,0,0,_two_,talker-p284_sex-f_text-_two_.wav,p284,f,5,15,7.0,7.0,RX81,6,0.0,0.0,7.0,85.34149293193903,babble-reversed_n13_p256-four-p229-two-p318-five-p268-one-p248-eight-p245-three.wav,5,RX81,6,0.0,0.0,7.0,90.341492931939,mgb_normalisation,90.34149293193902,90.34149293193902,2,2.0,True,0.9999918937683104
,2024-07-10 11:26:16,sub_111,3,distance,cathedral,spatial_unmasking,3,104,0,0,_nine_,talker-p284_sex-f_text-_nine_.wav,p284,f,5,16,7.0,7.0,RX81,6,0.0,0.0,7.0,84.341492931939,babble-reversed_n13_p229-three-p256-one-p307-two-p284-eight-p268-five-p248-nine.wav,5,RX81,6,0.0,0.0,7.0,90.34149293193904,mgb_normalisation,90.34149293193902,90.34149293193902,9,9.0,True,0.8722636699676514
,2024-07-10 11:26:20,sub_111,3,distance,cathedral,spatial_unmasking,3,105,0,0,_four_,talker-p284_sex-f_text-_four_.wav,p284,f,5,17,7.0,7.0,RX81,6,0.0,0.0,7.0,84.341492931939,babble-reversed_n13_p307-nine-p229-one-p256-eight-p248-four-p284-two-p268-three.wav,5,RX81,6,0.0,0.0,7.0,90.34149293193904,mgb_normalisation,90.34149293193902,90.34149293193902,4,3.0,False,0.9999921321868896
,2024-07-10 11:26:23,sub_111,3,distance,cathedral,spatial_unmasking,3,106,0,0,_two_,talker-p284_sex-f_text-_two_.wav,p284,f,5,18,7.0,7.0,RX81,6,0.0,0.0,7.0,85.34149293193903,babble-reversed_n13_p307-two-p256-four-p318-three-p284-eight-p248-five-p245-nine.wav,5,RX81,6,0.0,0.0,7.0,90.34149293193904,mgb_normalisation,90.34149293193902,90.34149293193902,2,2.0,True,1.1286463737487793
,2024-07-10 11:26:26,sub_111,3,distance,cathedral,spatial_unmasking,3,107,0,0,_one_,talker-p284_sex-f_text-_one_.wav,p284,f,5,19,7.0,7.0,RX81,6,0.0,0.0,7.0,85.34149293193903,babble-reversed_n13_p318-five-p229-four-p256-eight-p284-one-p245-three-p248-two.wav,5,RX81,6,0.0,0.0,7.0,90.34149293193904,mgb_normalisation,90.34149293193902,90.34149293193902,1,1.0,True,1.0664656162261963
,2024-07-10 11:26:32,sub_111,3,distance,cathedral,spatial_unmasking,3,108,0,0,_four_,talker-p284_sex-f_text-_four_.wav,p284,f,5,20,7.0,7.0,RX81,6,0.0,0.0,7.0,84.341492931939,babble-reversed_n13_p229-one-p318-nine-p256-four-p284-eight-p268-five-p245-two.wav,5,RX81,6,0.0,0.0,7.0,90.34149293193904,mgb_normalisation,90.34149293193902,90.34149293193902,4,4.0,True,2.813821315765381
,2024-07-10 11:26:35,sub_111,3,distance,cathedral,spatial_unmasking,3,109,0,0,_one_,talker-p284_sex-f_text-_one_.wav,p284,f,5,21,7.0,7.0,RX81,6,0.0,0.0,7.0,84.341492931939,babble-reversed_n13_p256-eight-p318-five-p307-four-p245-three-p268-one-p284-nine.wav,5,RX81,6,0.0,0.0,7.0,90.341492931939,mgb_normalisation,90.34149293193902,90.34149293193902,1,1.0,True,0.8749918937683105
,2024-07-10 11:26:38,sub_111,3,distance,cathedral,spatial_unmasking,3,110,0,0,_nine_,talker-p284_sex-f_text-_nine_.wav,p284,f,5,22,7.0,7.0,RX81,6,0.0,0.0,7.0,83.34149293193902,babble-reversed_n13_p307-five-p229-two-p318-four-p248-three-p245-nine-p268-eight.wav,5,RX81,6,0.0,0.0,7.0,90.341492931939,mgb_normalisation,90.34149293193902,90.34149293193902,9,9.0,True,1.0625097751617432
,2024-07-10 11:26:42,sub_111,3,distance,cathedral,spatial_unmasking,3,111,0,0,_three_,talker-p284_sex-f_text-_three_.wav,p284,f,5,23,7.0,7.0,RX81,6,0.0,0.0,7.0,83.34149293193903,babble-reversed_n13_p229-one-p318-eight-p256-three-p268-two-p245-five-p248-nine.wav,5,RX81,6,0.0,0.0,7.0,90.341492931939,mgb_normalisation,90.34149293193902,90.34149293193902,3,3.0,True,1.3078558444976809
,2024-07-10 11:26:45,sub_111,3,distance,cathedral,spatial_unmasking,3,112,0,0,_two_,talker-p284_sex-f_text-_two_.wav,p284,f,5,24,7.0,7.0,RX81,6,0.0,0.0,7.0,82.34149293193902,babble-reversed_n13_p256-four-p229-eight-p307-five-p248-three-p245-one-p284-two.wav,5,RX81,6,0.0,0.0,7.0,90.341492931939,mgb_normalisation,90.34149293193902,90.34149293193902,2,2.0,True,1.124993085861206
,2024-07-10 11:26:48,sub_111,3,distance,cathedral,spatial_unmasking,3,113,0,0,_nine_,talker-p284_sex-f_text-_nine_.wav,p284,f,5,25,7.0,7.0,RX81,6,0.0,0.0,7.0,82.34149293193902,babble-reversed_n13_p229-nine-p256-four-p318-three-p268-eight-p248-two-p284-five.wav,5,RX81,6,0.0,0.0,7.0,90.34149293193904,mgb_normalisation,90.34149293193902,90.34149293193902,9,9.0,True,0.9999911785125732
,2024-07-10 11:26:52,sub_111,3,distance,cathedral,spatial_unmasking,3,114,0,0,_two_,talker-p284_sex-f_text-_two_.wav,p284,f,5,26,7.0,7.0,RX81,6,0.0,0.0,7.0,81.34149293193902,babble-reversed_n13_p229-nine-p318-one-p307-two-p248-eight-p245-five-p284-four.wav,5,RX81,6,0.0,0.0,7.0,90.34149293193904,mgb_normalisation,90.34149293193902,90.34149293193902,2,2.0,True,1.0583045482635498
,2024-07-10 11:26:55,sub_111,3,distance,cathedral,spatial_unmasking,3,115,0,0,_one_,talker-p284_sex-f_text-_one_.wav,p284,f,5,27,7.0,7.0,RX81,6,0.0,0.0,7.0,81.34149293193902,babble-reversed_n13_p229-two-p318-eight-p256-three-p268-one-p248-nine-p284-five.wav,5,RX81,6,0.0,0.0,7.0,90.341492931939,mgb_normalisation,90.34149293193902,90.34149293193902,1,1.0,True,1.1249876022338867
,2024-07-10 11:26:59,sub_111,3,distance,cathedral,spatial_unmasking,3,116,0,0,_eight_,talker-p284_sex-f_text-_eight_.wav,p284,f,5,28,7.0,7.0,RX81,6,0.0,0.0,7.0,80.341492931939,babble-reversed_n13_p229-two-p318-eight-p256-three-p268-one-p248-nine-p284-five.wav,5,RX81,6,0.0,0.0,7.0,90.341492931939,mgb_normalisation,90.34149293193902,90.34149293193902,8,4.0,False,1.4999866485595703
,2024-07-10 11:27:02,sub_111,3,distance,cathedral,spatial_unmasking,3,117,0,0,_eight_,talker-p284_sex-f_text-_eight_.wav,p284,f,5,29,7.0,7.0,RX81,6,0.0,0.0,7.0,81.341492931939,babble-reversed_n13_p229-five-p256-one-p318-three-p248-nine-p268-four-p284-eight.wav,5,RX81,6,0.0,0.0,7.0,90.341492931939,mgb_normalisation,90.34149293193902,90.34149293193902,8,8.0,True,0.8741028308868408
,2024-07-10 11:27:06,sub_111,3,distance,cathedral,spatial_unmasking,3,118,0,0,_four_,talker-p284_sex-f_text-_four_.wav,p284,f,5,30,7.0,7.0,RX81,6,0.0,0.0,7.0,81.341492931939,babble-reversed_n13_p307-two-p256-four-p318-three-p284-eight-p248-five-p245-nine.wav,5,RX81,6,0.0,0.0,7.0,90.34149293193904,mgb_normalisation,90.34149293193902,90.34149293193902,4,9.0,False,1.3124608993530271
,2024-07-10 11:27:09,sub_111,3,distance,cathedral,spatial_unmasking,3,119,0,0,_three_,talker-p284_sex-f_text-_three_.wav,p284,f,5,31,7.0,7.0,RX81,6,0.0,0.0,7.0,82.34149293193902,babble-reversed_n13_p229-five-p318-three-p307-two-p245-four-p284-nine-p248-eight.wav,5,RX81,6,0.0,0.0,7.0,90.34149293193904,mgb_normalisation,90.34149293193902,90.34149293193902,3,3.0,True,1.187490463256836
,2024-07-10 11:27:13,sub_111,3,distance,cathedral,spatial_unmasking,3,120,0,0,_two_,talker-p284_sex-f_text-_two_.wav,p284,f,5,32,7.0,7.0,RX81,6,0.0,0.0,7.0,82.34149293193902,babble-reversed_n13_p307-nine-p318-two-p256-one-p245-three-p268-four-p248-eight.wav,5,RX81,6,0.0,0.0,7.0,90.341492931939,mgb_normalisation,90.34149293193902,90.34149293193902,2,2.0,True,1.7373919486999512
,2024-07-10 11:27:17,sub_111,3,distance,cathedral,spatial_unmasking,3,121,0,0,_nine_,talker-p284_sex-f_text-_nine_.wav,p284,f,5,33,7.0,7.0,RX81,6,0.0,0.0,7.0,81.341492931939,babble-reversed_n13_p229-two-p318-eight-p256-three-p268-one-p248-nine-p284-five.wav,5,RX81,6,0.0,0.0,7.0,90.341492931939,mgb_normalisation,90.34149293193902,90.34149293193902,9,9.0,True,1.6242752075195312
,2024-07-10 11:27:22,sub_111,3,distance,cathedral,spatial_unmasking,3,122,0,0,_four_,talker-p284_sex-f_text-_four_.wav,p284,f,5,34,7.0,7.0,RX81,6,0.0,0.0,7.0,81.341492931939,babble-reversed_n13_p229-nine-p318-one-p307-two-p248-eight-p245-five-p284-four.wav,5,RX81,6,0.0,0.0,7.0,90.34149293193904,mgb_normalisation,90.34149293193902,90.34149293193902,4,8.0,False,2.2472448348999023
,2024-07-10 11:27:25,sub_111,3,distance,cathedral,spatial_unmasking,3,123,0,0,_three_,talker-p284_sex-f_text-_three_.wav,p284,f,5,35,7.0,7.0,RX81,6,0.0,0.0,7.0,82.34149293193902,babble-reversed_n13_p307-nine-p318-two-p256-one-p245-three-p268-four-p248-eight.wav,5,RX81,6,0.0,0.0,7.0,90.341492931939,mgb_normalisation,90.34149293193902,90.34149293193902,3,3.0,True,1.187510967254639
,2024-07-10 11:27:30,sub_111,3,distance,cathedral,spatial_unmasking,3,124,0,0,_four_,talker-p284_sex-f_text-_four_.wav,p284,f,5,36,7.0,7.0,RX81,6,0.0,0.0,7.0,82.341492931939,babble-reversed_n13_p318-nine-p307-eight-p229-two-p284-one-p248-three-p245-five.wav,5,RX81,6,0.0,0.0,7.0,90.34149293193904,mgb_normalisation,90.34149293193902,90.34149293193902,4,4.0,True,2.624976873397827
,2024-07-10 11:27:36,sub_111,3,distance,cathedral,spatial_unmasking,3,125,0,0,_eight_,talker-p284_sex-f_text-_eight_.wav,p284,f,5,37,7.0,7.0,RX81,6,0.0,0.0,7.0,81.341492931939,babble-reversed_n13_p256-four-p229-two-p318-five-p268-one-p248-eight-p245-three.wav,5,RX81,6,0.0,0.0,7.0,90.341492931939,mgb_normalisation,90.34149293193902,90.34149293193902,8,4.0,False,3.1874728202819824
,2024-07-10 11:27:42,sub_111,3,distance,cathedral,spatial_unmasking,3,126,0,0,_two_,talker-p284_sex-f_text-_two_.wav,p284,f,5,38,7.0,7.0,RX81,6,0.0,0.0,7.0,82.34149293193902,babble-reversed_n13_p307-five-p229-two-p318-four-p248-three-p245-nine-p268-eight.wav,5,RX81,6,0.0,0.0,7.0,90.341492931939,mgb_normalisation,90.34149293193902,90.34149293193902,2,3.0,False,3.559281587600708
,2024-07-10 11:27:45,sub_111,3,distance,cathedral,spatial_unmasking,3,127,0,0,_five_,talker-p284_sex-f_text-_five_.wav,p284,f,5,39,7.0,7.0,RX81,6,0.0,0.0,7.0,83.34149293193902,babble-reversed_n13_p229-one-p318-nine-p256-four-p284-eight-p268-five-p245-two.wav,5,RX81,6,0.0,0.0,7.0,90.34149293193904,mgb_normalisation,90.34149293193902,90.34149293193902,5,5.0,True,1.4374871253967283
,2024-07-10 11:27:48,sub_111,3,distance,cathedral,spatial_unmasking,3,128,0,0,_nine_,talker-p284_sex-f_text-_nine_.wav,p284,f,5,40,7.0,7.0,RX81,6,0.0,0.0,7.0,83.34149293193902,babble-reversed_n13_p229-five-p318-three-p307-two-p245-four-p284-nine-p248-eight.wav,5,RX81,6,0.0,0.0,7.0,90.34149293193904,mgb_normalisation,90.34149293193902,90.34149293193902,9,9.0,True,0.8124656677246094
,2024-07-10 11:30:21,sub_111,3,distance,cathedral,spatial_unmasking,4,129,0,0,_one_,talker-p284_sex-f_text-_one_.wav,p284,f,5,1,8.0,7.0,RX81,6,0.0,0.0,7.0,92.34149293193902,babble-reversed_n13_p229-one-p318-eight-p256-three-p268-two-p245-five-p248-nine.wav,6,RX81,7,0.0,0.0,8.0,91.58892582949886,mgb_normalisation,91.58892582949886,90.34149293193902,1,1.0,True,1.1249980926513672
,2024-07-10 11:30:24,sub_111,3,distance,cathedral,spatial_unmasking,4,130,0,0,_six_,talker-p284_sex-f_text-_six_.wav,p284,f,5,2,8.0,7.0,RX81,6,0.0,0.0,7.0,88.34149293193902,babble-reversed_n13_p318-nine-p256-five-p307-eight-p268-three-p248-one-p245-four.wav,6,RX81,7,0.0,0.0,8.0,91.58892582949888,mgb_normalisation,91.58892582949886,90.34149293193902,6,6.0,True,0.812492847442627
,2024-07-10 11:30:27,sub_111,3,distance,cathedral,spatial_unmasking,4,131,0,0,_eight_,talker-p284_sex-f_text-_eight_.wav,p284,f,5,3,8.0,7.0,RX81,6,0.0,0.0,7.0,84.341492931939,babble-reversed_n13_p318-five-p229-four-p256-eight-p284-one-p245-three-p248-two.wav,6,RX81,7,0.0,0.0,8.0,91.58892582949888,mgb_normalisation,91.58892582949886,90.34149293193902,8,8.0,True,0.938448429107666
,2024-07-10 11:30:32,sub_111,3,distance,cathedral,spatial_unmasking,4,132,0,0,_four_,talker-p284_sex-f_text-_four_.wav,p284,f,5,4,8.0,7.0,RX81,6,0.0,0.0,7.0,80.341492931939,babble-reversed_n13_p318-four-p256-five-p229-three-p284-one-p245-eight-p248-nine.wav,6,RX81,7,0.0,0.0,8.0,91.58892582949888,mgb_normalisation,91.58892582949886,90.34149293193902,4,4.0,True,2.313528299331665
,2024-07-10 11:30:36,sub_111,3,distance,cathedral,spatial_unmasking,4,133,0,0,_nine_,talker-p284_sex-f_text-_nine_.wav,p284,f,5,5,8.0,7.0,RX81,6,0.0,0.0,7.0,76.34149293193902,babble-reversed_n13_p307-five-p229-three-p318-nine-p245-four-p268-eight-p284-two.wav,6,RX81,7,0.0,0.0,8.0,91.58892582949886,mgb_normalisation,91.58892582949886,90.34149293193902,9,9.0,True,0.9999902248382568
,2024-07-10 11:30:40,sub_111,3,distance,cathedral,spatial_unmasking,4,134,0,0,_six_,talker-p284_sex-f_text-_six_.wav,p284,f,5,6,8.0,7.0,RX81,6,0.0,0.0,7.0,72.341492931939,babble-reversed_n13_p307-one-p318-five-p229-four-p268-eight-p284-two-p245-three.wav,6,RX81,7,0.0,0.0,8.0,91.58892582949886,mgb_normalisation,91.58892582949886,90.34149293193902,6,3.0,False,1.7499852180480957
,2024-07-10 11:30:43,sub_111,3,distance,cathedral,spatial_unmasking,4,135,0,0,_one_,talker-p284_sex-f_text-_one_.wav,p284,f,5,7,8.0,7.0,RX81,6,0.0,0.0,7.0,74.34149293193902,babble-reversed_n13_p229-nine-p318-one-p307-two-p248-eight-p245-five-p284-four.wav,6,RX81,7,0.0,0.0,8.0,91.58892582949886,mgb_normalisation,91.58892582949886,90.34149293193902,1,9.0,False,1.1882855892181396
,2024-07-10 11:30:47,sub_111,3,distance,cathedral,spatial_unmasking,4,136,0,0,_nine_,talker-p284_sex-f_text-_nine_.wav,p284,f,5,8,8.0,7.0,RX81,6,0.0,0.0,7.0,76.34149293193902,babble-reversed_n13_p229-five-p318-two-p307-eight-p268-three-p248-four-p245-one.wav,6,RX81,7,0.0,0.0,8.0,91.58892582949888,mgb_normalisation,91.58892582949886,90.34149293193902,9,9.0,True,0.9376630783081056
,2024-07-10 11:30:51,sub_111,3,distance,cathedral,spatial_unmasking,4,137,0,0,_four_,talker-p284_sex-f_text-_four_.wav,p284,f,5,9,8.0,7.0,RX81,6,0.0,0.0,7.0,76.34149293193902,babble-reversed_n13_p318-four-p256-five-p229-three-p284-one-p245-eight-p248-nine.wav,6,RX81,7,0.0,0.0,8.0,91.58892582949888,mgb_normalisation,91.58892582949886,90.34149293193902,4,9.0,False,1.999982118606568
,2024-07-10 11:30:54,sub_111,3,distance,cathedral,spatial_unmasking,4,138,0,0,_three_,talker-p284_sex-f_text-_three_.wav,p284,f,5,10,8.0,7.0,RX81,6,0.0,0.0,7.0,78.34149293193902,babble-reversed_n13_p318-five-p229-four-p256-eight-p284-one-p245-three-p248-two.wav,6,RX81,7,0.0,0.0,8.0,91.58892582949888,mgb_normalisation,91.58892582949886,90.34149293193902,3,3.0,True,1.062490701675415
,2024-07-10 11:30:58,sub_111,3,distance,cathedral,spatial_unmasking,4,139,0,0,_one_,talker-p284_sex-f_text-_one_.wav,p284,f,5,11,8.0,7.0,RX81,6,0.0,0.0,7.0,78.34149293193902,babble-reversed_n13_p318-three-p229-one-p256-eight-p245-five-p248-four-p284-nine.wav,6,RX81,7,0.0,0.0,8.0,91.58892582949888,mgb_normalisation,91.58892582949886,90.34149293193902,1,1.0,True,1.1853134632110596
,2024-07-10 11:31:02,sub_111,3,distance,cathedral,spatial_unmasking,4,140,0,0,_two_,talker-p284_sex-f_text-_two_.wav,p284,f,5,12,8.0,7.0,RX81,6,0.0,0.0,7.0,76.34149293193902,babble-reversed_n13_p318-four-p256-five-p229-three-p284-one-p245-eight-p248-nine.wav,6,RX81,7,0.0,0.0,8.0,91.58892582949888,mgb_normalisation,91.58892582949886,90.34149293193902,2,2.0,True,1.24934983253479
,2024-07-10 11:31:05,sub_111,3,distance,cathedral,spatial_unmasking,4,141,0,0,_three_,talker-p284_sex-f_text-_three_.wav,p284,f,5,13,8.0,7.0,RX81,6,0.0,0.0,7.0,76.34149293193902,babble-reversed_n13_p318-five-p229-three-p256-four-p268-eight-p248-one-p245-nine.wav,6,RX81,7,0.0,0.0,8.0,91.58892582949888,mgb_normalisation,91.58892582949886,90.34149293193902,3,3.0,True,1.187490701675415
,2024-07-10 11:31:10,sub_111,3,distance,cathedral,spatial_unmasking,4,142,0,0,_four_,talker-p284_sex-f_text-_four_.wav,p284,f,5,14,8.0,7.0,RX81,6,0.0,0.0,7.0,74.341492931939,babble-reversed_n13_p318-nine-p256-five-p307-eight-p268-three-p248-one-p245-four.wav,6,RX81,7,0.0,0.0,8.0,91.58892582949888,mgb_normalisation,91.58892582949886,90.34149293193902,4,4.0,True,1.874983787536621
,2024-07-10 11:31:13,sub_111,3,distance,cathedral,spatial_unmasking,4,143,0,0,_five_,talker-p284_sex-f_text-_five_.wav,p284,f,5,15,8.0,7.0,RX81,6,0.0,0.0,7.0,74.34149293193902,babble-reversed_n13_p229-three-p307-one-p318-two-p245-eight-p268-five-p284-four.wav,6,RX81,7,0.0,0.0,8.0,91.58892582949888,mgb_normalisation,91.58892582949886,90.34149293193902,5,5.0,True,0.9983818531036376
,2024-07-10 11:31:17,sub_111,3,distance,cathedral,spatial_unmasking,4,144,0,0,_eight_,talker-p284_sex-f_text-_eight_.wav,p284,f,5,16,8.0,7.0,RX81,6,0.0,0.0,7.0,72.341492931939,babble-reversed_n13_p256-five-p307-nine-p318-three-p284-eight-p268-one-p248-two.wav,6,RX81,7,0.0,0.0,8.0,91.58892582949886,mgb_normalisation,91.58892582949886,90.34149293193902,8,8.0,True,1.3124892711639404
,2024-07-10 11:31:21,sub_111,3,distance,cathedral,spatial_unmasking,4,145,0,0,_nine_,talker-p284_sex-f_text-_nine_.wav,p284,f,5,17,8.0,7.0,RX81,6,0.0,0.0,7.0,72.341492931939,babble-reversed_n13_p229-two-p307-five-p318-four-p284-one-p248-nine-p268-eight.wav,6,RX81,7,0.0,0.0,8.0,91.58892582949888,mgb_normalisation,91.58892582949886,90.34149293193902,9,9.0,True,2.249981641769409
,2024-07-10 11:31:25,sub_111,3,distance,cathedral,spatial_unmasking,4,146,0,0,_eight_,talker-p284_sex-f_text-_eight_.wav,p284,f,5,18,8.0,7.0,RX81,6,0.0,0.0,7.0,70.341492931939,babble-reversed_n13_p318-five-p256-nine-p307-two-p245-eight-p248-one-p284-four.wav,6,RX81,7,0.0,0.0,8.0,91.58892582949888,mgb_normalisation,91.58892582949886,90.34149293193902,8,3.0,False,1.4374878406524658
,2024-07-10 11:31:29,sub_111,3,distance,cathedral,spatial_unmasking,4,147,0,0,_five_,talker-p284_sex-f_text-_five_.wav,p284,f,5,19,8.0,7.0,RX81,6,0.0,0.0,7.0,71.34149293193902,babble-reversed_n13_p229-five-p318-two-p307-eight-p268-three-p248-four-p245-one.wav,6,RX81,7,0.0,0.0,8.0,91.58892582949888,mgb_normalisation,91.58892582949886,90.34149293193902,5,5.0,True,1.1853604316711426
,2024-07-10 11:31:32,sub_111,3,distance,cathedral,spatial_unmasking,4,148,0,0,_three_,talker-p284_sex-f_text-_three_.wav,p284,f,5,20,8.0,7.0,RX81,6,0.0,0.0,7.0,71.34149293193903,babble-reversed_n13_p256-three-p318-one-p307-two-p284-nine-p268-four-p245-eight.wav,6,RX81,7,0.0,0.0,8.0,91.58892582949888,mgb_normalisation,91.58892582949886,90.34149293193902,3,9.0,False,0.9345123767852784
,2024-07-10 11:31:36,sub_111,3,distance,cathedral,spatial_unmasking,4,149,0,0,_three_,talker-p284_sex-f_text-_three_.wav,p284,f,5,21,8.0,7.0,RX81,6,0.0,0.0,7.0,72.34149293193903,babble-reversed_n13_p256-eight-p229-three-p307-nine-p245-five-p248-four-p268-two.wav,6,RX81,7,0.0,0.0,8.0,91.58892582949886,mgb_normalisation,91.58892582949886,90.34149293193902,3,3.0,True,1.9999823570251465
,2024-07-10 11:31:40,sub_111,3,distance,cathedral,spatial_unmasking,4,150,0,0,_six_,talker-p284_sex-f_text-_six_.wav,p284,f,5,22,8.0,7.0,RX81,6,0.0,0.0,7.0,72.341492931939,babble-reversed_n13_p229-three-p307-one-p318-two-p245-eight-p268-five-p284-four.wav,6,RX81,7,0.0,0.0,8.0,91.58892582949888,mgb_normalisation,91.58892582949886,90.34149293193902,6,4.0,False,1.4999868869781494
,2024-07-10 11:31:44,sub_111,3,distance,cathedral,spatial_unmasking,4,151,0,0,_nine_,talker-p284_sex-f_text-_nine_.wav,p284,f,5,23,8.0,7.0,RX81,6,0.0,0.0,7.0,73.34149293193902,babble-reversed_n13_p318-one-p307-two-p256-eight-p284-three-p248-five-p245-four.wav,6,RX81,7,0.0,0.0,8.0,91.58892582949888,mgb_normalisation,91.58892582949886,90.34149293193902,9,4.0,False,1.5625450611114502
,2024-07-10 11:31:48,sub_111,3,distance,cathedral,spatial_unmasking,4,152,0,0,_four_,talker-p284_sex-f_text-_four_.wav,p284,f,5,24,8.0,7.0,RX81,6,0.0,0.0,7.0,74.341492931939,babble-reversed_n13_p318-five-p256-nine-p307-two-p245-eight-p248-one-p284-four.wav,6,RX81,7,0.0,0.0,8.0,91.58892582949888,mgb_normalisation,91.58892582949886,90.34149293193902,4,3.0,False,1.563279390335083
,2024-07-10 11:31:52,sub_111,3,distance,cathedral,spatial_unmasking,4,153,0,0,_four_,talker-p284_sex-f_text-_four_.wav,p284,f,5,25,8.0,7.0,RX81,6,0.0,0.0,7.0,75.341492931939,babble-reversed_n13_p307-two-p256-four-p318-three-p284-eight-p248-five-p245-nine.wav,6,RX81,7,0.0,0.0,8.0,91.58892582949888,mgb_normalisation,91.58892582949886,90.34149293193902,4,2.0,False,1.752906322479248
,2024-07-10 11:31:56,sub_111,3,distance,cathedral,spatial_unmasking,4,154,0,0,_two_,talker-p284_sex-f_text-_two_.wav,p284,f,5,26,8.0,7.0,RX81,6,0.0,0.0,7.0,76.34149293193902,babble-reversed_n13_p318-one-p307-two-p256-eight-p284-three-p248-five-p245-four.wav,6,RX81,7,0.0,0.0,8.0,91.58892582949888,mgb_normalisation,91.58892582949886,90.34149293193902,2,4.0,False,1.624986171722412
,2024-07-10 11:32:00,sub_111,3,distance,cathedral,spatial_unmasking,4,155,0,0,_one_,talker-p284_sex-f_text-_one_.wav,p284,f,5,27,8.0,7.0,RX81,6,0.0,0.0,7.0,77.34149293193902,babble-reversed_n13_p256-two-p307-five-p318-nine-p248-eight-p245-four-p284-one.wav,6,RX81,7,0.0,0.0,8.0,91.58892582949888,mgb_normalisation,91.58892582949886,90.34149293193902,1,1.0,True,0.9999911785125732
,2024-07-10 11:32:06,sub_111,3,distance,cathedral,spatial_unmasking,4,156,0,0,_one_,talker-p284_sex-f_text-_one_.wav,p284,f,5,28,8.0,7.0,RX81,6,0.0,0.0,7.0,77.34149293193902,babble-reversed_n13_p256-four-p307-eight-p318-two-p248-three-p284-nine-p268-one.wav,6,RX81,7,0.0,0.0,8.0,91.58892582949888,mgb_normalisation,91.58892582949886,90.34149293193902,1,9.0,False,3.687211751937866
,2024-07-10 11:32:11,sub_111,3,distance,cathedral,spatial_unmasking,4,157,0,0,_eight_,talker-p284_sex-f_text-_eight_.wav,p284,f,5,29,8.0,7.0,RX81,6,0.0,0.0,7.0,78.341492931939,babble-reversed_n13_p256-four-p229-eight-p307-five-p248-three-p245-one-p284-two.wav,6,RX81,7,0.0,0.0,8.0,91.58892582949886,mgb_normalisation,91.58892582949886,90.34149293193902,8,3.0,False,2.3749794960021973
,2024-07-10 11:32:19,sub_111,3,distance,cathedral,spatial_unmasking,4,158,0,0,_one_,talker-p284_sex-f_text-_one_.wav,p284,f,5,30,8.0,7.0,RX81,6,0.0,0.0,7.0,79.34149293193902,babble-reversed_n13_p229-two-p307-five-p318-four-p284-one-p248-nine-p268-eight.wav,6,RX81,7,0.0,0.0,8.0,91.58892582949888,mgb_normalisation,91.58892582949886,90.34149293193902,1,9.0,False,5.687591552734375
,2024-07-10 11:32:22,sub_111,3,distance,cathedral,spatial_unmasking,4,159,0,0,_three_,talker-p284_sex-f_text-_three_.wav,p284,f,5,31,8.0,7.0,RX81,6,0.0,0.0,7.0,80.34149293193903,babble-reversed_n13_p229-two-p307-five-p318-four-p284-one-p248-nine-p268-eight.wav,6,RX81,7,0.0,0.0,8.0,91.58892582949888,mgb_normalisation,91.58892582949886,90.34149293193902,3,3.0,True,1.177520513534546
,2024-07-10 11:32:26,sub_111,3,distance,cathedral,spatial_unmasking,4,160,0,0,_three_,talker-p284_sex-f_text-_three_.wav,p284,f,5,32,8.0,7.0,RX81,6,0.0,0.0,7.0,80.34149293193903,babble-reversed_n13_p307-two-p256-four-p318-three-p284-eight-p248-five-p245-nine.wav,6,RX81,7,0.0,0.0,8.0,91.58892582949888,mgb_normalisation,91.58892582949886,90.34149293193902,3,3.0,True,1.124990701675415
,2024-07-10 11:32:30,sub_111,3,distance,cathedral,spatial_unmasking,4,161,0,0,_four_,talker-p284_sex-f_text-_four_.wav,p284,f,5,33,8.0,7.0,RX81,6,0.0,0.0,7.0,79.341492931939,babble-reversed_n13_p318-nine-p256-five-p307-eight-p268-three-p248-one-p245-four.wav,6,RX81,7,0.0,0.0,8.0,91.58892582949888,mgb_normalisation,91.58892582949886,90.34149293193902,4,2.0,False,1.437488079071045
,2024-07-10 11:32:33,sub_111,3,distance,cathedral,spatial_unmasking,4,162,0,0,_nine_,talker-p284_sex-f_text-_nine_.wav,p284,f,5,34,8.0,7.0,RX81,6,0.0,0.0,7.0,80.341492931939,babble-reversed_n13_p307-five-p229-three-p318-nine-p245-four-p268-eight-p284-two.wav,6,RX81,7,0.0,0.0,8.0,91.58892582949886,mgb_normalisation,91.58892582949886,90.34149293193902,9,9.0,True,1.0629475116729736
,2024-07-10 11:32:37,sub_111,3,distance,cathedral,spatial_unmasking,4,163,0,0,_three_,talker-p284_sex-f_text-_three_.wav,p284,f,5,35,8.0,7.0,RX81,6,0.0,0.0,7.0,80.34149293193903,babble-reversed_n13_p256-five-p229-one-p318-three-p248-nine-p284-eight-p268-two.wav,6,RX81,7,0.0,0.0,8.0,91.58892582949888,mgb_normalisation,91.58892582949886,90.34149293193902,3,3.0,True,1.125017166137695
,2024-07-10 11:32:40,sub_111,3,distance,cathedral,spatial_unmasking,4,164,0,0,_six_,talker-p284_sex-f_text-_six_.wav,p284,f,5,36,8.0,7.0,RX81,6,0.0,0.0,7.0,79.341492931939,babble-reversed_n13_p229-three-p256-nine-p318-five-p248-one-p245-eight-p284-two.wav,6,RX81,7,0.0,0.0,8.0,91.58892582949888,mgb_normalisation,91.58892582949886,90.34149293193902,6,6.0,True,0.875056266784668
,2024-07-10 11:32:44,sub_111,3,distance,cathedral,spatial_unmasking,4,165,0,0,_one_,talker-p284_sex-f_text-_one_.wav,p284,f,5,37,8.0,7.0,RX81,6,0.0,0.0,7.0,79.34149293193902,babble-reversed_n13_p256-four-p307-eight-p318-two-p248-three-p284-nine-p268-one.wav,6,RX81,7,0.0,0.0,8.0,91.58892582949888,mgb_normalisation,91.58892582949886,90.34149293193902,1,9.0,False,1.3626716136932373
,2024-07-10 11:32:47,sub_111,3,distance,cathedral,spatial_unmasking,4,166,0,0,_five_,talker-p284_sex-f_text-_five_.wav,p284,f,5,38,8.0,7.0,RX81,6,0.0,0.0,7.0,80.34149293193903,babble-reversed_n13_p256-five-p229-one-p318-three-p248-nine-p284-eight-p268-two.wav,6,RX81,7,0.0,0.0,8.0,91.58892582949888,mgb_normalisation,91.58892582949886,90.34149293193902,5,5.0,True,0.936819076538086
,2024-07-10 11:32:50,sub_111,3,distance,cathedral,spatial_unmasking,4,167,0,0,_two_,talker-p284_sex-f_text-_two_.wav,p284,f,5,39,8.0,7.0,RX81,6,0.0,0.0,7.0,80.34149293193903,babble-reversed_n13_p307-two-p256-four-p318-three-p284-eight-p248-five-p245-nine.wav,6,RX81,7,0.0,0.0,8.0,91.58892582949888,mgb_normalisation,91.58892582949886,90.34149293193902,2,3.0,False,0.9999914169311525
,2024-07-10 11:32:54,sub_111,3,distance,cathedral,spatial_unmasking,4,168,0,0,_eight_,talker-p284_sex-f_text-_eight_.wav,p284,f,5,40,8.0,7.0,RX81,6,0.0,0.0,7.0,81.341492931939,babble-reversed_n13_p318-one-p307-two-p256-eight-p284-three-p248-five-p245-four.wav,6,RX81,7,0.0,0.0,8.0,91.58892582949888,mgb_normalisation,91.58892582949886,90.34149293193902,8,8.0,True,1.1250455379486084
,2024-07-10 11:32:58,sub_111,3,distance,cathedral,spatial_unmasking,4,169,0,0,_eight_,talker-p284_sex-f_text-_eight_.wav,p284,f,5,41,8.0,7.0,RX81,6,0.0,0.0,7.0,81.341492931939,babble-reversed_n13_p318-three-p229-one-p256-eight-p245-five-p248-four-p284-nine.wav,6,RX81,7,0.0,0.0,8.0,91.58892582949888,mgb_normalisation,91.58892582949886,90.34149293193902,8,8.0,True,1.4989328384399414
,2024-07-10 11:33:01,sub_111,3,distance,cathedral,spatial_unmasking,4,170,0,0,_six_,talker-p284_sex-f_text-_six_.wav,p284,f,5,42,8.0,7.0,RX81,6,0.0,0.0,7.0,80.341492931939,babble-reversed_n13_p307-two-p256-four-p318-three-p284-eight-p248-five-p245-nine.wav,6,RX81,7,0.0,0.0,8.0,91.58892582949888,mgb_normalisation,91.58892582949886,90.34149293193902,6,6.0,True,0.8749423027038574
,2024-07-10 11:33:04,sub_111,3,distance,cathedral,spatial_unmasking,4,171,0,0,_nine_,talker-p284_sex-f_text-_nine_.wav,p284,f,5,43,8.0,7.0,RX81,6,0.0,0.0,7.0,80.341492931939,babble-reversed_n13_p229-nine-p318-one-p307-two-p248-eight-p245-five-p284-four.wav,6,RX81,7,0.0,0.0,8.0,91.58892582949886,mgb_normalisation,91.58892582949886,90.34149293193902,9,9.0,True,0.9375557899475098
,2024-07-10 11:33:08,sub_111,3,distance,cathedral,spatial_unmasking,4,172,0,0,_six_,talker-p284_sex-f_text-_six_.wav,p284,f,5,44,8.0,7.0,RX81,6,0.0,0.0,7.0,79.341492931939,babble-reversed_n13_p256-eight-p229-three-p307-nine-p245-five-p248-four-p268-two.wav,6,RX81,7,0.0,0.0,8.0,91.58892582949886,mgb_normalisation,91.58892582949886,90.34149293193902,6,6.0,True,0.6863884925842285
,2024-07-10 11:33:11,sub_111,3,distance,cathedral,spatial_unmasking,4,173,0,0,_two_,talker-p284_sex-f_text-_two_.wav,p284,f,5,45,8.0,7.0,RX81,6,0.0,0.0,7.0,79.34149293193902,babble-reversed_n13_p229-five-p256-three-p318-nine-p248-two-p284-four-p268-one.wav,6,RX81,7,0.0,0.0,8.0,91.58892582949888,mgb_normalisation,91.58892582949886,90.34149293193902,2,2.0,True,1.0624892711639404
,2024-07-10 11:33:15,sub_111,3,distance,cathedral,spatial_unmasking,4,174,0,0,_eight_,talker-p284_sex-f_text-_eight_.wav,p284,f,5,46,8.0,7.0,RX81,6,0.0,0.0,7.0,78.341492931939,babble-reversed_n13_p256-three-p318-one-p307-two-p284-nine-p268-four-p245-eight.wav,6,RX81,7,0.0,0.0,8.0,91.58892582949888,mgb_normalisation,91.58892582949886,90.34149293193902,8,8.0,True,1.249972581863403
,2024-07-10 11:33:18,sub_111,3,distance,cathedral,spatial_unmasking,4,175,0,0,_six_,talker-p284_sex-f_text-_six_.wav,p284,f,5,47,8.0,7.0,RX81,6,0.0,0.0,7.0,78.34149293193902,babble-reversed_n13_p318-five-p229-four-p256-eight-p284-one-p245-three-p248-two.wav,6,RX81,7,0.0,0.0,8.0,91.58892582949888,mgb_normalisation,91.58892582949886,90.34149293193902,6,6.0,True,1.0638935565948486
,2024-07-10 11:33:23,sub_111,3,distance,cathedral,spatial_unmasking,4,176,0,0,_one_,talker-p284_sex-f_text-_one_.wav,p284,f,5,48,8.0,7.0,RX81,6,0.0,0.0,7.0,77.34149293193902,babble-reversed_n13_p229-one-p318-eight-p256-three-p268-two-p245-five-p248-nine.wav,6,RX81,7,0.0,0.0,8.0,91.58892582949886,mgb_normalisation,91.58892582949886,90.34149293193902,1,4.0,False,2.6888060569763184
,2024-07-10 11:33:27,sub_111,3,distance,cathedral,spatial_unmasking,4,177,0,0,_five_,talker-p284_sex-f_text-_five_.wav,p284,f,5,49,8.0,7.0,RX81,6,0.0,0.0,7.0,78.34149293193902,babble-reversed_n13_p256-three-p318-two-p229-nine-p248-four-p284-one-p268-eight.wav,6,RX81,7,0.0,0.0,8.0,91.58892582949886,mgb_normalisation,91.58892582949886,90.34149293193902,5,5.0,True,1.0624914169311523
,2024-07-10 11:33:32,sub_111,3,distance,cathedral,spatial_unmasking,4,178,0,0,_four_,talker-p284_sex-f_text-_four_.wav,p284,f,5,50,8.0,7.0,RX81,6,0.0,0.0,7.0,78.341492931939,babble-reversed_n13_p318-one-p307-two-p256-eight-p284-three-p248-five-p245-four.wav,6,RX81,7,0.0,0.0,8.0,91.58892582949888,mgb_normalisation,91.58892582949886,90.34149293193902,4,4.0,True,2.873013019561768
,2024-07-10 11:33:36,sub_111,3,distance,cathedral,spatial_unmasking,4,179,0,0,_five_,talker-p284_sex-f_text-_five_.wav,p284,f,5,51,8.0,7.0,RX81,6,0.0,0.0,7.0,77.34149293193902,babble-reversed_n13_p229-two-p307-five-p318-four-p284-one-p248-nine-p268-eight.wav,6,RX81,7,0.0,0.0,8.0,91.58892582949888,mgb_normalisation,91.58892582949886,90.34149293193902,5,9.0,False,1.6249873638153076
,2024-07-10 11:33:40,sub_111,3,distance,cathedral,spatial_unmasking,4,180,0,0,_two_,talker-p284_sex-f_text-_two_.wav,p284,f,5,52,8.0,7.0,RX81,6,0.0,0.0,7.0,78.34149293193902,babble-reversed_n13_p229-nine-p318-one-p307-two-p248-eight-p245-five-p284-four.wav,6,RX81,7,0.0,0.0,8.0,91.58892582949886,mgb_normalisation,91.58892582949886,90.34149293193902,2,2.0,True,1.124990701675415
,2024-07-10 11:33:43,sub_111,3,distance,cathedral,spatial_unmasking,4,181,0,0,_five_,talker-p284_sex-f_text-_five_.wav,p284,f,5,53,8.0,7.0,RX81,6,0.0,0.0,7.0,78.34149293193902,babble-reversed_n13_p318-five-p229-four-p256-eight-p284-one-p245-three-p248-two.wav,6,RX81,7,0.0,0.0,8.0,91.58892582949888,mgb_normalisation,91.58892582949886,90.34149293193902,5,5.0,True,0.8746302127838135
,2024-07-10 11:36:24,sub_111,3,distance,cathedral,spatial_unmasking,5,182,0,0,_eight_,talker-p284_sex-f_text-_eight_.wav,p284,f,5,1,12.0,7.0,RX81,6,0.0,0.0,7.0,92.341492931939,babble-reversed_n13_p229-five-p256-three-p318-nine-p248-two-p284-four-p268-one.wav,10,RX81,11,0.0,0.0,12.0,93.00003341222718,mgb_normalisation,93.00003341222715,90.34149293193902,8,8.0,True,1.313924789428711
,2024-07-10 11:36:27,sub_111,3,distance,cathedral,spatial_unmasking,5,183,0,0,_three_,talker-p284_sex-f_text-_three_.wav,p284,f,5,2,12.0,7.0,RX81,6,0.0,0.0,7.0,88.34149293193903,babble-reversed_n13_p229-five-p318-three-p307-two-p245-four-p284-nine-p248-eight.wav,10,RX81,11,0.0,0.0,12.0,93.00003341222715,mgb_normalisation,93.00003341222715,90.34149293193902,3,3.0,True,0.8749926090240479
,2024-07-10 11:36:30,sub_111,3,distance,cathedral,spatial_unmasking,5,184,0,0,_one_,talker-p284_sex-f_text-_one_.wav,p284,f,5,3,12.0,7.0,RX81,6,0.0,0.0,7.0,84.341492931939,babble-reversed_n13_p307-nine-p229-one-p256-eight-p248-four-p284-two-p268-three.wav,10,RX81,11,0.0,0.0,12.0,93.00003341222718,mgb_normalisation,93.00003341222715,90.34149293193902,1,1.0,True,1.1874902248382568
,2024-07-10 11:36:34,sub_111,3,distance,cathedral,spatial_unmasking,5,185,0,0,_two_,talker-p284_sex-f_text-_two_.wav,p284,f,5,4,12.0,7.0,RX81,6,0.0,0.0,7.0,80.34149293193903,babble-reversed_n13_p229-three-p256-one-p307-two-p284-eight-p268-five-p248-nine.wav,10,RX81,11,0.0,0.0,12.0,93.00003341222718,mgb_normalisation,93.00003341222715,90.34149293193902,2,2.0,True,0.9866437911987304
,2024-07-10 11:36:38,sub_111,3,distance,cathedral,spatial_unmasking,5,186,0,0,_three_,talker-p284_sex-f_text-_three_.wav,p284,f,5,5,12.0,7.0,RX81,6,0.0,0.0,7.0,76.34149293193902,babble-reversed_n13_p229-nine-p307-five-p256-two-p248-three-p245-one-p268-eight.wav,10,RX81,11,0.0,0.0,12.0,93.00003341222715,mgb_normalisation,93.00003341222715,90.34149293193902,3,3.0,True,1.8086977005004885
,2024-07-10 11:36:43,sub_111,3,distance,cathedral,spatial_unmasking,5,187,0,0,_five_,talker-p284_sex-f_text-_five_.wav,p284,f,5,6,12.0,7.0,RX81,6,0.0,0.0,7.0,72.34149293193902,babble-reversed_n13_p229-five-p318-three-p307-two-p245-four-p284-nine-p248-eight.wav,10,RX81,11,0.0,0.0,12.0,93.00003341222715,mgb_normalisation,93.00003341222715,90.34149293193902,5,5.0,True,2.937558174133301
,2024-07-10 11:36:47,sub_111,3,distance,cathedral,spatial_unmasking,5,188,0,0,_two_,talker-p284_sex-f_text-_two_.wav,p284,f,5,7,12.0,7.0,RX81,6,0.0,0.0,7.0,68.34149293193902,babble-reversed_n13_p307-one-p318-five-p229-four-p268-eight-p284-two-p245-three.wav,10,RX81,11,0.0,0.0,12.0,93.00003341222715,mgb_normalisation,93.00003341222715,90.34149293193902,2,3.0,False,1.687654972076416
,2024-07-10 11:36:51,sub_111,3,distance,cathedral,spatial_unmasking,5,189,0,0,_two_,talker-p284_sex-f_text-_two_.wav,p284,f,5,8,12.0,7.0,RX81,6,0.0,0.0,7.0,70.34149293193903,babble-reversed_n13_p256-two-p307-five-p318-nine-p248-eight-p245-four-p284-one.wav,10,RX81,11,0.0,0.0,12.0,93.00003341222718,mgb_normalisation,93.00003341222715,90.34149293193902,2,3.0,False,1.249988079071045
,2024-07-10 11:36:55,sub_111,3,distance,cathedral,spatial_unmasking,5,190,0,0,_two_,talker-p284_sex-f_text-_two_.wav,p284,f,5,9,12.0,7.0,RX81,6,0.0,0.0,7.0,72.34149293193902,babble-reversed_n13_p229-two-p307-five-p318-four-p284-one-p248-nine-p268-eight.wav,10,RX81,11,0.0,0.0,12.0,93.00003341222718,mgb_normalisation,93.00003341222715,90.34149293193902,2,9.0,False,1.0624277591705322
,2024-07-10 11:37:00,sub_111,3,distance,cathedral,spatial_unmasking,5,191,0,0,_two_,talker-p284_sex-f_text-_two_.wav,p284,f,5,10,12.0,7.0,RX81,6,0.0,0.0,7.0,74.34149293193902,babble-reversed_n13_p256-nine-p307-four-p229-one-p284-three-p248-two-p245-five.wav,10,RX81,11,0.0,0.0,12.0,93.00003341222718,mgb_normalisation,93.00003341222715,90.34149293193902,2,2.0,True,2.735058546066284
,2024-07-10 11:37:03,sub_111,3,distance,cathedral,spatial_unmasking,5,192,0,0,_two_,talker-p284_sex-f_text-_two_.wav,p284,f,5,11,12.0,7.0,RX81,6,0.0,0.0,7.0,74.34149293193902,babble-reversed_n13_p229-two-p318-eight-p256-three-p268-one-p248-nine-p284-five.wav,10,RX81,11,0.0,0.0,12.0,93.00003341222715,mgb_normalisation,93.00003341222715,90.34149293193902,2,2.0,True,1.3608736991882324
,2024-07-10 11:37:08,sub_111,3,distance,cathedral,spatial_unmasking,5,193,0,0,_two_,talker-p284_sex-f_text-_two_.wav,p284,f,5,12,12.0,7.0,RX81,6,0.0,0.0,7.0,72.34149293193902,babble-reversed_n13_p229-one-p318-nine-p256-four-p284-eight-p268-five-p245-two.wav,10,RX81,11,0.0,0.0,12.0,93.00003341222715,mgb_normalisation,93.00003341222715,90.34149293193902,2,3.0,False,2.187610387802124
,2024-07-10 11:37:12,sub_111,3,distance,cathedral,spatial_unmasking,5,194,0,0,_four_,talker-p284_sex-f_text-_four_.wav,p284,f,5,13,12.0,7.0,RX81,6,0.0,0.0,7.0,73.34149293193902,babble-reversed_n13_p307-two-p256-four-p318-three-p284-eight-p248-five-p245-nine.wav,10,RX81,11,0.0,0.0,12.0,93.00003341222718,mgb_normalisation,93.00003341222715,90.34149293193902,4,3.0,False,1.5624589920043943
,2024-07-10 11:37:16,sub_111,3,distance,cathedral,spatial_unmasking,5,195,0,0,_six_,talker-p284_sex-f_text-_six_.wav,p284,f,5,14,12.0,7.0,RX81,6,0.0,0.0,7.0,74.341492931939,babble-reversed_n13_p307-two-p229-one-p256-five-p248-nine-p284-three-p268-eight.wav,10,RX81,11,0.0,0.0,12.0,93.00003341222718,mgb_normalisation,93.00003341222715,90.34149293193902,6,4.0,False,1.3124728202819824
,2024-07-10 11:37:19,sub_111,3,distance,cathedral,spatial_unmasking,5,196,0,0,_two_,talker-p284_sex-f_text-_two_.wav,p284,f,5,15,12.0,7.0,RX81,6,0.0,0.0,7.0,75.34149293193903,babble-reversed_n13_p318-one-p307-two-p256-eight-p284-three-p248-five-p245-four.wav,10,RX81,11,0.0,0.0,12.0,93.00003341222718,mgb_normalisation,93.00003341222715,90.34149293193902,2,3.0,False,1.3634662628173828
,2024-07-10 11:37:24,sub_111,3,distance,cathedral,spatial_unmasking,5,197,0,0,_two_,talker-p284_sex-f_text-_two_.wav,p284,f,5,16,12.0,7.0,RX81,6,0.0,0.0,7.0,76.34149293193902,babble-reversed_n13_p256-four-p229-eight-p307-five-p248-three-p245-one-p284-two.wav,10,RX81,11,0.0,0.0,12.0,93.00003341222715,mgb_normalisation,93.00003341222715,90.34149293193902,2,3.0,False,2.4375481605529785
,2024-07-10 11:37:28,sub_111,3,distance,cathedral,spatial_unmasking,5,198,0,0,_three_,talker-p284_sex-f_text-_three_.wav,p284,f,5,17,12.0,7.0,RX81,6,0.0,0.0,7.0,77.34149293193903,babble-reversed_n13_p229-five-p256-one-p318-three-p248-nine-p268-four-p284-eight.wav,10,RX81,11,0.0,0.0,12.0,93.00003341222715,mgb_normalisation,93.00003341222715,90.34149293193902,3,3.0,True,1.4356048107147217
,2024-07-10 11:37:32,sub_111,3,distance,cathedral,spatial_unmasking,5,199,0,0,_eight_,talker-p284_sex-f_text-_eight_.wav,p284,f,5,18,12.0,7.0,RX81,6,0.0,0.0,7.0,77.341492931939,babble-reversed_n13_p318-four-p256-five-p229-three-p284-one-p245-eight-p248-nine.wav,10,RX81,11,0.0,0.0,12.0,93.00003341222718,mgb_normalisation,93.00003341222715,90.34149293193902,8,5.0,False,1.3749656677246094
,2024-07-10 11:37:35,sub_111,3,distance,cathedral,spatial_unmasking,5,200,0,0,_three_,talker-p284_sex-f_text-_three_.wav,p284,f,5,19,12.0,7.0,RX81,6,0.0,0.0,7.0,78.34149293193902,babble-reversed_n13_p318-five-p256-nine-p307-two-p245-eight-p248-one-p284-four.wav,10,RX81,11,0.0,0.0,12.0,93.00003341222718,mgb_normalisation,93.00003341222715,90.34149293193902,3,3.0,True,1.1249783039093018
,2024-07-10 11:37:39,sub_111,3,distance,cathedral,spatial_unmasking,5,201,0,0,_eight_,talker-p284_sex-f_text-_eight_.wav,p284,f,5,20,12.0,7.0,RX81,6,0.0,0.0,7.0,78.341492931939,babble-reversed_n13_p256-four-p307-eight-p318-two-p248-three-p284-nine-p268-one.wav,10,RX81,11,0.0,0.0,12.0,93.00003341222718,mgb_normalisation,93.00003341222715,90.34149293193902,8,8.0,True,1.0640361309051514
,2024-07-10 11:37:43,sub_111,3,distance,cathedral,spatial_unmasking,5,202,0,0,_two_,talker-p284_sex-f_text-_two_.wav,p284,f,5,21,12.0,7.0,RX81,6,0.0,0.0,7.0,77.34149293193902,babble-reversed_n13_p256-three-p318-two-p229-nine-p248-four-p284-one-p268-eight.wav,10,RX81,11,0.0,0.0,12.0,93.00003341222715,mgb_normalisation,93.00003341222715,90.34149293193902,2,2.0,True,1.9442338943481443
,2024-07-10 11:37:47,sub_111,3,distance,cathedral,spatial_unmasking,5,203,0,0,_three_,talker-p284_sex-f_text-_three_.wav,p284,f,5,22,12.0,7.0,RX81,6,0.0,0.0,7.0,77.34149293193903,babble-reversed_n13_p256-nine-p307-four-p229-one-p284-three-p248-two-p245-five.wav,10,RX81,11,0.0,0.0,12.0,93.00003341222718,mgb_normalisation,93.00003341222715,90.34149293193902,3,3.0,True,1.062472581863403
,2024-07-10 11:37:50,sub_111,3,distance,cathedral,spatial_unmasking,5,204,0,0,_two_,talker-p284_sex-f_text-_two_.wav,p284,f,5,23,12.0,7.0,RX81,6,0.0,0.0,7.0,76.34149293193902,babble-reversed_n13_p307-two-p256-four-p318-three-p284-eight-p248-five-p245-nine.wav,10,RX81,11,0.0,0.0,12.0,93.00003341222718,mgb_normalisation,93.00003341222715,90.34149293193902,2,2.0,True,1.1249704360961914
,2024-07-10 11:37:54,sub_111,3,distance,cathedral,spatial_unmasking,5,205,0,0,_three_,talker-p284_sex-f_text-_three_.wav,p284,f,5,24,12.0,7.0,RX81,6,0.0,0.0,7.0,76.34149293193902,babble-reversed_n13_p307-two-p256-four-p318-three-p284-eight-p248-five-p245-nine.wav,10,RX81,11,0.0,0.0,12.0,93.00003341222718,mgb_normalisation,93.00003341222715,90.34149293193902,3,3.0,True,1.00248122215271
,2024-07-10 11:37:57,sub_111,3,distance,cathedral,spatial_unmasking,5,206,0,0,_three_,talker-p284_sex-f_text-_three_.wav,p284,f,5,25,12.0,7.0,RX81,6,0.0,0.0,7.0,75.34149293193903,babble-reversed_n13_p229-five-p256-three-p318-nine-p248-two-p284-four-p268-one.wav,10,RX81,11,0.0,0.0,12.0,93.00003341222718,mgb_normalisation,93.00003341222715,90.34149293193902,3,3.0,True,1.1249711513519287
,2024-07-10 11:38:01,sub_111,3,distance,cathedral,spatial_unmasking,5,207,0,0,_two_,talker-p284_sex-f_text-_two_.wav,p284,f,5,26,12.0,7.0,RX81,6,0.0,0.0,7.0,75.34149293193903,babble-reversed_n13_p307-five-p229-three-p318-nine-p245-four-p268-eight-p284-two.wav,10,RX81,11,0.0,0.0,12.0,93.00003341222715,mgb_normalisation,93.00003341222715,90.34149293193902,2,3.0,False,1.874987363815308
,2024-07-10 11:38:07,sub_111,3,distance,cathedral,spatial_unmasking,5,208,0,0,_nine_,talker-p284_sex-f_text-_nine_.wav,p284,f,5,27,12.0,7.0,RX81,6,0.0,0.0,7.0,76.34149293193902,babble-reversed_n13_p307-five-p229-two-p318-four-p248-three-p245-nine-p268-eight.wav,10,RX81,11,0.0,0.0,12.0,93.00003341222715,mgb_normalisation,93.00003341222715,90.34149293193902,9,5.0,False,2.9374239444732666
,2024-07-10 11:38:10,sub_111,3,distance,cathedral,spatial_unmasking,5,209,0,0,_three_,talker-p284_sex-f_text-_three_.wav,p284,f,5,28,12.0,7.0,RX81,6,0.0,0.0,7.0,77.34149293193903,babble-reversed_n13_p256-five-p307-nine-p318-three-p284-eight-p268-one-p248-two.wav,10,RX81,11,0.0,0.0,12.0,93.00003341222715,mgb_normalisation,93.00003341222715,90.34149293193902,3,3.0,True,1.1874687671661377
,2024-07-10 11:38:14,sub_111,3,distance,cathedral,spatial_unmasking,5,210,0,0,_one_,talker-p284_sex-f_text-_one_.wav,p284,f,5,29,12.0,7.0,RX81,6,0.0,0.0,7.0,77.34149293193902,babble-reversed_n13_p256-eight-p229-three-p307-nine-p245-five-p248-four-p268-two.wav,10,RX81,11,0.0,0.0,12.0,93.00003341222715,mgb_normalisation,93.00003341222715,90.34149293193902,1,9.0,False,1.5644733905792236
,2024-07-10 11:38:18,sub_111,3,distance,cathedral,spatial_unmasking,5,211,0,0,_three_,talker-p284_sex-f_text-_three_.wav,p284,f,5,30,12.0,7.0,RX81,6,0.0,0.0,7.0,78.34149293193902,babble-reversed_n13_p256-four-p229-two-p318-five-p268-one-p248-eight-p245-three.wav,10,RX81,11,0.0,0.0,12.0,93.00003341222715,mgb_normalisation,93.00003341222715,90.34149293193902,3,3.0,True,1.060258388519287
,2024-07-10 11:38:21,sub_111,3,distance,cathedral,spatial_unmasking,5,212,0,0,_eight_,talker-p284_sex-f_text-_eight_.wav,p284,f,5,31,12.0,7.0,RX81,6,0.0,0.0,7.0,78.341492931939,babble-reversed_n13_p318-three-p307-one-p256-five-p248-nine-p245-two-p284-eight.wav,10,RX81,11,0.0,0.0,12.0,93.00003341222718,mgb_normalisation,93.00003341222715,90.34149293193902,8,8.0,True,1.1249706745147705
,2024-07-10 11:38:25,sub_111,3,distance,cathedral,spatial_unmasking,5,213,0,0,_five_,talker-p284_sex-f_text-_five_.wav,p284,f,5,32,12.0,7.0,RX81,6,0.0,0.0,7.0,77.34149293193902,babble-reversed_n13_p256-eight-p318-five-p307-four-p245-three-p268-one-p284-nine.wav,10,RX81,11,0.0,0.0,12.0,93.00003341222715,mgb_normalisation,93.00003341222715,90.34149293193902,5,5.0,True,0.8749785423278809
,2024-07-10 11:38:28,sub_111,3,distance,cathedral,spatial_unmasking,5,214,0,0,_six_,talker-p284_sex-f_text-_six_.wav,p284,f,5,33,12.0,7.0,RX81,6,0.0,0.0,7.0,77.341492931939,babble-reversed_n13_p256-two-p307-five-p318-nine-p248-eight-p245-four-p284-one.wav,10,RX81,11,0.0,0.0,12.0,93.00003341222718,mgb_normalisation,93.00003341222715,90.34149293193902,6,6.0,True,0.8119723796844482
,2024-07-10 11:38:32,sub_111,3,distance,cathedral,spatial_unmasking,5,215,0,0,_one_,talker-p284_sex-f_text-_one_.wav,p284,f,5,34,12.0,7.0,RX81,6,0.0,0.0,7.0,76.34149293193902,babble-reversed_n13_p256-eight-p318-two-p307-five-p245-four-p268-nine-p284-one.wav,10,RX81,11,0.0,0.0,12.0,93.00003341222718,mgb_normalisation,93.00003341222715,90.34149293193902,1,9.0,False,1.3124361038208008
,2024-07-10 11:38:35,sub_111,3,distance,cathedral,spatial_unmasking,5,216,0,0,_eight_,talker-p284_sex-f_text-_eight_.wav,p284,f,5,35,12.0,7.0,RX81,6,0.0,0.0,7.0,77.341492931939,babble-reversed_n13_p318-five-p229-three-p256-four-p268-eight-p248-one-p245-nine.wav,10,RX81,11,0.0,0.0,12.0,93.00003341222718,mgb_normalisation,93.00003341222715,90.34149293193902,8,8.0,True,1.5624597072601318
,2024-07-10 11:38:39,sub_111,3,distance,cathedral,spatial_unmasking,5,217,0,0,_six_,talker-p284_sex-f_text-_six_.wav,p284,f,5,36,12.0,7.0,RX81,6,0.0,0.0,7.0,77.341492931939,babble-reversed_n13_p318-nine-p307-eight-p229-two-p284-one-p248-three-p245-five.wav,10,RX81,11,0.0,0.0,12.0,93.00003341222718,mgb_normalisation,93.00003341222715,90.34149293193902,6,6.0,True,0.7482626438140869
,2024-07-10 11:38:42,sub_111,3,distance,cathedral,spatial_unmasking,5,218,0,0,_three_,talker-p284_sex-f_text-_three_.wav,p284,f,5,37,12.0,7.0,RX81,6,0.0,0.0,7.0,76.34149293193902,babble-reversed_n13_p256-four-p229-two-p318-five-p268-one-p248-eight-p245-three.wav,10,RX81,11,0.0,0.0,12.0,93.00003341222715,mgb_normalisation,93.00003341222715,90.34149293193902,3,3.0,True,0.9374759197235109
,2024-07-10 11:38:49,sub_111,3,distance,cathedral,spatial_unmasking,5,219,0,0,_nine_,talker-p284_sex-f_text-_nine_.wav,p284,f,5,38,12.0,7.0,RX81,6,0.0,0.0,7.0,76.34149293193902,babble-reversed_n13_p318-one-p307-two-p256-eight-p284-three-p248-five-p245-four.wav,10,RX81,11,0.0,0.0,12.0,93.00003341222718,mgb_normalisation,93.00003341222715,90.34149293193902,9,4.0,False,4.252170085906982
,2024-07-10 11:38:52,sub_111,3,distance,cathedral,spatial_unmasking,5,220,0,0,_six_,talker-p284_sex-f_text-_six_.wav,p284,f,5,39,12.0,7.0,RX81,6,0.0,0.0,7.0,77.341492931939,babble-reversed_n13_p256-eight-p229-three-p307-nine-p245-five-p248-four-p268-two.wav,10,RX81,11,0.0,0.0,12.0,93.00003341222715,mgb_normalisation,93.00003341222715,90.34149293193902,6,6.0,True,1.1249709129333496
,2024-07-10 11:38:55,sub_111,3,distance,cathedral,spatial_unmasking,5,221,0,0,_two_,talker-p284_sex-f_text-_two_.wav,p284,f,5,40,12.0,7.0,RX81,6,0.0,0.0,7.0,77.34149293193902,babble-reversed_n13_p229-nine-p318-one-p307-two-p248-eight-p245-five-p284-four.wav,10,RX81,11,0.0,0.0,12.0,93.00003341222718,mgb_normalisation,93.00003341222715,90.34149293193902,2,2.0,True,0.9999737739562988
,2024-07-10 11:38:59,sub_111,3,distance,cathedral,spatial_unmasking,5,222,0,0,_nine_,talker-p284_sex-f_text-_nine_.wav,p284,f,5,41,12.0,7.0,RX81,6,0.0,0.0,7.0,76.34149293193902,babble-reversed_n13_p229-one-p318-eight-p256-three-p268-two-p245-five-p248-nine.wav,10,RX81,11,0.0,0.0,12.0,93.00003341222715,mgb_normalisation,93.00003341222715,90.34149293193902,9,9.0,True,0.7521064281463623
,2024-07-10 11:39:02,sub_111,3,distance,cathedral,spatial_unmasking,5,223,0,0,_three_,talker-p284_sex-f_text-_three_.wav,p284,f,5,42,12.0,7.0,RX81,6,0.0,0.0,7.0,76.34149293193902,babble-reversed_n13_p318-three-p307-one-p256-five-p248-nine-p245-two-p284-eight.wav,10,RX81,11,0.0,0.0,12.0,93.00003341222718,mgb_normalisation,93.00003341222715,90.34149293193902,3,3.0,True,1.1249713897705078
,2024-07-10 11:39:05,sub_111,3,distance,cathedral,spatial_unmasking,5,224,0,0,_nine_,talker-p284_sex-f_text-_nine_.wav,p284,f,5,43,12.0,7.0,RX81,6,0.0,0.0,7.0,75.34149293193902,babble-reversed_n13_p307-five-p229-three-p318-nine-p245-four-p268-eight-p284-two.wav,10,RX81,11,0.0,0.0,12.0,93.00003341222715,mgb_normalisation,93.00003341222715,90.34149293193902,9,9.0,True,0.937476634979248
,2024-07-10 11:39:09,sub_111,3,distance,cathedral,spatial_unmasking,5,225,0,0,_eight_,talker-p284_sex-f_text-_eight_.wav,p284,f,5,44,12.0,7.0,RX81,6,0.0,0.0,7.0,75.341492931939,babble-reversed_n13_p229-eight-p256-nine-p318-four-p245-three-p268-five-p284-two.wav,10,RX81,11,0.0,0.0,12.0,93.00003341222715,mgb_normalisation,93.00003341222715,90.34149293193902,8,8.0,True,0.8738939762115479
,2024-07-10 11:39:12,sub_111,3,distance,cathedral,spatial_unmasking,5,226,0,0,_three_,talker-p284_sex-f_text-_three_.wav,p284,f,5,45,12.0,7.0,RX81,6,0.0,0.0,7.0,74.34149293193903,babble-reversed_n13_p318-five-p229-three-p256-four-p268-eight-p248-one-p245-nine.wav,10,RX81,11,0.0,0.0,12.0,93.00003341222718,mgb_normalisation,93.00003341222715,90.34149293193902,3,9.0,False,0.8124775886535645
,2024-07-10 11:39:16,sub_111,3,distance,cathedral,spatial_unmasking,5,227,0,0,_one_,talker-p284_sex-f_text-_one_.wav,p284,f,5,46,12.0,7.0,RX81,6,0.0,0.0,7.0,75.34149293193902,babble-reversed_n13_p229-two-p256-three-p318-eight-p284-five-p268-four-p245-one.wav,10,RX81,11,0.0,0.0,12.0,93.00003341222718,mgb_normalisation,93.00003341222715,90.34149293193902,1,1.0,True,1.312464952468872
,2024-07-10 11:39:20,sub_111,3,distance,cathedral,spatial_unmasking,5,228,0,0,_six_,talker-p284_sex-f_text-_six_.wav,p284,f,5,47,12.0,7.0,RX81,6,0.0,0.0,7.0,75.34149293193902,babble-reversed_n13_p307-two-p229-one-p256-five-p248-nine-p284-three-p268-eight.wav,10,RX81,11,0.0,0.0,12.0,93.00003341222718,mgb_normalisation,93.00003341222715,90.34149293193902,6,4.0,False,2.4335169792175293
,2024-07-10 11:39:24,sub_111,3,distance,cathedral,spatial_unmasking,5,229,0,0,_four_,talker-p284_sex-f_text-_four_.wav,p284,f,5,48,12.0,7.0,RX81,6,0.0,0.0,7.0,76.34149293193902,babble-reversed_n13_p256-five-p307-nine-p318-three-p284-eight-p268-one-p248-two.wav,10,RX81,11,0.0,0.0,12.0,93.00003341222715,mgb_normalisation,93.00003341222715,90.34149293193902,4,3.0,False,1.6265201568603516
,2024-07-10 11:39:29,sub_111,3,distance,cathedral,spatial_unmasking,5,230,0,0,_one_,talker-p284_sex-f_text-_one_.wav,p284,f,5,49,12.0,7.0,RX81,6,0.0,0.0,7.0,77.34149293193902,babble-reversed_n13_p229-five-p256-one-p318-three-p248-nine-p268-four-p284-eight.wav,10,RX81,11,0.0,0.0,12.0,93.00003341222715,mgb_normalisation,93.00003341222715,90.34149293193902,1,5.0,False,2.061526298522949
,2024-07-10 11:39:33,sub_111,3,distance,cathedral,spatial_unmasking,5,231,0,0,_two_,talker-p284_sex-f_text-_two_.wav,p284,f,5,50,12.0,7.0,RX81,6,0.0,0.0,7.0,78.34149293193902,babble-reversed_n13_p307-five-p229-three-p318-nine-p245-four-p268-eight-p284-two.wav,10,RX81,11,0.0,0.0,12.0,93.00003341222715,mgb_normalisation,93.00003341222715,90.34149293193902,2,6.0,False,1.8721294403076167
,2024-07-10 11:39:37,sub_111,3,distance,cathedral,spatial_unmasking,5,232,0,0,_four_,talker-p284_sex-f_text-_four_.wav,p284,f,5,51,12.0,7.0,RX81,6,0.0,0.0,7.0,79.341492931939,babble-reversed_n13_p229-three-p256-nine-p318-five-p248-one-p245-eight-p284-two.wav,10,RX81,11,0.0,0.0,12.0,93.00003341222718,mgb_normalisation,93.00003341222715,90.34149293193902,4,9.0,False,1.3124651908874512
,2024-07-10 11:39:41,sub_111,3,distance,cathedral,spatial_unmasking,5,233,0,0,_four_,talker-p284_sex-f_text-_four_.wav,p284,f,5,52,12.0,7.0,RX81,6,0.0,0.0,7.0,80.341492931939,babble-reversed_n13_p307-nine-p229-one-p256-eight-p248-four-p284-two-p268-three.wav,10,RX81,11,0.0,0.0,12.0,93.00003341222718,mgb_normalisation,93.00003341222715,90.34149293193902,4,3.0,False,1.062472581863403
,2024-07-10 11:39:44,sub_111,3,distance,cathedral,spatial_unmasking,5,234,0,0,_eight_,talker-p284_sex-f_text-_eight_.wav,p284,f,5,53,12.0,7.0,RX81,6,0.0,0.0,7.0,81.341492931939,babble-reversed_n13_p229-one-p318-eight-p256-three-p268-nine-p248-five-p284-four.wav,10,RX81,11,0.0,0.0,12.0,93.00003341222715,mgb_normalisation,93.00003341222715,90.34149293193902,8,8.0,True,1.1282382011413574
,2024-07-10 11:39:50,sub_111,3,distance,cathedral,spatial_unmasking,5,235,0,0,_eight_,talker-p284_sex-f_text-_eight_.wav,p284,f,5,54,12.0,7.0,RX81,6,0.0,0.0,7.0,81.341492931939,babble-reversed_n13_p307-four-p318-three-p256-eight-p284-two-p245-nine-p248-five.wav,10,RX81,11,0.0,0.0,12.0,93.00003341222715,mgb_normalisation,93.00003341222715,90.34149293193902,8,8.0,True,3.9999613761901855
,2024-07-10 11:41:11,sub_111,3,distance,cathedral,spatial_unmasking,6,236,0,0,_eight_,talker-p284_sex-f_text-_eight_.wav,p284,f,5,1,6.0,7.0,RX81,6,0.0,0.0,7.0,92.341492931939,babble-reversed_n13_p229-one-p318-eight-p256-three-p268-two-p245-five-p248-nine.wav,4,RX81,5,0.0,0.0,6.0,89.31368318402099,mgb_normalisation,89.31368318402099,90.34149293193902,8,8.0,True,1.1249701976776123
,2024-07-10 11:41:14,sub_111,3,distance,cathedral,spatial_unmasking,6,237,0,0,_six_,talker-p284_sex-f_text-_six_.wav,p284,f,5,2,6.0,7.0,RX81,6,0.0,0.0,7.0,88.34149293193902,babble-reversed_n13_p229-three-p256-one-p307-two-p284-eight-p268-five-p248-nine.wav,4,RX81,5,0.0,0.0,6.0,89.31368318402099,mgb_normalisation,89.31368318402099,90.34149293193902,6,6.0,True,0.8167576789855957
,2024-07-10 11:41:17,sub_111,3,distance,cathedral,spatial_unmasking,6,238,0,0,_nine_,talker-p284_sex-f_text-_nine_.wav,p284,f,5,3,6.0,7.0,RX81,6,0.0,0.0,7.0,84.341492931939,babble-reversed_n13_p256-four-p229-two-p318-five-p268-one-p248-eight-p245-three.wav,4,RX81,5,0.0,0.0,6.0,89.31368318402099,mgb_normalisation,89.31368318402099,90.34149293193902,9,9.0,True,0.7499809265136719
,2024-07-10 11:41:21,sub_111,3,distance,cathedral,spatial_unmasking,6,239,0,0,_four_,talker-p284_sex-f_text-_four_.wav,p284,f,5,4,6.0,7.0,RX81,6,0.0,0.0,7.0,80.341492931939,babble-reversed_n13_p307-two-p229-one-p256-five-p248-nine-p284-three-p268-eight.wav,4,RX81,5,0.0,0.0,6.0,89.313683184021,mgb_normalisation,89.31368318402099,90.34149293193902,4,4.0,True,1.999948024749756
,2024-07-10 11:41:25,sub_111,3,distance,cathedral,spatial_unmasking,6,240,0,0,_four_,talker-p284_sex-f_text-_four_.wav,p284,f,5,5,6.0,7.0,RX81,6,0.0,0.0,7.0,76.34149293193902,babble-reversed_n13_p318-four-p256-five-p229-three-p284-one-p245-eight-p248-nine.wav,4,RX81,5,0.0,0.0,6.0,89.31368318402099,mgb_normalisation,89.31368318402099,90.34149293193902,4,9.0,False,1.6776914596557615
,2024-07-10 11:41:29,sub_111,3,distance,cathedral,spatial_unmasking,6,241,0,0,_one_,talker-p284_sex-f_text-_one_.wav,p284,f,5,6,6.0,7.0,RX81,6,0.0,0.0,7.0,78.34149293193902,babble-reversed_n13_p318-nine-p256-five-p307-eight-p268-three-p248-one-p245-four.wav,4,RX81,5,0.0,0.0,6.0,89.31368318402099,mgb_normalisation,89.31368318402099,90.34149293193902,1,1.0,True,1.5010910034179688
,2024-07-10 11:41:33,sub_111,3,distance,cathedral,spatial_unmasking,6,242,0,0,_nine_,talker-p284_sex-f_text-_nine_.wav,p284,f,5,7,6.0,7.0,RX81,6,0.0,0.0,7.0,78.34149293193902,babble-reversed_n13_p318-five-p256-nine-p307-eight-p248-two-p245-four-p284-three.wav,4,RX81,5,0.0,0.0,6.0,89.31368318402099,mgb_normalisation,89.31368318402099,90.34149293193902,9,9.0,True,1.0624723434448242
,2024-07-10 11:41:36,sub_111,3,distance,cathedral,spatial_unmasking,6,243,0,0,_five_,talker-p284_sex-f_text-_five_.wav,p284,f,5,8,6.0,7.0,RX81,6,0.0,0.0,7.0,76.34149293193902,babble-reversed_n13_p229-one-p318-eight-p256-three-p268-nine-p248-five-p284-four.wav,4,RX81,5,0.0,0.0,6.0,89.31368318402099,mgb_normalisation,89.31368318402099,90.34149293193902,5,5.0,True,0.9999747276306152
,2024-07-10 11:41:40,sub_111,3,distance,cathedral,spatial_unmasking,6,244,0,0,_two_,talker-p284_sex-f_text-_two_.wav,p284,f,5,9,6.0,7.0,RX81,6,0.0,0.0,7.0,76.34149293193902,babble-reversed_n13_p318-nine-p307-eight-p229-two-p284-one-p248-three-p245-five.wav,4,RX81,5,0.0,0.0,6.0,89.31368318402099,mgb_normalisation,89.31368318402099,90.34149293193902,2,2.0,True,1.0051145553588867
,2024-07-10 11:41:46,sub_111,3,distance,cathedral,spatial_unmasking,6,245,0,0,_four_,talker-p284_sex-f_text-_four_.wav,p284,f,5,10,6.0,7.0,RX81,6,0.0,0.0,7.0,74.341492931939,babble-reversed_n13_p318-three-p229-one-p256-eight-p245-five-p248-four-p284-nine.wav,4,RX81,5,0.0,0.0,6.0,89.313683184021,mgb_normalisation,89.31368318402099,90.34149293193902,4,4.0,True,4.062250137329102
,2024-07-10 11:41:50,sub_111,3,distance,cathedral,spatial_unmasking,6,246,0,0,_six_,talker-p284_sex-f_text-_six_.wav,p284,f,5,11,6.0,7.0,RX81,6,0.0,0.0,7.0,74.341492931939,babble-reversed_n13_p307-two-p256-four-p318-three-p284-eight-p248-five-p245-nine.wav,4,RX81,5,0.0,0.0,6.0,89.313683184021,mgb_normalisation,89.31368318402099,90.34149293193902,6,6.0,True,1.1255578994750977
,2024-07-10 11:41:55,sub_111,3,distance,cathedral,spatial_unmasking,6,247,0,0,_four_,talker-p284_sex-f_text-_four_.wav,p284,f,5,12,6.0,7.0,RX81,6,0.0,0.0,7.0,72.341492931939,babble-reversed_n13_p256-five-p229-one-p318-three-p248-nine-p284-eight-p268-two.wav,4,RX81,5,0.0,0.0,6.0,89.31368318402099,mgb_normalisation,89.31368318402099,90.34149293193902,4,8.0,False,2.9997403621673584
,2024-07-10 11:42:02,sub_111,3,distance,cathedral,spatial_unmasking,6,248,0,0,_five_,talker-p284_sex-f_text-_five_.wav,p284,f,5,13,6.0,7.0,RX81,6,0.0,0.0,7.0,73.34149293193902,babble-reversed_n13_p318-three-p307-one-p256-five-p248-nine-p245-two-p284-eight.wav,4,RX81,5,0.0,0.0,6.0,89.31368318402099,mgb_normalisation,89.31368318402099,90.34149293193902,5,3.0,False,5.063509225845337
,2024-07-10 11:42:07,sub_111,3,distance,cathedral,spatial_unmasking,6,249,0,0,_six_,talker-p284_sex-f_text-_six_.wav,p284,f,5,14,6.0,7.0,RX81,6,0.0,0.0,7.0,74.341492931939,babble-reversed_n13_p256-two-p307-five-p318-nine-p248-eight-p245-four-p284-one.wav,4,RX81,5,0.0,0.0,6.0,89.31368318402099,mgb_normalisation,89.31368318402099,90.34149293193902,6,6.0,True,1.812455177307129
,2024-07-10 11:42:10,sub_111,3,distance,cathedral,spatial_unmasking,6,250,0,0,_three_,talker-p284_sex-f_text-_three_.wav,p284,f,5,15,6.0,7.0,RX81,6,0.0,0.0,7.0,74.34149293193903,babble-reversed_n13_p307-five-p229-two-p318-four-p248-three-p245-nine-p268-eight.wav,4,RX81,5,0.0,0.0,6.0,89.31368318402099,mgb_normalisation,89.31368318402099,90.34149293193902,3,3.0,True,1.1874701976776123
,2024-07-10 11:42:14,sub_111,3,distance,cathedral,spatial_unmasking,6,251,0,0,_nine_,talker-p284_sex-f_text-_nine_.wav,p284,f,5,16,6.0,7.0,RX81,6,0.0,0.0,7.0,73.34149293193902,babble-reversed_n13_p229-three-p307-one-p318-two-p245-eight-p268-five-p284-four.wav,4,RX81,5,0.0,0.0,6.0,89.31368318402099,mgb_normalisation,89.31368318402099,90.34149293193902,9,2.0,False,1.3119196891784668
,2024-07-10 11:42:18,sub_111,3,distance,cathedral,spatial_unmasking,6,252,0,0,_eight_,talker-p284_sex-f_text-_eight_.wav,p284,f,5,17,6.0,7.0,RX81,6,0.0,0.0,7.0,74.341492931939,babble-reversed_n13_p307-five-p229-three-p318-nine-p245-four-p268-eight-p284-two.wav,4,RX81,5,0.0,0.0,6.0,89.31368318402099,mgb_normalisation,89.31368318402099,90.34149293193902,8,4.0,False,2.125667095184326
,2024-07-10 11:42:22,sub_111,3,distance,cathedral,spatial_unmasking,6,253,0,0,_five_,talker-p284_sex-f_text-_five_.wav,p284,f,5,18,6.0,7.0,RX81,6,0.0,0.0,7.0,75.34149293193902,babble-reversed_n13_p256-eight-p318-two-p307-five-p245-four-p268-nine-p284-one.wav,4,RX81,5,0.0,0.0,6.0,89.31368318402099,mgb_normalisation,89.31368318402099,90.34149293193902,5,5.0,True,0.9400691986083984
,2024-07-10 11:42:25,sub_111,3,distance,cathedral,spatial_unmasking,6,254,0,0,_five_,talker-p284_sex-f_text-_five_.wav,p284,f,5,19,6.0,7.0,RX81,6,0.0,0.0,7.0,75.34149293193902,babble-reversed_n13_p229-nine-p318-one-p307-two-p248-eight-p245-five-p284-four.wav,4,RX81,5,0.0,0.0,6.0,89.31368318402099,mgb_normalisation,89.31368318402099,90.34149293193902,5,9.0,False,1.062533617019653
,2024-07-10 11:42:29,sub_111,3,distance,cathedral,spatial_unmasking,6,255,0,0,_one_,talker-p284_sex-f_text-_one_.wav,p284,f,5,20,6.0,7.0,RX81,6,0.0,0.0,7.0,76.34149293193902,babble-reversed_n13_p318-five-p229-four-p256-eight-p284-one-p245-three-p248-two.wav,4,RX81,5,0.0,0.0,6.0,89.31368318402099,mgb_normalisation,89.31368318402099,90.34149293193902,1,1.0,True,1.4381778240203855
,2024-07-10 11:42:35,sub_111,3,distance,cathedral,spatial_unmasking,6,256,0,0,_one_,talker-p284_sex-f_text-_one_.wav,p284,f,5,21,6.0,7.0,RX81,6,0.0,0.0,7.0,76.34149293193902,babble-reversed_n13_p256-nine-p307-four-p229-one-p284-three-p248-two-p245-five.wav,4,RX81,5,0.0,0.0,6.0,89.31368318402099,mgb_normalisation,89.31368318402099,90.34149293193902,1,4.0,False,3.123939037322998
,2024-07-10 11:42:38,sub_111,3,distance,cathedral,spatial_unmasking,6,257,0,0,_six_,talker-p284_sex-f_text-_six_.wav,p284,f,5,22,6.0,7.0,RX81,6,0.0,0.0,7.0,77.341492931939,babble-reversed_n13_p229-nine-p318-one-p307-two-p248-eight-p245-five-p284-four.wav,4,RX81,5,0.0,0.0,6.0,89.31368318402099,mgb_normalisation,89.31368318402099,90.34149293193902,6,6.0,True,1.308482646942139
,2024-07-10 11:42:42,sub_111,3,distance,cathedral,spatial_unmasking,6,258,0,0,_one_,talker-p284_sex-f_text-_one_.wav,p284,f,5,23,6.0,7.0,RX81,6,0.0,0.0,7.0,77.34149293193902,babble-reversed_n13_p318-five-p256-nine-p307-eight-p248-two-p245-four-p284-three.wav,4,RX81,5,0.0,0.0,6.0,89.31368318402099,mgb_normalisation,89.31368318402099,90.34149293193902,1,3.0,False,1.3124656677246094
,2024-07-10 11:42:45,sub_111,3,distance,cathedral,spatial_unmasking,6,259,0,0,_five_,talker-p284_sex-f_text-_five_.wav,p284,f,5,24,6.0,7.0,RX81,6,0.0,0.0,7.0,78.34149293193902,babble-reversed_n13_p229-nine-p318-one-p307-two-p248-eight-p245-five-p284-four.wav,4,RX81,5,0.0,0.0,6.0,89.31368318402099,mgb_normalisation,89.31368318402099,90.34149293193902,5,5.0,True,0.8749542236328125
