,event_id,subject_id,timestamp,session_index,plane,setup,task,block,trial_index,stim_number,stim_type,stim_country_ids,stim_sexes,stim_talker_ids,speaker_ids,stim_level,resp_number,is_correct,speaker_distance_mean,speaker_distance_st_dev,reaction_time,spectral_coverage
0,,sub_114,2024-07-18 13:44:55,3,distance,cathedral,numerosity_judgement,1,0,3,countries_forward,"['_Sudan_', '_Congo_', '_Togo_']","['m', 'f', 'm']","['p229', 'p248', 'p256']","[2, 1, 3]","[87.57049330475357, 86.2038576498559, 89.14911522239515]",3.0,True,4.0,1.0,2.5633490085601807,0.9643513789581204
0,,sub_114,2024-07-18 13:44:59,3,distance,cathedral,numerosity_judgement,1,1,5,countries_forward,"['_Oman_', '_Peru_', '_Yemen_', '_Mali_', '_Cuba_']","['f', 'f', 'm', 'm', 'f']","['p284', 'p268', 'p256', 'p307', 'p248']","[8, 9, 5, 2, 3]","[92.0152836843556, 92.00610777531934, 90.34149293193902, 87.57049330475357, 89.14911522239515]",5.0,True,7.4,3.0495901363953815,1.7342820167541504,0.7980251957780048
0,,sub_114,2024-07-18 13:45:02,3,distance,cathedral,numerosity_judgement,1,2,4,countries_forward,"['_Britain_', '_Syria_', '_Sudan_', '_Congo_']","['m', 'f', 'm', 'f']","['p256', 'p268', 'p307', 'p248']","[0, 5, 6, 8]","[84.40078082039426, 90.34149293193902, 91.58892582949886, 92.0152836843556]",3.0,False,6.75,3.4034296427770228,1.938046932220459,0.8939053455907389
0,,sub_114,2024-07-18 13:45:07,3,distance,cathedral,numerosity_judgement,1,3,6,countries_forward,"['_Tonga_', '_Peru_', '_Britain_', '_Oman_', '_Yemen_', '_Mali_']","['f', 'f', 'm', 'f', 'm', 'f']","['p245', 'p268', 'p318', 'p248', 'p307', 'p284']","[10, 8, 6, 9, 2, 7]","[93.00003341222717, 92.0152836843556, 91.58892582949886, 92.00610777531934, 87.57049330475357, 91.73820004985969]",4.0,False,9.0,2.8284271247461903,2.1878814697265625,0.7124843945068664
0,,sub_114,2024-07-18 13:45:09,3,distance,cathedral,numerosity_judgement,1,4,2,countries_forward,"['_Cuba_', '_Syria_']","['f', 'f']","['p248', 'p284']","[2, 0]","[87.57049330475357, 84.40078082039426]",2.0,True,3.0,1.4142135623730951,1.1902761459350586,0.918488253319714
0,,sub_114,2024-07-18 13:45:13,3,distance,cathedral,numerosity_judgement,1,5,4,countries_forward,"['_Syria_', '_Oman_', '_Britain_', '_Sudan_']","['m', 'f', 'm', 'm']","['p256', 'p248', 'p229', 'p307']","[4, 5, 2, 8]","[89.31368318402099, 90.34149293193902, 87.57049330475357, 92.0152836843556]",4.0,True,6.75,2.5,1.9394984245300293,0.8578140960163432
0,,sub_114,2024-07-18 13:45:16,3,distance,cathedral,numerosity_judgement,1,6,2,countries_forward,"['_Yemen_', '_Congo_']","['m', 'm']","['p307', 'p229']","[1, 3]","[86.2038576498559, 89.14911522239515]",2.0,True,4.0,1.4142135623730951,1.7503056526184082,0.8083418454204971
0,,sub_114,2024-07-18 13:45:20,3,distance,cathedral,numerosity_judgement,1,7,6,countries_forward,"['_Cuba_', '_Peru_', '_Yemen_', '_Oman_', '_Mali_', '_Tonga_']","['f', 'f', 'm', 'm', 'm', 'f']","['p245', 'p268', 'p229', 'p318', 'p256', 'p284']","[0, 10, 9, 4, 1, 2]","[84.40078082039426, 93.00003341222717, 92.00610777531934, 89.31368318402099, 86.2038576498559, 87.57049330475357]",5.0,False,6.333333333333333,4.226897995772629,2.0003488063812256,0.7941436840313245
0,,sub_114,2024-07-18 13:45:24,3,distance,cathedral,numerosity_judgement,1,8,5,countries_forward,"['_Japan_', '_Mali_', '_Cuba_', '_Oman_', '_Sudan_']","['f', 'f', 'm', 'm', 'f']","['p268', 'p248', 'p256', 'p307', 'p245']","[1, 10, 2, 3, 7]","[86.2038576498559, 93.00003341222717, 87.57049330475357, 89.14911522239515, 91.73820004985969]",2.0,False,6.6,3.7815340802378072,1.9225859642028809,0.7705368289637953
0,,sub_114,2024-07-18 13:45:27,3,distance,cathedral,numerosity_judgement,1,9,3,countries_forward,"['_Cuba_', '_Yemen_', '_Mali_']","['m', 'f', 'm']","['p318', 'p248', 'p256']","[10, 3, 9]","[93.00003341222717, 89.14911522239515, 92.00610777531934]",2.0,False,9.333333333333334,3.7859388972001824,1.5628249645233154,0.7921348314606742
0,,sub_114,2024-07-18 13:45:31,3,distance,cathedral,numerosity_judgement,1,10,4,countries_forward,"['_Yemen_', '_Oman_', '_Peru_', '_Togo_']","['m', 'm', 'f', 'm']","['p229', 'p307', 'p268', 'p256']","[9, 5, 3, 10]","[92.00610777531934, 90.34149293193902, 89.14911522239515, 93.00003341222717]",3.0,False,8.75,3.304037933599835,1.6252846717834473,0.6414935875610033
0,,sub_114,2024-07-18 13:45:35,3,distance,cathedral,numerosity_judgement,1,11,6,countries_forward,"['_Yemen_', '_Cuba_', '_Japan_', '_Britain_', '_Belgium_', '_Peru_']","['m', 'f', 'f', 'm', 'f', 'm']","['p256', 'p245', 'p248', 'p318', 'p284', 'p307']","[10, 4, 0, 7, 3, 8]","[93.00003341222717, 89.31368318402099, 84.40078082039426, 91.73820004985969, 89.14911522239515, 92.0152836843556]",3.0,False,7.333333333333333,3.669695718539436,1.4960589408874512,0.8242083758937692
0,,sub_114,2024-07-18 13:45:37,3,distance,cathedral,numerosity_judgement,1,12,3,countries_forward,"['_Mali_', '_Congo_', '_Japan_']","['f', 'f', 'f']","['p248', 'p284', 'p268']","[1, 4, 0]","[86.2038576498559, 89.31368318402099, 84.40078082039426]",2.0,False,3.6666666666666665,2.081665999466133,1.1251964569091797,0.9337419135171944
0,,sub_114,2024-07-18 13:45:40,3,distance,cathedral,numerosity_judgement,1,13,2,countries_forward,"['_Yemen_', '_Cuba_']","['m', 'f']","['p307', 'p268']","[3, 7]","[89.14911522239515, 91.73820004985969]",2.0,True,7.0,2.8284271247461903,1.4377524852752686,0.7047554193621609
0,,sub_114,2024-07-18 13:45:44,3,distance,cathedral,numerosity_judgement,1,14,5,countries_forward,"['_Japan_', '_Belgium_', '_Syria_', '_Mali_', '_Togo_']","['f', 'm', 'f', 'm', 'm']","['p284', 'p229', 'p245', 'p307', 'p318']","[9, 1, 10, 2, 8]","[92.00610777531934, 86.2038576498559, 93.00003341222717, 87.57049330475357, 92.0152836843556]",3.0,False,8.0,4.183300132670378,1.4998738765716553,0.9450686641697876
0,,sub_114,2024-07-18 13:45:47,3,distance,cathedral,numerosity_judgement,1,15,6,countries_forward,"['_Congo_', '_Oman_', '_Syria_', '_Tonga_', '_Togo_', '_Japan_']","['m', 'm', 'm', 'f', 'f', 'f']","['p307', 'p318', 'p229', 'p284', 'p268', 'p245']","[4, 0, 6, 3, 9, 1]","[89.31368318402099, 84.40078082039426, 91.58892582949886, 89.14911522239515, 92.00610777531934, 86.2038576498559]",3.0,False,5.833333333333333,3.3115957885386114,1.3752403259277344,0.9373169901259788
0,,sub_114,2024-07-18 13:45:50,3,distance,cathedral,numerosity_judgement,1,16,2,countries_forward,"['_Sudan_', '_Mali_']","['f', 'f']","['p284', 'p248']","[10, 3]","[93.00003341222717, 89.14911522239515]",2.0,True,8.5,4.949747468305833,1.250216007232666,0.9569969356486212
0,,sub_114,2024-07-18 13:45:54,3,distance,cathedral,numerosity_judgement,1,17,5,countries_forward,"['_Belgium_', '_Peru_', '_Britain_', '_Sudan_', '_Japan_']","['f', 'm', 'm', 'f', 'm']","['p268', 'p256', 'p318', 'p245', 'p229']","[9, 1, 2, 6, 0]","[92.00610777531934, 86.2038576498559, 87.57049330475357, 91.58892582949886, 84.40078082039426]",3.0,False,5.6,3.7815340802378072,2.0627267360687256,0.9552945182158664
0,,sub_114,2024-07-18 13:45:58,3,distance,cathedral,numerosity_judgement,1,18,3,countries_forward,"['_Peru_', '_Yemen_', '_Oman_']","['m', 'f', 'm']","['p229', 'p245', 'p256']","[6, 8, 4]","[91.58892582949886, 92.0152836843556, 89.31368318402099]",2.0,False,8.0,2.0,2.316736936569214,0.7465327431619566
0,,sub_114,2024-07-18 13:46:02,3,distance,cathedral,numerosity_judgement,1,19,4,countries_forward,"['_Togo_', '_Yemen_', '_Cuba_', '_Peru_']","['m', 'm', 'f', 'f']","['p229', 'p307', 'p245', 'p268']","[9, 4, 6, 10]","[92.00610777531934, 89.31368318402099, 91.58892582949886, 93.00003341222717]",2.0,False,9.25,2.753785273643051,2.5629465579986572,0.7585518102372035
0,,sub_114,2024-07-18 13:46:06,3,distance,cathedral,numerosity_judgement,1,20,6,countries_forward,"['_Congo_', '_Tonga_', '_Mali_', '_Cuba_', '_Belgium_', '_Yemen_']","['m', 'f', 'f', 'm', 'f', 'f']","['p229', 'p245', 'p268', 'p307', 'p248', 'p284']","[9, 5, 4, 7, 6, 2]","[92.00610777531934, 90.34149293193902, 89.31368318402099, 91.73820004985969, 91.58892582949886, 87.57049330475357]",4.0,False,7.5,2.4289915602982237,1.687821865081787,0.7404834865509022
0,,sub_114,2024-07-18 13:46:09,3,distance,cathedral,numerosity_judgement,1,21,3,countries_forward,"['_Oman_', '_Peru_', '_Cuba_']","['m', 'm', 'm']","['p256', 'p307', 'p318']","[10, 8, 1]","[93.00003341222717, 92.0152836843556, 86.2038576498559]",3.0,True,8.333333333333334,4.725815626252608,1.3741569519042969,0.6713426398819657
0,,sub_114,2024-07-18 13:46:12,3,distance,cathedral,numerosity_judgement,1,22,5,countries_forward,"['_Japan_', '_Syria_', '_Cuba_', '_Mali_', '_Congo_']","['f', 'm', 'f', 'm', 'm']","['p245', 'p229', 'p268', 'p318', 'p256']","[1, 7, 3, 5, 2]","[86.2038576498559, 91.73820004985969, 89.14911522239515, 90.34149293193902, 87.57049330475357]",3.0,False,5.6,2.4083189157584592,1.7506141662597656,0.9175689479060266
0,,sub_114,2024-07-18 13:46:16,3,distance,cathedral,numerosity_judgement,1,23,4,countries_forward,"['_Peru_', '_Yemen_', '_Congo_', '_Cuba_']","['f', 'f', 'm', 'm']","['p245', 'p248', 'p256', 'p229']","[5, 2, 1, 3]","[90.34149293193902, 87.57049330475357, 86.2038576498559, 89.14911522239515]",2.0,False,4.75,1.707825127659933,1.5002624988555908,0.7025309272500284
0,,sub_114,2024-07-18 13:46:19,3,distance,cathedral,numerosity_judgement,1,24,2,countries_forward,"['_Yemen_', '_Oman_']","['f', 'm']","['p248', 'p307']","[7, 9]","[91.73820004985969, 92.00610777531934]",2.0,True,10.0,1.4142135623730951,1.9379963874816895,0.5863920099875156
0,,sub_114,2024-07-18 13:46:22,3,distance,cathedral,numerosity_judgement,1,25,3,countries_forward,"['_Sudan_', '_Togo_', '_Oman_']","['m', 'm', 'm']","['p307', 'p256', 'p229']","[0, 3, 1]","[84.40078082039426, 89.14911522239515, 86.2038576498559]",2.0,False,3.3333333333333335,1.5275252316519468,1.2502179145812988,0.9079673135852911
0,,sub_114,2024-07-18 13:46:26,3,distance,cathedral,numerosity_judgement,1,26,6,countries_forward,"['_Tonga_', '_Syria_', '_Togo_', '_Belgium_', '_Britain_', '_Sudan_']","['f', 'f', 'm', 'f', 'm', 'f']","['p248', 'p284', 'p318', 'p245', 'p229', 'p268']","[2, 8, 6, 5, 1, 0]","[87.57049330475357, 92.0152836843556, 91.58892582949886, 90.34149293193902, 86.2038576498559, 84.40078082039426]",5.0,False,5.666666666666667,3.141125063837266,1.875391960144043,0.9558733401430032
0,,sub_114,2024-07-18 13:46:30,3,distance,cathedral,numerosity_judgement,1,27,5,countries_forward,"['_Japan_', '_Sudan_', '_Togo_', '_Mali_', '_Congo_']","['f', 'f', 'm', 'f', 'm']","['p248', 'p268', 'p307', 'p284', 'p229']","[4, 3, 6, 1, 5]","[89.31368318402099, 89.14911522239515, 91.58892582949886, 86.2038576498559, 90.34149293193902]",3.0,False,5.8,1.9235384061671346,1.6883411407470703,0.8976960617410056
0,,sub_114,2024-07-18 13:46:33,3,distance,cathedral,numerosity_judgement,1,28,4,countries_forward,"['_Cuba_', '_Syria_', '_Peru_', '_Britain_']","['m', 'm', 'm', 'f']","['p318', 'p229', 'p307', 'p268']","[0, 3, 6, 5]","[84.40078082039426, 89.14911522239515, 91.58892582949886, 90.34149293193902]",3.0,False,5.5,2.6457513110645907,1.8756494522094727,0.9239473385540802
0,,sub_114,2024-07-18 13:46:36,3,distance,cathedral,numerosity_judgement,1,29,2,countries_forward,"['_Britain_', '_Oman_']","['m', 'm']","['p307', 'p256']","[6, 1]","[91.58892582949886, 86.2038576498559]",2.0,True,5.5,3.5355339059327378,1.6252822875976562,0.7698899103393485
0,,sub_114,2024-07-18 13:46:40,3,distance,cathedral,numerosity_judgement,1,30,4,countries_forward,"['_Japan_', '_Togo_', '_Sudan_', '_Britain_']","['f', 'm', 'm', 'm']","['p268', 'p307', 'p229', 'p318']","[0, 2, 9, 3]","[84.40078082039426, 87.57049330475357, 92.00610777531934, 89.14911522239515]",3.0,False,5.5,3.872983346207417,1.548616886138916,0.9705254795142436
0,,sub_114,2024-07-18 13:46:43,3,distance,cathedral,numerosity_judgement,1,31,2,countries_forward,"['_Belgium_', '_Oman_']","['m', 'm']","['p307', 'p229']","[0, 6]","[84.40078082039426, 91.58892582949886]",2.0,True,5.0,4.242640687119285,1.4995167255401611,0.7219044376347747
0,,sub_114,2024-07-18 13:46:46,3,distance,cathedral,numerosity_judgement,1,32,6,countries_forward,"['_Congo_', '_Cuba_', '_Tonga_', '_Peru_', '_Japan_', '_Britain_']","['f', 'm', 'm', 'f', 'f', 'm']","['p248', 'p307', 'p256', 'p284', 'p268', 'p318']","[10, 7, 6, 5, 2, 8]","[93.00003341222717, 91.73820004985969, 91.58892582949886, 90.34149293193902, 87.57049330475357, 92.0152836843556]",6.0,True,8.333333333333334,2.7325202042558927,1.62528395652771,0.7261264328680059
0,,sub_114,2024-07-18 13:46:50,3,distance,cathedral,numerosity_judgement,1,33,3,countries_forward,"['_Peru_', '_Japan_', '_Cuba_']","['f', 'm', 'm']","['p284', 'p256', 'p229']","[0, 4, 3]","[84.40078082039426, 89.31368318402099, 89.14911522239515]",2.0,False,4.333333333333333,2.0816659994661326,2.1255650520324707,0.7316876631483373
0,,sub_114,2024-07-18 13:46:54,3,distance,cathedral,numerosity_judgement,1,34,5,countries_forward,"['_Oman_', '_Cuba_', '_Togo_', '_Yemen_', '_Congo_']","['f', 'f', 'm', 'm', 'm']","['p284', 'p268', 'p307', 'p256', 'p318']","[1, 10, 4, 3, 7]","[86.2038576498559, 93.00003341222717, 89.31368318402099, 89.14911522239515, 91.73820004985969]",4.0,False,7.0,3.5355339059327378,1.6253771781921387,0.6794347974123255
0,,sub_114,2024-07-18 13:46:58,3,distance,cathedral,numerosity_judgement,1,35,6,countries_forward,"['_Tonga_', '_Congo_', '_Japan_', '_Sudan_', '_Britain_', '_Peru_']","['f', 'f', 'm', 'm', 'f', 'm']","['p268', 'p245', 'p307', 'p256', 'p248', 'p318']","[7, 10, 9, 3, 4, 2]","[91.73820004985969, 93.00003341222717, 92.00610777531934, 89.14911522239515, 89.31368318402099, 87.57049330475357]",4.0,False,7.833333333333333,3.3115957885386114,1.75148606300354,0.8991487912836228
0,,sub_114,2024-07-18 13:47:02,3,distance,cathedral,numerosity_judgement,1,36,5,countries_forward,"['_Congo_', '_Peru_', '_Yemen_', '_Japan_', '_Cuba_']","['f', 'f', 'f', 'm', 'f']","['p268', 'p284', 'p245', 'p256', 'p248']","[8, 0, 7, 10, 2]","[92.0152836843556, 84.40078082039426, 91.73820004985969, 93.00003341222717, 87.57049330475357]",5.0,True,7.4,4.219004621945797,2.2504208087921143,0.8242651231415277
0,,sub_114,2024-07-18 13:47:06,3,distance,cathedral,numerosity_judgement,1,37,4,countries_forward,"['_Congo_', '_Oman_', '_Peru_', '_Yemen_']","['m', 'm', 'f', 'f']","['p307', 'p229', 'p284', 'p248']","[3, 10, 2, 6]","[89.14911522239515, 93.00003341222717, 87.57049330475357, 91.58892582949886]",3.0,False,7.25,3.593976442141304,2.1878817081451416,0.672829417773238
0,,sub_114,2024-07-18 13:47:09,3,distance,cathedral,numerosity_judgement,1,38,3,countries_forward,"['_Tonga_', '_Peru_', '_Yemen_']","['f', 'm', 'f']","['p245', 'p318', 'p268']","[5, 7, 6]","[90.34149293193902, 91.73820004985969, 91.58892582949886]",3.0,True,8.0,1.0,1.6885170936584473,0.6370332538871865
0,,sub_114,2024-07-18 13:47:12,3,distance,cathedral,numerosity_judgement,1,39,2,countries_forward,"['_Oman_', '_Yemen_']","['m', 'm']","['p307', 'p318']","[9, 10]","[92.00610777531934, 93.00003341222717]",2.0,True,11.5,0.7071067811865476,1.437751054763794,0.6563840653728295
0,,sub_114,2024-07-18 13:47:15,3,distance,cathedral,numerosity_judgement,1,40,5,countries_forward,"['_Oman_', '_Peru_', '_Congo_', '_Britain_', '_Togo_']","['m', 'm', 'f', 'm', 'f']","['p229', 'p256', 'p248', 'p318', 'p268']","[6, 2, 10, 4, 9]","[91.58892582949886, 87.57049330475357, 93.00003341222717, 89.31368318402099, 92.00610777531934]",3.0,False,8.2,3.3466401061363023,1.62528395652771,0.7160821700147543
0,,sub_114,2024-07-18 13:47:19,3,distance,cathedral,numerosity_judgement,1,41,4,countries_forward,"['_Britain_', '_Tonga_', '_Japan_', '_Oman_']","['f', 'f', 'm', 'm']","['p248', 'p245', 'p229', 'p256']","[3, 4, 0, 5]","[89.14911522239515, 89.31368318402099, 84.40078082039426, 90.34149293193902]",2.0,False,5.0,2.160246899469287,1.8770883083343506,0.7376007263647714
0,,sub_114,2024-07-18 13:47:22,3,distance,cathedral,numerosity_judgement,1,42,3,countries_forward,"['_Peru_', '_Congo_', '_Sudan_']","['m', 'f', 'm']","['p307', 'p284', 'p256']","[5, 2, 1]","[90.34149293193902, 87.57049330475357, 86.2038576498559]",3.0,True,4.666666666666667,2.0816659994661326,1.1877081394195557,0.8256270570877312
0,,sub_114,2024-07-18 13:47:25,3,distance,cathedral,numerosity_judgement,1,43,2,countries_forward,"['_Togo_', '_Tonga_']","['m', 'f']","['p256', 'p268']","[5, 10]","[90.34149293193902, 93.00003341222717]",3.0,False,9.5,3.5355339059327378,1.3110425472259521,0.8506298944501192
0,,sub_114,2024-07-18 13:47:28,3,distance,cathedral,numerosity_judgement,1,44,6,countries_forward,"['_Britain_', '_Peru_', '_Japan_', '_Belgium_', '_Mali_', '_Congo_']","['f', 'm', 'f', 'f', 'f', 'm']","['p268', 'p229', 'p248', 'p245', 'p284', 'p307']","[0, 4, 10, 7, 1, 6]","[84.40078082039426, 89.31368318402099, 93.00003341222717, 91.73820004985969, 86.2038576498559, 91.58892582949886]",3.0,False,6.666666666666667,3.777124126457412,1.6279618740081787,0.8930087390761549
0,,sub_114,2024-07-18 13:47:32,3,distance,cathedral,numerosity_judgement,1,45,5,countries_forward,"['_Mali_', '_Togo_', '_Congo_', '_Britain_', '_Yemen_']","['m', 'm', 'm', 'm', 'f']","['p307', 'p229', 'p256', 'p318', 'p284']","[4, 1, 8, 7, 5]","[89.31368318402099, 86.2038576498559, 92.0152836843556, 91.73820004985969, 90.34149293193902]",5.0,True,7.0,2.7386127875258306,1.6877944469451904,0.8338440585631597
0,,sub_114,2024-07-18 13:47:35,3,distance,cathedral,numerosity_judgement,1,46,3,countries_forward,"['_Tonga_', '_Congo_', '_Oman_']","['f', 'm', 'm']","['p268', 'p256', 'p318']","[7, 8, 2]","[91.73820004985969, 92.0152836843556, 87.57049330475357]",3.0,True,7.666666666666667,3.2145502536643185,1.6253142356872559,0.7050051072522983
0,,sub_114,2024-07-18 13:47:38,3,distance,cathedral,numerosity_judgement,1,47,2,countries_forward,"['_Yemen_', '_Belgium_']","['m', 'm']","['p256', 'p318']","[6, 8]","[91.58892582949886, 92.0152836843556]",2.0,True,9.0,1.4142135623730951,1.3147273063659668,0.7921575303597775
0,,sub_114,2024-07-18 13:47:42,3,distance,cathedral,numerosity_judgement,1,48,6,countries_forward,"['_Congo_', '_Tonga_', '_Britain_', '_Oman_', '_Yemen_', '_Peru_']","['m', 'f', 'f', 'm', 'm', 'f']","['p318', 'p245', 'p268', 'p256', 'p229', 'p284']","[3, 4, 9, 5, 6, 7]","[89.14911522239515, 89.31368318402099, 92.00610777531934, 90.34149293193902, 91.58892582949886, 91.73820004985969]",6.0,True,7.666666666666667,2.160246899469287,2.1253716945648193,0.8103960957893542
0,,sub_114,2024-07-18 13:47:46,3,distance,cathedral,numerosity_judgement,1,49,4,countries_forward,"['_Mali_', '_Oman_', '_Congo_', '_Sudan_']","['m', 'm', 'm', 'm']","['p256', 'p318', 'p307', 'p229']","[2, 8, 10, 9]","[87.57049330475357, 92.0152836843556, 93.00003341222717, 92.00610777531934]",5.0,False,9.25,3.593976442141304,2.250392436981201,0.936601974804222
0,,sub_114,2024-07-18 13:47:50,3,distance,cathedral,numerosity_judgement,1,50,6,countries_forward,"['_Belgium_', '_Cuba_', '_Peru_', '_Sudan_', '_Congo_', '_Japan_']","['m', 'f', 'm', 'm', 'f', 'm']","['p307', 'p268', 'p256', 'p229', 'p245', 'p318']","[0, 7, 10, 3, 5, 1]","[84.40078082039426, 91.73820004985969, 93.00003341222717, 89.14911522239515, 90.34149293193902, 86.2038576498559]",5.0,False,6.333333333333333,3.777124126457412,1.7508230209350586,0.9262966746112814
0,,sub_114,2024-07-18 13:47:53,3,distance,cathedral,numerosity_judgement,1,51,2,countries_forward,"['_Oman_', '_Cuba_']","['f', 'f']","['p284', 'p268']","[0, 1]","[84.40078082039426, 86.2038576498559]",2.0,True,2.5,0.7071067811865476,1.2516777515411377,0.8875950516399954
0,,sub_114,2024-07-18 13:47:56,3,distance,cathedral,numerosity_judgement,1,52,3,countries_forward,"['_Belgium_', '_Britain_', '_Oman_']","['m', 'm', 'm']","['p229', 'p318', 'p307']","[4, 8, 1]","[89.31368318402099, 92.0152836843556, 86.2038576498559]",2.0,False,6.333333333333333,3.5118845842842465,1.8128163814544678,0.8926342072409488
0,,sub_114,2024-07-18 13:48:00,3,distance,cathedral,numerosity_judgement,1,53,4,countries_forward,"['_Britain_', '_Mali_', '_Peru_', '_Oman_']","['f', 'f', 'm', 'm']","['p268', 'p248', 'p318', 'p229']","[0, 4, 1, 3]","[84.40078082039426, 89.31368318402099, 86.2038576498559, 89.14911522239515]",3.0,False,4.0,1.8257418583505538,1.8620109558105469,0.6887413460447168
0,,sub_114,2024-07-18 13:48:03,3,distance,cathedral,numerosity_judgement,1,54,5,countries_forward,"['_Peru_', '_Oman_', '_Congo_', '_Tonga_', '_Mali_']","['m', 'm', 'm', 'f', 'f']","['p318', 'p229', 'p256', 'p248', 'p268']","[3, 10, 5, 0, 7]","[89.14911522239515, 93.00003341222717, 90.34149293193902, 84.40078082039426, 91.73820004985969]",3.0,False,7.0,3.8078865529319543,1.6850855350494385,0.753478606287595
0,,sub_114,2024-07-18 13:48:07,3,distance,cathedral,numerosity_judgement,1,55,3,countries_forward,"['_Cuba_', '_Togo_', '_Congo_']","['m', 'f', 'm']","['p256', 'p245', 'p307']","[2, 3, 5]","[87.57049330475357, 89.14911522239515, 90.34149293193902]",2.0,False,5.333333333333333,1.5275252316519465,2.3752498626708984,0.8386675746226308
0,,sub_114,2024-07-18 13:48:11,3,distance,cathedral,numerosity_judgement,1,56,6,countries_forward,"['_Mali_', '_Syria_', '_Yemen_', '_Congo_', '_Oman_', '_Sudan_']","['m', 'm', 'f', 'f', 'f', 'm']","['p318', 'p307', 'p248', 'p245', 'p284', 'p256']","[3, 8, 6, 9, 2, 4]","[89.14911522239515, 92.0152836843556, 91.58892582949886, 92.00610777531934, 87.57049330475357, 89.31368318402099]",3.0,False,7.333333333333333,2.804757862395017,1.8752174377441406,0.8726932243786176
0,,sub_114,2024-07-18 13:48:15,3,distance,cathedral,numerosity_judgement,1,57,4,countries_forward,"['_Togo_', '_Oman_', '_Tonga_', '_Yemen_']","['m', 'm', 'f', 'm']","['p229', 'p318', 'p268', 'p307']","[2, 10, 9, 5]","[87.57049330475357, 93.00003341222717, 92.00610777531934, 90.34149293193902]",3.0,False,8.5,3.696845502136472,1.751389980316162,0.7966405629326978
0,,sub_114,2024-07-18 13:48:19,3,distance,cathedral,numerosity_judgement,1,58,5,countries_forward,"['_Peru_', '_Oman_', '_Britain_', '_Mali_', '_Togo_']","['f', 'm', 'f', 'm', 'f']","['p268', 'p256', 'p284', 'p307', 'p248']","[6, 10, 4, 5, 2]","[91.58892582949886, 93.00003341222717, 89.31368318402099, 90.34149293193902, 87.57049330475357]",3.0,False,7.4,2.9664793948382653,2.001361131668091,0.7206559981840881
0,,sub_114,2024-07-18 13:48:22,3,distance,cathedral,numerosity_judgement,1,59,2,countries_forward,"['_Oman_', '_Peru_']","['f', 'm']","['p268', 'p307']","[3, 6]","[89.14911522239515, 91.58892582949886]",2.0,True,6.5,2.1213203435596424,1.8752615451812744,0.6661105436386335
0,,sub_114,2024-07-18 13:48:26,3,distance,cathedral,numerosity_judgement,1,60,3,countries_forward,"['_Peru_', '_Congo_', '_Japan_']","['f', 'm', 'f']","['p284', 'p256', 'p245']","[1, 3, 5]","[86.2038576498559, 89.14911522239515, 90.34149293193902]",2.0,False,5.0,2.0,2.000208854675293,0.8762796504369538
0,,sub_114,2024-07-18 13:48:29,3,distance,cathedral,numerosity_judgement,1,61,5,countries_forward,"['_Britain_', '_Belgium_', '_Togo_', '_Syria_', '_Congo_']","['m', 'm', 'f', 'm', 'f']","['p229', 'p256', 'p268', 'p318', 'p248']","[7, 4, 3, 2, 8]","[91.73820004985969, 89.31368318402099, 89.14911522239515, 87.57049330475357, 92.0152836843556]",3.0,False,6.8,2.588435821108957,1.9386816024780273,0.871592327772103
0,,sub_114,2024-07-18 13:48:34,3,distance,cathedral,numerosity_judgement,1,62,6,countries_forward,"['_Yemen_', '_Congo_', '_Britain_', '_Cuba_', '_Oman_', '_Sudan_']","['m', 'f', 'm', 'm', 'f', 'f']","['p256', 'p284', 'p307', 'p318', 'p268', 'p248']","[6, 4, 10, 7, 1, 2]","[91.58892582949886, 89.31368318402099, 93.00003341222717, 91.73820004985969, 86.2038576498559, 87.57049330475357]",4.0,False,7.0,3.3466401061363023,2.3596575260162354,0.7738962660310975
0,,sub_114,2024-07-18 13:48:37,3,distance,cathedral,numerosity_judgement,1,63,4,countries_forward,"['_Yemen_', '_Togo_', '_Oman_', '_Sudan_']","['f', 'f', 'f', 'm']","['p284', 'p248', 'p245', 'p307']","[8, 4, 2, 6]","[92.0152836843556, 89.31368318402099, 87.57049330475357, 91.58892582949886]",3.0,False,7.0,2.581988897471611,1.7501857280731201,0.820996481670639
0,,sub_114,2024-07-18 13:48:40,3,distance,cathedral,numerosity_judgement,1,64,2,countries_forward,"['_Mali_', '_Oman_']","['m', 'm']","['p307', 'p256']","[5, 7]","[90.34149293193902, 91.73820004985969]",2.0,True,8.0,1.4142135623730951,1.5001575946807861,0.5621949835432981
0,,sub_114,2024-07-18 13:48:44,3,distance,cathedral,numerosity_judgement,1,65,6,countries_forward,"['_Cuba_', '_Peru_', '_Togo_', '_Syria_', '_Yemen_', '_Oman_']","['m', 'f', 'f', 'f', 'm', 'f']","['p307', 'p245', 'p284', 'p248', 'p318', 'p268']","[7, 10, 0, 2, 3, 1]","[91.73820004985969, 93.00003341222717, 84.40078082039426, 87.57049330475357, 89.14911522239515, 86.2038576498559]",3.0,False,5.833333333333333,3.8686776379877745,1.7520813941955566,0.7590965838156849
0,,sub_114,2024-07-18 13:48:47,3,distance,cathedral,numerosity_judgement,1,66,3,countries_forward,"['_Cuba_', '_Oman_', '_Togo_']","['f', 'm', 'm']","['p248', 'p256', 'p307']","[8, 7, 2]","[92.0152836843556, 91.73820004985969, 87.57049330475357]",3.0,True,7.666666666666667,3.2145502536643185,1.5626916885375977,0.7649302008852571
0,,sub_114,2024-07-18 13:48:50,3,distance,cathedral,numerosity_judgement,1,67,2,countries_forward,"['_Britain_', '_Japan_']","['f', 'm']","['p284', 'p318']","[4, 9]","[89.31368318402099, 92.00610777531934]",2.0,True,8.5,3.5355339059327378,1.5626630783081055,0.935069799114743
0,,sub_114,2024-07-18 13:48:54,3,distance,cathedral,numerosity_judgement,1,68,4,countries_forward,"['_Peru_', '_Oman_', '_Britain_', '_Yemen_']","['f', 'f', 'm', 'f']","['p245', 'p268', 'p307', 'p248']","[10, 9, 5, 1]","[93.00003341222717, 92.00610777531934, 90.34149293193902, 86.2038576498559]",3.0,False,8.25,4.112987559751022,1.688462734222412,0.782113267506526
0,,sub_114,2024-07-18 13:48:58,3,distance,cathedral,numerosity_judgement,1,69,5,countries_forward,"['_Congo_', '_Oman_', '_Mali_', '_Britain_', '_Cuba_']","['m', 'f', 'f', 'm', 'f']","['p229', 'p248', 'p245', 'p256', 'p268']","[7, 3, 6, 1, 8]","[91.73820004985969, 89.14911522239515, 91.58892582949886, 86.2038576498559, 92.0152836843556]",3.0,False,7.0,2.9154759474226504,1.9377036094665527,0.7943366246737034
0,,sub_114,2024-07-18 13:49:00,3,distance,cathedral,numerosity_judgement,1,70,2,countries_forward,"['_Yemen_', '_Oman_']","['m', 'm']","['p256', 'p307']","[0, 5]","[84.40078082039426, 90.34149293193902]",2.0,True,4.5,3.5355339059327378,1.250131368637085,0.608194302576325
0,,sub_114,2024-07-18 13:49:03,3,distance,cathedral,numerosity_judgement,1,71,3,countries_forward,"['_Congo_', '_Oman_', '_Yemen_']","['f', 'm', 'f']","['p268', 'p307', 'p245']","[3, 4, 6]","[89.14911522239515, 89.31368318402099, 91.58892582949886]",2.0,False,6.333333333333333,1.5275252316519465,1.4975662231445312,0.6248439450686641
0,,sub_114,2024-07-18 13:49:08,3,distance,cathedral,numerosity_judgement,1,72,5,countries_forward,"['_Cuba_', '_Sudan_', '_Congo_', '_Belgium_', '_Yemen_']","['m', 'm', 'm', 'm', 'f']","['p307', 'p229', 'p256', 'p318', 'p284']","[4, 2, 5, 3, 10]","[89.31368318402099, 87.57049330475357, 90.34149293193902, 89.14911522239515, 93.00003341222717]",4.0,False,6.8,3.1144823004794877,2.3127427101135254,0.878367949154466
0,,sub_114,2024-07-18 13:49:12,3,distance,cathedral,numerosity_judgement,1,73,4,countries_forward,"['_Tonga_', '_Sudan_', '_Syria_', '_Congo_']","['f', 'm', 'm', 'f']","['p268', 'p307', 'p229', 'p284']","[9, 10, 5, 0]","[92.00610777531934, 93.00003341222717, 90.34149293193902, 84.40078082039426]",6.0,False,8.0,4.546060565661952,2.6252760887145996,0.8734763363976847
0,,sub_114,2024-07-18 13:49:16,3,distance,cathedral,numerosity_judgement,1,74,6,countries_forward,"['_Congo_', '_Togo_', '_Yemen_', '_Tonga_', '_Belgium_', '_Mali_']","['f', 'f', 'm', 'm', 'm', 'm']","['p284', 'p248', 'p318', 'p307', 'p229', 'p256']","[3, 6, 5, 1, 10, 8]","[89.14911522239515, 91.58892582949886, 90.34149293193902, 86.2038576498559, 93.00003341222717, 92.0152836843556]",6.0,True,7.5,3.271085446759225,2.0002100467681885,0.8508001361933947
0,,sub_114,2024-07-18 13:50:25,3,distance,cathedral,numerosity_judgement,2,0,4,countries_forward,"['_Tonga_', '_Peru_', '_Oman_', '_Britain_']","['f', 'f', 'm', 'f']","['p245', 'p248', 'p256', 'p268']","[7, 0, 9, 2]","[91.73820004985969, 84.40078082039426, 92.00610777531934, 87.57049330475357]",3.0,False,6.5,4.203173404306164,1.8613133430480957,0.6797185336511179
0,,sub_114,2024-07-18 13:50:29,3,distance,cathedral,numerosity_judgement,2,1,6,countries_forward,"['_Tonga_', '_Peru_', '_Mali_', '_Yemen_', '_Japan_', '_Sudan_']","['f', 'f', 'm', 'f', 'm', 'm']","['p245', 'p284', 'p256', 'p248', 'p307', 'p229']","[5, 10, 3, 6, 2, 1]","[90.34149293193902, 93.00003341222717, 89.14911522239515, 91.58892582949886, 87.57049330475357, 86.2038576498559]",4.0,False,6.5,3.271085446759225,1.560765027999878,0.7466462376574736
0,,sub_114,2024-07-18 13:50:32,3,distance,cathedral,numerosity_judgement,2,2,5,countries_forward,"['_Britain_', '_Cuba_', '_Tonga_', '_Peru_', '_Mali_']","['f', 'm', 'm', 'm', 'm']","['p245', 'p307', 'p229', 'p318', 'p256']","[3, 7, 2, 6, 4]","[89.14911522239515, 91.73820004985969, 87.57049330475357, 91.58892582949886, 89.31368318402099]",3.0,False,6.4,2.073644135332772,1.5626637935638428,0.7112132561570764
0,,sub_114,2024-07-18 13:50:36,3,distance,cathedral,numerosity_judgement,2,3,3,countries_forward,"['_Sudan_', '_Mali_', '_Belgium_']","['m', 'm', 'f']","['p229', 'p307', 'p284']","[10, 1, 4]","[93.00003341222717, 86.2038576498559, 89.31368318402099]",3.0,True,7.0,4.58257569495584,2.303802013397217,0.9435818862785156
0,,sub_114,2024-07-18 13:50:39,3,distance,cathedral,numerosity_judgement,2,4,2,countries_forward,"['_Peru_', '_Cuba_']","['m', 'm']","['p256', 'p307']","[1, 7]","[86.2038576498559, 91.73820004985969]",2.0,True,6.0,4.242640687119285,1.625258445739746,0.6684825785949381
0,,sub_114,2024-07-18 13:50:43,3,distance,cathedral,numerosity_judgement,2,5,4,countries_forward,"['_Sudan_', '_Britain_', '_Oman_', '_Japan_']","['m', 'm', 'm', 'f']","['p307', 'p229', 'p318', 'p268']","[7, 5, 0, 10]","[91.73820004985969, 90.34149293193902, 84.40078082039426, 93.00003341222717]",4.0,True,7.5,4.203173404306164,2.1226346492767334,0.8731245034615821
0,,sub_114,2024-07-18 13:50:46,3,distance,cathedral,numerosity_judgement,2,6,3,countries_forward,"['_Mali_', '_Togo_', '_Yemen_']","['m', 'f', 'f']","['p307', 'p268', 'p248']","[9, 3, 5]","[92.00610777531934, 89.14911522239515, 90.34149293193902]",2.0,False,7.666666666666667,3.0550504633038935,1.2501308917999268,0.6935308137555328
0,,sub_114,2024-07-18 13:50:49,3,distance,cathedral,numerosity_judgement,2,7,2,countries_forward,"['_Togo_', '_Yemen_']","['f', 'm']","['p245', 'p256']","[2, 7]","[87.57049330475357, 91.73820004985969]",2.0,True,6.5,3.5355339059327378,1.3127241134643555,0.7469072749971626
0,,sub_114,2024-07-18 13:50:52,3,distance,cathedral,numerosity_judgement,2,8,5,countries_forward,"['_Britain_', '_Oman_', '_Congo_', '_Mali_', '_Cuba_']","['m', 'm', 'f', 'm', 'f']","['p307', 'p229', 'p245', 'p256', 'p268']","[2, 0, 6, 1, 10]","[87.57049330475357, 84.40078082039426, 91.58892582949886, 86.2038576498559, 93.00003341222717]",3.0,False,5.8,4.147288270665544,1.3751451969146729,0.8123368516626943
0,,sub_114,2024-07-18 13:50:56,3,distance,cathedral,numerosity_judgement,2,9,6,countries_forward,"['_Oman_', '_Cuba_', '_Mali_', '_Britain_', '_Togo_', '_Tonga_']","['m', 'm', 'm', 'f', 'm', 'f']","['p229', 'p318', 'p256', 'p248', 'p307', 'p245']","[10, 3, 4, 9, 8, 5]","[93.00003341222717, 89.14911522239515, 89.31368318402099, 92.00610777531934, 92.0152836843556, 90.34149293193902]",3.0,False,8.5,2.8809720581775866,1.6876823902130127,0.7045851776188855
0,,sub_114,2024-07-18 13:50:59,3,distance,cathedral,numerosity_judgement,2,10,2,countries_forward,"['_Tonga_', '_Oman_']","['m', 'm']","['p318', 'p307']","[7, 2]","[91.73820004985969, 87.57049330475357]",2.0,True,6.5,3.5355339059327378,1.1239845752716064,0.824889342866871
0,,sub_114,2024-07-18 13:51:03,3,distance,cathedral,numerosity_judgement,2,11,4,countries_forward,"['_Peru_', '_Yemen_', '_Britain_', '_Belgium_']","['m', 'f', 'f', 'f']","['p318', 'p284', 'p268', 'p248']","[5, 8, 7, 0]","[90.34149293193902, 92.0152836843556, 91.73820004985969, 84.40078082039426]",4.0,True,7.0,3.559026084010437,2.3127431869506836,0.8462149585745091
0,,sub_114,2024-07-18 13:51:07,3,distance,cathedral,numerosity_judgement,2,12,6,countries_forward,"['_Peru_', '_Japan_', '_Britain_', '_Oman_', '_Togo_', '_Cuba_']","['m', 'f', 'f', 'f', 'f', 'm']","['p318', 'p284', 'p268', 'p245', 'p248', 'p307']","[4, 5, 1, 10, 3, 7]","[89.31368318402099, 90.34149293193902, 86.2038576498559, 93.00003341222717, 89.14911522239515, 91.73820004985969]",2.0,False,7.0,3.1622776601683795,1.875197410583496,0.79056860742254
0,,sub_114,2024-07-18 13:51:10,3,distance,cathedral,numerosity_judgement,2,13,5,countries_forward,"['_Belgium_', '_Yemen_', '_Tonga_', '_Sudan_', '_Syria_']","['m', 'm', 'f', 'f', 'f']","['p318', 'p307', 'p245', 'p268', 'p248']","[5, 4, 9, 10, 3]","[90.34149293193902, 89.31368318402099, 92.00610777531934, 93.00003341222717, 89.14911522239515]",4.0,False,8.2,3.1144823004794873,1.999891757965088,0.9178753830439224
0,,sub_114,2024-07-18 13:51:13,3,distance,cathedral,numerosity_judgement,2,14,3,countries_forward,"['_Cuba_', '_Britain_', '_Peru_']","['m', 'f', 'm']","['p318', 'p245', 'p307']","[0, 3, 7]","[84.40078082039426, 89.14911522239515, 91.73820004985969]",2.0,False,5.333333333333333,3.5118845842842465,1.3113150596618652,0.7907728975144706
0,,sub_114,2024-07-18 13:51:17,3,distance,cathedral,numerosity_judgement,2,15,6,countries_forward,"['_Peru_', '_Togo_', '_Syria_', '_Oman_', '_Sudan_', '_Yemen_']","['m', 'f', 'm', 'f', 'f', 'f']","['p229', 'p268', 'p307', 'p284', 'p248', 'p245']","[8, 7, 3, 0, 9, 6]","[92.0152836843556, 91.73820004985969, 89.14911522239515, 84.40078082039426, 92.00610777531934, 91.58892582949886]",3.0,False,7.5,3.391164991562634,1.6876790523529053,0.8461922596754058
0,,sub_114,2024-07-18 13:51:20,3,distance,cathedral,numerosity_judgement,2,16,5,countries_forward,"['_Peru_', '_Belgium_', '_Japan_', '_Tonga_', '_Sudan_']","['m', 'm', 'f', 'f', 'f']","['p229', 'p318', 'p248', 'p245', 'p284']","[1, 6, 2, 0, 9]","[86.2038576498559, 91.58892582949886, 87.57049330475357, 84.40078082039426, 92.00610777531934]",3.0,False,5.6,3.7815340802378072,1.4377143383026123,0.9561457269322438
0,,sub_114,2024-07-18 13:51:23,3,distance,cathedral,numerosity_judgement,2,17,2,countries_forward,"['_Mali_', '_Japan_']","['m', 'f']","['p256', 'p284']","[8, 5]","[92.0152836843556, 90.34149293193902]",2.0,True,8.5,2.1213203435596424,1.3739914894104004,0.8765066394279878
0,,sub_114,2024-07-18 13:51:27,3,distance,cathedral,numerosity_judgement,2,18,4,countries_forward,"['_Peru_', '_Syria_', '_Congo_', '_Britain_']","['f', 'm', 'f', 'm']","['p268', 'p229', 'p248', 'p318']","[3, 0, 8, 5]","[89.14911522239515, 84.40078082039426, 92.0152836843556, 90.34149293193902]",2.0,False,6.0,3.366501646120693,1.6876153945922852,0.8907615480649188
0,,sub_114,2024-07-18 13:51:30,3,distance,cathedral,numerosity_judgement,2,19,3,countries_forward,"['_Yemen_', '_Mali_', '_Syria_']","['m', 'm', 'f']","['p307', 'p318', 'p284']","[1, 6, 2]","[86.2038576498559, 91.58892582949886, 87.57049330475357]",2.0,False,5.0,2.6457513110645907,1.4391157627105713,0.927170582226762
0,,sub_114,2024-07-18 13:51:34,3,distance,cathedral,numerosity_judgement,2,20,2,countries_forward,"['_Cuba_', '_Congo_']","['m', 'm']","['p229', 'p256']","[9, 10]","[92.00610777531934, 93.00003341222717]",2.0,True,11.5,0.7071067811865476,2.497560739517212,0.7849392804448985
0,,sub_114,2024-07-18 13:51:37,3,distance,cathedral,numerosity_judgement,2,21,5,countries_forward,"['_Cuba_', '_Japan_', '_Yemen_', '_Britain_', '_Sudan_']","['f', 'f', 'm', 'm', 'f']","['p248', 'p268', 'p229', 'p256', 'p245']","[10, 6, 7, 0, 3]","[93.00003341222717, 91.58892582949886, 91.73820004985969, 84.40078082039426, 89.14911522239515]",3.0,False,7.2,3.8340579025361627,1.5001640319824219,0.8626830098740211
0,,sub_114,2024-07-18 13:51:40,3,distance,cathedral,numerosity_judgement,2,22,3,countries_forward,"['_Mali_', '_Sudan_', '_Cuba_']","['m', 'f', 'f']","['p256', 'p284', 'p268']","[4, 7, 3]","[89.31368318402099, 91.73820004985969, 89.14911522239515]",2.0,False,6.666666666666667,2.0816659994661326,1.4280436038970947,0.8858585858585859
0,,sub_114,2024-07-18 13:51:43,3,distance,cathedral,numerosity_judgement,2,23,4,countries_forward,"['_Yemen_', '_Britain_', '_Oman_', '_Mali_']","['f', 'm', 'm', 'm']","['p248', 'p256', 'p307', 'p318']","[6, 10, 3, 0]","[91.58892582949886, 93.00003341222717, 89.14911522239515, 84.40078082039426]",2.0,False,6.75,4.272001872658765,1.3101823329925537,0.7150607195551015
0,,sub_114,2024-07-18 13:51:47,3,distance,cathedral,numerosity_judgement,2,24,6,countries_forward,"['_Belgium_', '_Congo_', '_Togo_', '_Britain_', '_Yemen_', '_Oman_']","['f', 'm', 'm', 'm', 'f', 'f']","['p245', 'p307', 'p256', 'p229', 'p248', 'p268']","[7, 0, 10, 9, 3, 6]","[91.73820004985969, 84.40078082039426, 93.00003341222717, 92.00610777531934, 89.14911522239515, 91.58892582949886]",3.0,False,7.833333333333333,3.763863263545405,1.5002169609069824,0.7818635796163886
0,,sub_114,2024-07-18 13:51:50,3,distance,cathedral,numerosity_judgement,2,25,2,countries_forward,"['_Oman_', '_Congo_']","['m', 'm']","['p307', 'p318']","[9, 7]","[92.00610777531934, 91.73820004985969]",2.0,True,10.0,1.4142135623730951,1.4870030879974365,0.7318238565429577
0,,sub_114,2024-07-18 13:51:54,3,distance,cathedral,numerosity_judgement,2,26,6,countries_forward,"['_Peru_', '_Mali_', '_Congo_', '_Yemen_', '_Togo_', '_Oman_']","['m', 'm', 'm', 'f', 'f', 'm']","['p307', 'p229', 'p256', 'p284', 'p268', 'p318']","[10, 0, 8, 6, 1, 7]","[93.00003341222717, 84.40078082039426, 92.0152836843556, 91.58892582949886, 86.2038576498559, 91.73820004985969]",6.0,True,7.333333333333333,3.9832984656772417,2.0615293979644775,0.7224719101123596
0,,sub_114,2024-07-18 13:51:58,3,distance,cathedral,numerosity_judgement,2,27,5,countries_forward,"['_Mali_', '_Japan_', '_Syria_', '_Cuba_', '_Congo_']","['m', 'm', 'm', 'f', 'f']","['p318', 'p256', 'p307', 'p268', 'p248']","[9, 4, 1, 3, 5]","[92.00610777531934, 89.31368318402099, 86.2038576498559, 89.14911522239515, 90.34149293193902]",5.0,True,6.4,2.9664793948382653,2.0002100467681885,0.7926342072409488
0,,sub_114,2024-07-18 13:52:02,3,distance,cathedral,numerosity_judgement,2,28,4,countries_forward,"['_Congo_', '_Belgium_', '_Togo_', '_Sudan_']","['f', 'f', 'f', 'm']","['p284', 'p268', 'p248', 'p229']","[1, 9, 2, 0]","[86.2038576498559, 92.00610777531934, 87.57049330475357, 84.40078082039426]",3.0,False,5.0,4.08248290463863,2.3127431869506836,0.9612075814323006
0,,sub_114,2024-07-18 13:52:05,3,distance,cathedral,numerosity_judgement,2,29,3,countries_forward,"['_Togo_', '_Yemen_', '_Peru_']","['f', 'm', 'f']","['p268', 'p256', 'p248']","[8, 5, 4]","[92.0152836843556, 90.34149293193902, 89.31368318402099]",2.0,False,7.666666666666667,2.0816659994661326,1.4960615634918213,0.6352400408580184
0,,sub_114,2024-07-18 13:52:09,3,distance,cathedral,numerosity_judgement,2,30,6,countries_forward,"['_Belgium_', '_Congo_', '_Tonga_', '_Peru_', '_Cuba_', '_Oman_']","['f', 'm', 'f', 'f', 'f', 'm']","['p284', 'p229', 'p268', 'p248', 'p245', 'p318']","[10, 2, 1, 0, 9, 8]","[93.00003341222717, 87.57049330475357, 86.2038576498559, 84.40078082039426, 92.00610777531934, 92.0152836843556]",2.0,False,7.0,4.47213595499958,1.6840593814849854,0.9276359096583816
0,,sub_114,2024-07-18 13:52:12,3,distance,cathedral,numerosity_judgement,2,31,4,countries_forward,"['_Mali_', '_Sudan_', '_Japan_', '_Belgium_']","['f', 'm', 'm', 'f']","['p245', 'p229', 'p307', 'p248']","[8, 3, 5, 10]","[92.0152836843556, 89.14911522239515, 90.34149293193902, 93.00003341222717]",3.0,False,8.5,3.1091263510296048,1.8126912117004395,0.9105890364317332
0,,sub_114,2024-07-18 13:52:16,3,distance,cathedral,numerosity_judgement,2,32,5,countries_forward,"['_Yemen_', '_Belgium_', '_Britain_', '_Oman_', '_Tonga_']","['m', 'm', 'm', 'f', 'f']","['p229', 'p256', 'p307', 'p245', 'p248']","[5, 9, 3, 10, 2]","[90.34149293193902, 92.00610777531934, 89.14911522239515, 93.00003341222717, 87.57049330475357]",2.0,False,7.8,3.5637059362410923,1.6252169609069824,0.7539893315174214
0,,sub_114,2024-07-18 13:52:20,3,distance,cathedral,numerosity_judgement,2,33,3,countries_forward,"['_Peru_', '_Oman_', '_Yemen_']","['f', 'm', 'm']","['p248', 'p318', 'p256']","[6, 10, 5]","[91.58892582949886, 93.00003341222717, 90.34149293193902]",2.0,False,9.0,2.6457513110645907,2.1744372844696045,0.6773918964930201
0,,sub_114,2024-07-18 13:52:23,3,distance,cathedral,numerosity_judgement,2,34,2,countries_forward,"['_Mali_', '_Oman_']","['m', 'm']","['p307', 'p256']","[5, 7]","[90.34149293193902, 91.73820004985969]",3.0,False,8.0,1.4142135623730951,1.6251704692840576,0.5621949835432981
0,,sub_114,2024-07-18 13:52:27,3,distance,cathedral,numerosity_judgement,2,35,6,countries_forward,"['_Tonga_', '_Oman_', '_Britain_', '_Mali_', '_Syria_', '_Belgium_']","['f', 'm', 'm', 'f', 'f', 'm']","['p248', 'p318', 'p307', 'p245', 'p284', 'p256']","[0, 3, 8, 4, 10, 1]","[84.40078082039426, 89.14911522239515, 92.0152836843556, 89.31368318402099, 93.00003341222717, 86.2038576498559]",4.0,False,6.333333333333333,3.9327683210007,1.7501838207244873,0.8798093292475315
0,,sub_114,2024-07-18 13:52:30,3,distance,cathedral,numerosity_judgement,2,36,4,countries_forward,"['_Congo_', '_Oman_', '_Peru_', '_Yemen_']","['m', 'm', 'f', 'f']","['p307', 'p229', 'p284', 'p248']","[3, 10, 2, 6]","[89.14911522239515, 93.00003341222717, 87.57049330475357, 91.58892582949886]",3.0,False,7.25,3.593976442141304,1.6872544288635254,0.672829417773238
0,,sub_114,2024-07-18 13:52:34,3,distance,cathedral,numerosity_judgement,2,37,5,countries_forward,"['_Togo_', '_Peru_', '_Mali_', '_Congo_', '_Oman_']","['f', 'm', 'f', 'm', 'm']","['p245', 'p229', 'p284', 'p318', 'p256']","[1, 3, 4, 9, 10]","[86.2038576498559, 89.14911522239515, 89.31368318402099, 92.00610777531934, 93.00003341222717]",4.0,False,7.4,3.9115214431215892,2.251187801361084,0.8404721371013506
0,,sub_114,2024-07-18 13:52:37,3,distance,cathedral,numerosity_judgement,2,38,3,countries_forward,"['_Sudan_', '_Japan_', '_Yemen_']","['m', 'f', 'f']","['p229', 'p268', 'p245']","[0, 3, 7]","[84.40078082039426, 89.14911522239515, 91.73820004985969]",2.0,False,5.333333333333333,3.5118845842842465,1.6251640319824219,0.8424923391215526
0,,sub_114,2024-07-18 13:52:40,3,distance,cathedral,numerosity_judgement,2,39,2,countries_forward,"['_Peru_', '_Yemen_']","['m', 'f']","['p307', 'p245']","[4, 9]","[89.31368318402099, 92.00610777531934]",2.0,True,8.5,3.5355339059327378,1.5507197380065918,0.701384632845307
0,,sub_114,2024-07-18 13:52:44,3,distance,cathedral,numerosity_judgement,2,40,5,countries_forward,"['_Oman_', '_Congo_', '_Cuba_', '_Belgium_', '_Mali_']","['m', 'f', 'm', 'f', 'm']","['p307', 'p245', 'p256', 'p268', 'p318']","[4, 9, 5, 0, 7]","[89.31368318402099, 92.00610777531934, 90.34149293193902, 84.40078082039426, 91.73820004985969]",2.0,False,7.0,3.391164991562634,1.6263089179992676,0.8199977301100897
0,,sub_114,2024-07-18 13:52:48,3,distance,cathedral,numerosity_judgement,2,41,6,countries_forward,"['_Congo_', '_Tonga_', '_Mali_', '_Peru_', '_Cuba_', '_Belgium_']","['f', 'f', 'm', 'm', 'f', 'm']","['p248', 'p245', 'p229', 'p256', 'p284', 'p307']","[10, 3, 8, 6, 7, 4]","[93.00003341222717, 89.14911522239515, 92.0152836843556, 91.58892582949886, 91.73820004985969, 89.31368318402099]",5.0,False,8.333333333333334,2.581988897471611,1.8126912117004395,0.8351492452616048
0,,sub_114,2024-07-18 13:52:51,3,distance,cathedral,numerosity_judgement,2,42,4,countries_forward,"['_Peru_', '_Yemen_', '_Britain_', '_Belgium_']","['f', 'm', 'm', 'f']","['p284', 'p256', 'p318', 'p245']","[1, 5, 9, 8]","[86.2038576498559, 90.34149293193902, 92.00610777531934, 92.0152836843556]",3.0,False,7.75,3.593976442141304,1.5626640319824219,0.8117012824877994
0,,sub_114,2024-07-18 13:52:54,3,distance,cathedral,numerosity_judgement,2,43,2,countries_forward,"['_Oman_', '_Britain_']","['m', 'm']","['p307', 'p256']","[5, 10]","[90.34149293193902, 93.00003341222717]",2.0,True,9.5,3.5355339059327378,1.247710943222046,0.6204744069912609
0,,sub_114,2024-07-18 13:52:57,3,distance,cathedral,numerosity_judgement,2,44,3,countries_forward,"['_Tonga_', '_Togo_', '_Sudan_']","['m', 'f', 'f']","['p307', 'p248', 'p284']","[3, 2, 7]","[89.14911522239515, 87.57049330475357, 91.73820004985969]",2.0,False,6.0,2.6457513110645907,1.937704086303711,0.9569742367495176
0,,sub_114,2024-07-18 13:53:02,3,distance,cathedral,numerosity_judgement,2,45,4,countries_forward,"['_Cuba_', '_Yemen_', '_Congo_', '_Oman_']","['m', 'f', 'f', 'f']","['p307', 'p268', 'p245', 'p248']","[7, 8, 4, 3]","[91.73820004985969, 92.0152836843556, 89.31368318402099, 89.14911522239515]",3.0,False,7.5,2.3804761428476167,2.4355714321136475,0.629043241402792
0,,sub_114,2024-07-18 13:53:05,3,distance,cathedral,numerosity_judgement,2,46,5,countries_forward,"['_Yemen_', '_Cuba_', '_Tonga_', '_Oman_', '_Peru_']","['f', 'm', 'f', 'f', 'm']","['p284', 'p229', 'p248', 'p245', 'p307']","[7, 3, 5, 6, 2]","[91.73820004985969, 89.14911522239515, 90.34149293193902, 91.58892582949886, 87.57049330475357]",4.0,False,6.6,2.073644135332772,1.6879613399505615,0.6934740665077743
0,,sub_114,2024-07-18 13:53:09,3,distance,cathedral,numerosity_judgement,2,47,3,countries_forward,"['_Peru_', '_Syria_', '_Japan_']","['f', 'm', 'm']","['p245', 'p256', 'p307']","[7, 2, 3]","[91.73820004985969, 87.57049330475357, 89.14911522239515]",3.0,True,6.0,2.6457513110645907,1.8763861656188965,0.8160821700147542
0,,sub_114,2024-07-18 13:53:12,3,distance,cathedral,numerosity_judgement,2,48,6,countries_forward,"['_Yemen_', '_Japan_', '_Oman_', '_Britain_', '_Congo_', '_Mali_']","['f', 'f', 'm', 'f', 'm', 'm']","['p245', 'p268', 'p307', 'p284', 'p229', 'p318']","[4, 6, 0, 7, 3, 5]","[89.31368318402099, 91.58892582949886, 84.40078082039426, 91.73820004985969, 89.14911522239515, 90.34149293193902]",5.0,False,6.166666666666667,2.48327740429189,1.4376516342163086,0.9472137101350584
0,,sub_114,2024-07-18 13:53:15,3,distance,cathedral,numerosity_judgement,2,49,2,countries_forward,"['_Yemen_', '_Peru_']","['m', 'f']","['p256', 'p245']","[7, 5]","[91.73820004985969, 90.34149293193902]",2.0,True,8.0,1.4142135623730951,1.3114640712738037,0.5815457950289411
0,,sub_114,2024-07-18 13:53:18,3,distance,cathedral,numerosity_judgement,2,50,3,countries_forward,"['_Congo_', '_Yemen_', '_Mali_']","['m', 'm', 'f']","['p256', 'p318', 'p248']","[8, 10, 9]","[92.0152836843556, 93.00003341222717, 92.00610777531934]",3.0,True,11.0,1.0,1.6251883506774902,0.7318579048916127
0,,sub_114,2024-07-18 13:53:22,3,distance,cathedral,numerosity_judgement,2,51,4,countries_forward,"['_Yemen_', '_Oman_', '_Congo_', '_Cuba_']","['f', 'f', 'm', 'm']","['p248', 'p284', 'p318', 'p256']","[4, 5, 1, 2]","[89.31368318402099, 90.34149293193902, 86.2038576498559, 87.57049330475357]",3.0,False,5.0,1.8257418583505538,2.0627169609069824,0.8300079446146862
0,,sub_114,2024-07-18 13:53:26,3,distance,cathedral,numerosity_judgement,2,52,6,countries_forward,"['_Yemen_', '_Mali_', '_Belgium_', '_Britain_', '_Oman_', '_Peru_']","['f', 'm', 'm', 'f', 'm', 'f']","['p245', 'p229', 'p256', 'p284', 'p307', 'p248']","[3, 0, 8, 4, 5, 10]","[89.14911522239515, 84.40078082039426, 92.0152836843556, 89.31368318402099, 90.34149293193902, 93.00003341222717]",5.0,False,7.0,3.5777087639996634,1.936903953552246,0.7664623765747361
0,,sub_114,2024-07-18 13:53:29,3,distance,cathedral,numerosity_judgement,2,53,2,countries_forward,"['_Syria_', '_Japan_']","['f', 'f']","['p284', 'p268']","[7, 0]","[91.73820004985969, 84.40078082039426]",2.0,True,5.5,4.949747468305833,1.6253247261047363,0.9674270797866305
0,,sub_114,2024-07-18 13:53:33,3,distance,cathedral,numerosity_judgement,2,54,5,countries_forward,"['_Cuba_', '_Japan_', '_Yemen_', '_Tonga_', '_Syria_']","['f', 'f', 'f', 'm', 'm']","['p245', 'p248', 'p268', 'p229', 'p307']","[7, 9, 6, 4, 10]","[91.73820004985969, 92.00610777531934, 91.58892582949886, 89.31368318402099, 93.00003341222717]",3.0,False,9.2,2.3874672772626644,2.1252243518829346,0.7672341391442515
0,,sub_114,2024-07-18 13:53:37,3,distance,cathedral,numerosity_judgement,2,55,2,countries_forward,"['_Syria_', '_Japan_']","['m', 'f']","['p256', 'p284']","[2, 9]","[87.57049330475357, 92.00610777531934]",2.0,True,7.5,4.949747468305833,2.5627939701080322,0.921109976166156
0,,sub_114,2024-07-18 13:53:41,3,distance,cathedral,numerosity_judgement,2,56,5,countries_forward,"['_Belgium_', '_Japan_', '_Cuba_', '_Yemen_', '_Congo_']","['m', 'f', 'f', 'f', 'm']","['p318', 'p284', 'p245', 'p248', 'p229']","[6, 3, 10, 1, 7]","[91.58892582949886, 89.14911522239515, 93.00003341222717, 86.2038576498559, 91.73820004985969]",3.0,False,7.4,3.5071355833500366,2.0625808238983154,0.8768471229145386
0,,sub_114,2024-07-18 13:53:45,3,distance,cathedral,numerosity_judgement,2,57,6,countries_forward,"['_Tonga_', '_Yemen_', '_Cuba_', '_Peru_', '_Britain_', '_Mali_']","['m', 'f', 'm', 'f', 'm', 'f']","['p229', 'p268', 'p307', 'p284', 'p318', 'p248']","[2, 3, 4, 7, 6, 8]","[87.57049330475357, 89.14911522239515, 89.31368318402099, 91.73820004985969, 91.58892582949886, 92.0152836843556]",3.0,False,7.0,2.3664319132398464,1.8754191398620605,0.8074792872545682
0,,sub_114,2024-07-18 13:53:49,3,distance,cathedral,numerosity_judgement,2,58,4,countries_forward,"['_Togo_', '_Sudan_', '_Peru_', '_Cuba_']","['f', 'm', 'm', 'f']","['p248', 'p307', 'p229', 'p245']","[4, 3, 1, 5]","[89.31368318402099, 89.14911522239515, 86.2038576498559, 90.34149293193902]",2.0,False,5.25,1.707825127659933,1.8745207786560059,0.7642151855635002
0,,sub_114,2024-07-18 13:53:52,3,distance,cathedral,numerosity_judgement,2,59,3,countries_forward,"['_Peru_', '_Yemen_', '_Oman_']","['m', 'm', 'm']","['p307', 'p256', 'p229']","[3, 1, 10]","[89.14911522239515, 86.2038576498559, 93.00003341222717]",3.0,True,6.666666666666667,4.725815626252608,2.0002095699310303,0.6106230847803882
0,,sub_114,2024-07-18 13:53:57,3,distance,cathedral,numerosity_judgement,2,60,6,countries_forward,"['_Mali_', '_Japan_', '_Tonga_', '_Cuba_', '_Sudan_', '_Peru_']","['m', 'f', 'm', 'f', 'f', 'f']","['p307', 'p248', 'p229', 'p268', 'p284', 'p245']","[0, 3, 4, 9, 5, 6]","[84.40078082039426, 89.14911522239515, 89.31368318402099, 92.00610777531934, 90.34149293193902, 91.58892582949886]",3.0,False,6.5,3.0166206257996713,2.427752733230591,0.9112019067075248
0,,sub_114,2024-07-18 13:54:00,3,distance,cathedral,numerosity_judgement,2,61,5,countries_forward,"['_Japan_', '_Cuba_', '_Tonga_', '_Sudan_', '_Congo_']","['m', 'm', 'f', 'm', 'm']","['p256', 'p307', 'p268', 'p229', 'p318']","[2, 1, 0, 8, 10]","[87.57049330475357, 86.2038576498559, 84.40078082039426, 92.0152836843556, 93.00003341222717]",3.0,False,6.2,4.494441010848846,1.8727171421051025,0.9337759618658495
0,,sub_114,2024-07-18 13:54:04,3,distance,cathedral,numerosity_judgement,2,62,3,countries_forward,"['_Peru_', '_Cuba_', '_Syria_']","['f', 'f', 'm']","['p245', 'p268', 'p307']","[7, 2, 10]","[91.73820004985969, 87.57049330475357, 93.00003341222717]",3.0,True,8.333333333333334,4.041451884327381,1.8758552074432373,0.8579389399614119
0,,sub_114,2024-07-18 13:54:07,3,distance,cathedral,numerosity_judgement,2,63,2,countries_forward,"['_Yemen_', '_Syria_']","['m', 'f']","['p307', 'p248']","[5, 10]","[90.34149293193902, 93.00003341222717]",3.0,False,9.5,3.5355339059327378,2.062718629837036,0.8483373056406764
0,,sub_114,2024-07-18 13:54:11,3,distance,cathedral,numerosity_judgement,2,64,4,countries_forward,"['_Yemen_', '_Sudan_', '_Tonga_', '_Oman_']","['f', 'm', 'f', 'm']","['p284', 'p256', 'p245', 'p229']","[2, 6, 7, 10]","[87.57049330475357, 91.58892582949886, 91.73820004985969, 93.00003341222717]",4.0,True,8.25,3.304037933599835,1.997178554534912,0.7384292361820451
0,,sub_114,2024-07-18 13:54:14,3,distance,cathedral,numerosity_judgement,2,65,2,countries_forward,"['_Oman_', '_Mali_']","['m', 'f']","['p307', 'p248']","[3, 8]","[89.14911522239515, 92.0152836843556]",2.0,True,7.5,3.5355339059327378,1.687671184539795,0.6546249006923164
0,,sub_114,2024-07-18 13:54:18,3,distance,cathedral,numerosity_judgement,2,66,4,countries_forward,"['_Cuba_', '_Togo_', '_Japan_', '_Tonga_']","['f', 'm', 'f', 'm']","['p268', 'p229', 'p248', 'p256']","[6, 7, 3, 1]","[91.58892582949886, 91.73820004985969, 89.14911522239515, 86.2038576498559]",3.0,False,6.25,2.753785273643051,2.125225067138672,0.7870843264101691
0,,sub_114,2024-07-18 13:54:22,3,distance,cathedral,numerosity_judgement,2,67,5,countries_forward,"['_Mali_', '_Japan_', '_Cuba_', '_Yemen_', '_Belgium_']","['m', 'm', 'f', 'f', 'f']","['p318', 'p256', 'p245', 'p268', 'p248']","[8, 4, 0, 3, 6]","[92.0152836843556, 89.31368318402099, 84.40078082039426, 89.14911522239515, 91.58892582949886]",4.0,False,6.2,3.03315017762062,2.187730550765991,0.9098399727613212
0,,sub_114,2024-07-18 13:54:27,3,distance,cathedral,numerosity_judgement,2,68,6,countries_forward,"['_Cuba_', '_Sudan_', '_Yemen_', '_Tonga_', '_Peru_', '_Congo_']","['m', 'f', 'm', 'm', 'f', 'f']","['p229', 'p248', 'p318', 'p256', 'p245', 'p284']","[5, 6, 4, 2, 3, 9]","[90.34149293193902, 91.58892582949886, 89.31368318402099, 87.57049330475357, 89.14911522239515, 92.00610777531934]",3.0,False,6.833333333333333,2.48327740429189,2.1877903938293457,0.8752922483259562
0,,sub_114,2024-07-18 13:54:30,3,distance,cathedral,numerosity_judgement,2,69,3,countries_forward,"['_Mali_', '_Oman_', '_Cuba_']","['m', 'm', 'f']","['p307', 'p256', 'p248']","[7, 3, 6]","[91.73820004985969, 89.14911522239515, 91.58892582949886]",2.0,False,7.333333333333333,2.0816659994661326,1.75093674659729,0.7359323572806719
0,,sub_114,2024-07-18 13:54:34,3,distance,cathedral,numerosity_judgement,2,70,4,countries_forward,"['_Sudan_', '_Belgium_', '_Tonga_', '_Togo_']","['f', 'm', 'f', 'f']","['p245', 'p318', 'p268', 'p284']","[9, 1, 7, 5]","[92.00610777531934, 86.2038576498559, 91.73820004985969, 90.34149293193902]",4.0,True,7.5,3.415650255319866,2.0626420974731445,0.939745772330042
0,,sub_114,2024-07-18 13:54:37,3,distance,cathedral,numerosity_judgement,2,71,6,countries_forward,"['_Peru_', '_Britain_', '_Tonga_', '_Sudan_', '_Syria_', '_Congo_']","['f', 'f', 'm', 'm', 'f', 'f']","['p248', 'p268', 'p318', 'p229', 'p284', 'p245']","[1, 5, 9, 10, 2, 7]","[86.2038576498559, 90.34149293193902, 92.00610777531934, 93.00003341222717, 87.57049330475357, 91.73820004985969]",5.0,False,7.666666666666667,3.669695718539436,1.4376509189605713,0.969050051072523
0,,sub_114,2024-07-18 13:54:41,3,distance,cathedral,numerosity_judgement,2,72,5,countries_forward,"['_Yemen_', '_Peru_', '_Congo_', '_Togo_', '_Oman_']","['m', 'f', 'f', 'm', 'm']","['p307', 'p284', 'p268', 'p229', 'p256']","[0, 1, 9, 5, 10]","[84.40078082039426, 86.2038576498559, 92.00610777531934, 90.34149293193902, 93.00003341222717]",3.0,False,7.0,4.527692569068709,1.8131015300750732,0.7302235841561684
0,,sub_114,2024-07-18 13:54:44,3,distance,cathedral,numerosity_judgement,2,73,2,countries_forward,"['_Togo_', '_Tonga_']","['m', 'm']","['p256', 'p229']","[0, 9]","[84.40078082039426, 92.00610777531934]",2.0,True,6.5,6.363961030678928,1.311866044998169,0.9281012370900013
0,,sub_114,2024-07-18 13:54:47,3,distance,cathedral,numerosity_judgement,2,74,3,countries_forward,"['_Britain_', '_Cuba_', '_Mali_']","['f', 'm', 'm']","['p248', 'p229', 'p318']","[6, 7, 8]","[91.58892582949886, 91.73820004985969, 92.0152836843556]",3.0,True,9.0,1.0,1.9377038478851318,0.773430938599478
0,,sub_114,2024-07-18 13:56:12,3,distance,cathedral,numerosity_judgement,3,0,4,countries_reversed,"['_Sudan_reversed', '_Britain_reversed', '_Mali_reversed', '_Togo_reversed']","['f', 'm', 'm', 'f']","['p284', 'p229', 'p307', 'p268']","[4, 6, 2, 5]","[89.31368318402099, 91.58892582949886, 87.57049330475357, 90.34149293193902]",4.0,True,6.25,1.707825127659933,2.0002102851867676,0.9326069685620249
0,,sub_114,2024-07-18 13:56:15,3,distance,cathedral,numerosity_judgement,3,1,6,countries_reversed,"['_Mali_reversed', '_Tonga_reversed', '_Yemen_reversed', '_Sudan_reversed', '_Peru_reversed', '_Japan_reversed']","['f', 'm', 'f', 'm', 'f', 'm']","['p245', 'p229', 'p248', 'p318', 'p284', 'p307']","[10, 8, 0, 7, 1, 3]","[93.00003341222717, 92.0152836843556, 84.40078082039426, 91.73820004985969, 86.2038576498559, 89.14911522239515]",5.0,False,6.833333333333333,4.070217029430577,1.562469244003296,0.8808875269549427
0,,sub_114,2024-07-18 13:56:17,3,distance,cathedral,numerosity_judgement,3,2,5,countries_reversed,"['_Tonga_reversed', '_Peru_reversed', '_Oman_reversed', '_Britain_reversed', '_Yemen_reversed']","['f', 'f', 'm', 'm', 'f']","['p268', 'p245', 'p307', 'p229', 'p248']","[4, 5, 7, 1, 3]","[89.31368318402099, 90.34149293193902, 91.73820004985969, 86.2038576498559, 89.14911522239515]",4.0,False,6.0,2.23606797749979,1.312638521194458,0.697979797979798
0,,sub_114,2024-07-18 13:56:20,3,distance,cathedral,numerosity_judgement,3,3,2,countries_reversed,"['_Japan_reversed', '_Congo_reversed']","['f', 'm']","['p248', 'p229']","[8, 5]","[92.0152836843556, 90.34149293193902]",2.0,True,8.5,2.1213203435596424,1.299217700958252,0.8326296674611281
0,,sub_114,2024-07-18 13:56:23,3,distance,cathedral,numerosity_judgement,3,4,3,countries_reversed,"['_Oman_reversed', '_Peru_reversed', '_Cuba_reversed']","['f', 'f', 'm']","['p284', 'p248', 'p307']","[6, 10, 7]","[91.58892582949886, 93.00003341222717, 91.73820004985969]",3.0,True,9.666666666666666,2.0816659994661326,1.4376513957977295,0.6376234252638747
0,,sub_114,2024-07-18 13:56:26,3,distance,cathedral,numerosity_judgement,3,5,4,countries_reversed,"['_Japan_reversed', '_Togo_reversed', '_Oman_reversed', '_Sudan_reversed']","['f', 'm', 'f', 'm']","['p268', 'p256', 'p245', 'p307']","[3, 5, 9, 6]","[89.14911522239515, 90.34149293193902, 92.00610777531934, 91.58892582949886]",3.0,False,7.75,2.5,1.5657570362091064,0.8605493133583021
0,,sub_114,2024-07-18 13:56:29,3,distance,cathedral,numerosity_judgement,3,6,6,countries_reversed,"['_Japan_reversed', '_Congo_reversed', '_Cuba_reversed', '_Oman_reversed', '_Yemen_reversed', '_Belgium_reversed']","['m', 'f', 'f', 'm', 'm', 'm']","['p256', 'p268', 'p245', 'p307', 'p229', 'p318']","[5, 4, 7, 3, 9, 10]","[90.34149293193902, 89.31368318402099, 91.73820004985969, 89.14911522239515, 92.00610777531934, 93.00003341222717]",3.0,False,8.333333333333334,2.804757862395017,1.6876776218414307,0.7106117353308364
0,,sub_114,2024-07-18 13:56:31,3,distance,cathedral,numerosity_judgement,3,7,5,countries_reversed,"['_Sudan_reversed', '_Yemen_reversed', '_Cuba_reversed', '_Togo_reversed', '_Tonga_reversed']","['f', 'f', 'm', 'm', 'f']","['p248', 'p268', 'p307', 'p318', 'p284']","[6, 0, 7, 9, 8]","[91.58892582949886, 84.40078082039426, 91.73820004985969, 92.00610777531934, 92.0152836843556]",4.0,False,8.0,3.5355339059327378,1.4376518726348877,0.7628986494155033
0,,sub_114,2024-07-18 13:56:34,3,distance,cathedral,numerosity_judgement,3,8,3,countries_reversed,"['_Cuba_reversed', '_Britain_reversed', '_Syria_reversed']","['f', 'f', 'm']","['p268', 'p284', 'p256']","[2, 4, 8]","[87.57049330475357, 89.31368318402099, 92.0152836843556]",5.0,False,6.666666666666667,3.0550504633038935,1.8110828399658203,0.8877652933832709
0,,sub_114,2024-07-18 13:56:37,3,distance,cathedral,numerosity_judgement,3,9,2,countries_reversed,"['_Syria_reversed', '_Congo_reversed']","['m', 'm']","['p256', 'p318']","[4, 7]","[89.31368318402099, 91.73820004985969]",5.0,False,7.5,2.1213203435596424,1.562647819519043,0.9409261150834184
0,,sub_114,2024-07-18 13:56:41,3,distance,cathedral,numerosity_judgement,3,10,3,countries_reversed,"['_Cuba_reversed', '_Tonga_reversed', '_Oman_reversed']","['m', 'f', 'f']","['p307', 'p284', 'p245']","[7, 9, 5]","[91.73820004985969, 92.00610777531934, 90.34149293193902]",4.0,False,9.0,2.0,2.3760414123535156,0.5873453637498581
0,,sub_114,2024-07-18 13:56:44,3,distance,cathedral,numerosity_judgement,3,11,5,countries_reversed,"['_Japan_reversed', '_Tonga_reversed', '_Belgium_reversed', '_Oman_reversed', '_Yemen_reversed']","['f', 'm', 'f', 'f', 'f']","['p284', 'p256', 'p268', 'p245', 'p248']","[6, 9, 5, 1, 8]","[91.58892582949886, 92.00610777531934, 90.34149293193902, 86.2038576498559, 92.0152836843556]",3.0,False,7.8,3.1144823004794877,1.9995315074920654,0.7967994552264215
0,,sub_114,2024-07-18 13:56:49,3,distance,cathedral,numerosity_judgement,3,12,4,countries_reversed,"['_Oman_reversed', '_Yemen_reversed', '_Britain_reversed', '_Mali_reversed']","['m', 'm', 'm', 'm']","['p229', 'p318', 'p307', 'p256']","[5, 7, 9, 6]","[90.34149293193902, 91.73820004985969, 92.00610777531934, 91.58892582949886]",3.0,False,8.75,1.707825127659933,3.125328302383423,0.6135966405629327
0,,sub_114,2024-07-18 13:56:51,3,distance,cathedral,numerosity_judgement,3,13,2,countries_reversed,"['_Cuba_reversed', '_Togo_reversed']","['m', 'm']","['p229', 'p318']","[10, 7]","[93.00003341222717, 91.73820004985969]",2.0,True,10.5,2.1213203435596424,1.3126375675201416,0.808421291567359
0,,sub_114,2024-07-18 13:56:54,3,distance,cathedral,numerosity_judgement,3,14,6,countries_reversed,"['_Belgium_reversed', '_Sudan_reversed', '_Peru_reversed', '_Togo_reversed', '_Syria_reversed', '_Oman_reversed']","['m', 'f', 'f', 'm', 'f', 'm']","['p307', 'p245', 'p248', 'p256', 'p284', 'p318']","[8, 4, 5, 1, 3, 6]","[92.0152836843556, 89.31368318402099, 90.34149293193902, 86.2038576498559, 89.14911522239515, 91.58892582949886]",3.0,False,6.5,2.4289915602982237,1.3746404647827148,0.9431619566451028
0,,sub_114,2024-07-18 13:56:57,3,distance,cathedral,numerosity_judgement,3,15,3,countries_reversed,"['_Belgium_reversed', '_Tonga_reversed', '_Togo_reversed']","['f', 'm', 'f']","['p268', 'p318', 'p284']","[4, 3, 1]","[89.31368318402099, 89.14911522239515, 86.2038576498559]",3.0,True,4.666666666666667,1.5275252316519465,1.562664270401001,0.9201112246056068
0,,sub_114,2024-07-18 13:57:00,3,distance,cathedral,numerosity_judgement,3,16,2,countries_reversed,"['_Oman_reversed', '_Yemen_reversed']","['f', 'm']","['p248', 'p229']","[3, 6]","[89.14911522239515, 91.58892582949886]",3.0,False,6.5,2.1213203435596424,1.5572841167449951,0.5836681420951084
0,,sub_114,2024-07-18 13:57:04,3,distance,cathedral,numerosity_judgement,3,17,5,countries_reversed,"['_Belgium_reversed', '_Cuba_reversed', '_Congo_reversed', '_Oman_reversed', '_Britain_reversed']","['f', 'm', 'f', 'f', 'm']","['p268', 'p307', 'p248', 'p245', 'p229']","[9, 7, 4, 6, 10]","[92.00610777531934, 91.73820004985969, 89.31368318402099, 91.58892582949886, 93.00003341222717]",4.0,False,9.2,2.3874672772626644,2.6877832412719727,0.6419362160935195
0,,sub_114,2024-07-18 13:57:07,3,distance,cathedral,numerosity_judgement,3,18,4,countries_reversed,"['_Peru_reversed', '_Tonga_reversed', '_Yemen_reversed', '_Oman_reversed']","['m', 'f', 'm', 'm']","['p229', 'p248', 'p307', 'p256']","[6, 3, 4, 7]","[91.58892582949886, 89.14911522239515, 89.31368318402099, 91.73820004985969]",4.0,True,7.0,1.8257418583505538,1.7501850128173828,0.7078311201906707
0,,sub_114,2024-07-18 13:57:10,3,distance,cathedral,numerosity_judgement,3,19,6,countries_reversed,"['_Congo_reversed', '_Britain_reversed', '_Syria_reversed', '_Peru_reversed', '_Cuba_reversed', '_Oman_reversed']","['m', 'm', 'f', 'm', 'm', 'f']","['p318', 'p229', 'p268', 'p307', 'p256', 'p284']","[4, 10, 6, 8, 9, 0]","[89.31368318402099, 93.00003341222717, 91.58892582949886, 92.0152836843556, 92.00610777531934, 84.40078082039426]",4.0,False,8.166666666666666,3.7103458958251676,1.7517054080963135,0.8935535126546362
0,,sub_114,2024-07-18 13:57:13,3,distance,cathedral,numerosity_judgement,3,20,5,countries_reversed,"['_Yemen_reversed', '_Belgium_reversed', '_Sudan_reversed', '_Japan_reversed', '_Congo_reversed']","['f', 'm', 'f', 'm', 'm']","['p268', 'p256', 'p248', 'p229', 'p307']","[6, 4, 0, 3, 7]","[91.58892582949886, 89.31368318402099, 84.40078082039426, 89.14911522239515, 91.73820004985969]",5.0,True,6.0,2.7386127875258306,1.7501842975616455,0.7163999546022017
0,,sub_114,2024-07-18 13:57:16,3,distance,cathedral,numerosity_judgement,3,21,6,countries_reversed,"['_Togo_reversed', '_Japan_reversed', '_Mali_reversed', '_Cuba_reversed', '_Tonga_reversed', '_Britain_reversed']","['f', 'm', 'm', 'f', 'm', 'f']","['p248', 'p229', 'p318', 'p245', 'p256', 'p284']","[8, 5, 4, 10, 2, 6]","[92.0152836843556, 90.34149293193902, 89.31368318402099, 93.00003341222717, 87.57049330475357, 91.58892582949886]",5.0,False,7.833333333333333,2.857738033247041,1.8122327327728271,0.912836227442969
0,,sub_114,2024-07-18 13:57:19,3,distance,cathedral,numerosity_judgement,3,22,2,countries_reversed,"['_Britain_reversed', '_Cuba_reversed']","['f', 'f']","['p268', 'p245']","[1, 5]","[86.2038576498559, 90.34149293193902]",3.0,False,5.0,2.8284271247461903,1.5626637935638428,0.7099875156054931
0,,sub_114,2024-07-18 13:57:22,3,distance,cathedral,numerosity_judgement,3,23,4,countries_reversed,"['_Japan_reversed', '_Belgium_reversed', '_Oman_reversed', '_Sudan_reversed']","['m', 'm', 'm', 'm']","['p307', 'p318', 'p229', 'p256']","[0, 7, 5, 2]","[84.40078082039426, 91.73820004985969, 90.34149293193902, 87.57049330475357]",3.0,False,5.5,3.1091263510296048,1.8126907348632812,0.8391215526046987
0,,sub_114,2024-07-18 13:57:25,3,distance,cathedral,numerosity_judgement,3,24,3,countries_reversed,"['_Britain_reversed', '_Belgium_reversed', '_Japan_reversed']","['f', 'm', 'f']","['p268', 'p256', 'p284']","[0, 1, 7]","[84.40078082039426, 86.2038576498559, 91.73820004985969]",5.0,False,4.666666666666667,3.7859388972001824,1.6198217868804932,0.9600499375780276
0,,sub_114,2024-07-18 13:57:28,3,distance,cathedral,numerosity_judgement,3,25,2,countries_reversed,"['_Oman_reversed', '_Yemen_reversed']","['m', 'm']","['p307', 'p256']","[7, 2]","[91.73820004985969, 87.57049330475357]",3.0,False,6.5,3.5355339059327378,1.6876769065856934,0.648655090228124
0,,sub_114,2024-07-18 13:57:31,3,distance,cathedral,numerosity_judgement,3,26,5,countries_reversed,"['_Yemen_reversed', '_Togo_reversed', '_Peru_reversed', '_Oman_reversed', '_Britain_reversed']","['f', 'f', 'f', 'm', 'm']","['p284', 'p268', 'p245', 'p307', 'p256']","[7, 8, 1, 5, 2]","[91.73820004985969, 92.0152836843556, 86.2038576498559, 90.34149293193902, 87.57049330475357]",3.0,False,6.6,3.0495901363953815,2.3775010108947754,0.7349336057201226
0,,sub_114,2024-07-18 13:57:34,3,distance,cathedral,numerosity_judgement,3,27,6,countries_reversed,"['_Yemen_reversed', '_Congo_reversed', '_Oman_reversed', '_Tonga_reversed', '_Peru_reversed', '_Togo_reversed']","['f', 'f', 'm', 'm', 'f', 'm']","['p268', 'p248', 'p256', 'p318', 'p245', 'p307']","[10, 2, 4, 3, 5, 7]","[93.00003341222717, 87.57049330475357, 89.31368318402099, 89.14911522239515, 90.34149293193902, 91.73820004985969]",4.0,False,7.166666666666667,2.9268868558020253,1.5621867179870605,0.6845647486096924
0,,sub_114,2024-07-18 13:57:37,3,distance,cathedral,numerosity_judgement,3,28,3,countries_reversed,"['_Sudan_reversed', '_Syria_reversed', '_Peru_reversed']","['f', 'f', 'f']","['p245', 'p268', 'p248']","[7, 5, 4]","[91.73820004985969, 90.34149293193902, 89.31368318402099]",4.0,False,7.333333333333333,1.5275252316519465,1.8126907348632812,0.911043014413801
0,,sub_114,2024-07-18 13:57:41,3,distance,cathedral,numerosity_judgement,3,29,4,countries_reversed,"['_Britain_reversed', '_Japan_reversed', '_Yemen_reversed', '_Congo_reversed']","['f', 'f', 'f', 'm']","['p284', 'p245', 'p248', 'p318']","[3, 4, 5, 10]","[89.14911522239515, 89.31368318402099, 90.34149293193902, 93.00003341222717]",4.0,True,7.5,3.1091263510296048,2.626490592956543,0.8011008966065146
0,,sub_114,2024-07-18 13:57:44,3,distance,cathedral,numerosity_judgement,3,30,2,countries_reversed,"['_Oman_reversed', '_Yemen_reversed']","['m', 'f']","['p256', 'p245']","[3, 5]","[89.14911522239515, 90.34149293193902]",3.0,False,6.0,1.4142135623730951,1.8126943111419678,0.5576552037226195
0,,sub_114,2024-07-18 13:57:47,3,distance,cathedral,numerosity_judgement,3,31,3,countries_reversed,"['_Tonga_reversed', '_Togo_reversed', '_Mali_reversed']","['m', 'f', 'm']","['p256', 'p284', 'p307']","[5, 8, 0]","[90.34149293193902, 92.0152836843556, 84.40078082039426]",3.0,True,6.333333333333333,4.041451884327381,1.6251447200775146,0.8078197707411191
0,,sub_114,2024-07-18 13:57:50,3,distance,cathedral,numerosity_judgement,3,32,5,countries_reversed,"['_Togo_reversed', '_Peru_reversed', '_Yemen_reversed', '_Oman_reversed', '_Congo_reversed']","['f', 'f', 'm', 'm', 'f']","['p248', 'p245', 'p318', 'p229', 'p268']","[4, 7, 5, 8, 6]","[89.31368318402099, 91.73820004985969, 90.34149293193902, 92.0152836843556, 91.58892582949886]",5.0,True,8.0,1.5811388300841898,1.6265687942504883,0.6672341391442516
0,,sub_114,2024-07-18 13:57:53,3,distance,cathedral,numerosity_judgement,3,33,4,countries_reversed,"['_Syria_reversed', '_Mali_reversed', '_Britain_reversed', '_Tonga_reversed']","['m', 'm', 'f', 'm']","['p307', 'p229', 'p284', 'p256']","[0, 10, 3, 6]","[84.40078082039426, 93.00003341222717, 89.14911522239515, 91.58892582949886]",6.0,False,6.75,4.272001872658765,1.4376521110534668,0.9090909090909092
0,,sub_114,2024-07-18 13:57:55,3,distance,cathedral,numerosity_judgement,3,34,6,countries_reversed,"['_Congo_reversed', '_Togo_reversed', '_Oman_reversed', '_Syria_reversed', '_Peru_reversed', '_Cuba_reversed']","['m', 'f', 'm', 'f', 'm', 'm']","['p256', 'p268', 'p307', 'p245', 'p229', 'p318']","[0, 3, 7, 8, 2, 4]","[84.40078082039426, 89.14911522239515, 91.73820004985969, 92.0152836843556, 87.57049330475357, 89.31368318402099]",6.0,True,6.0,3.03315017762062,1.2507777214050293,0.8557938939961411
0,,sub_114,2024-07-18 13:57:58,3,distance,cathedral,numerosity_judgement,3,35,4,countries_reversed,"['_Tonga_reversed', '_Cuba_reversed', '_Britain_reversed', '_Belgium_reversed']","['f', 'f', 'm', 'm']","['p284', 'p245', 'p256', 'p318']","[9, 5, 10, 1]","[92.00610777531934, 90.34149293193902, 93.00003341222717, 86.2038576498559]",5.0,False,8.25,4.112987559751022,1.562664270401001,0.6731472023606855
0,,sub_114,2024-07-18 13:58:01,3,distance,cathedral,numerosity_judgement,3,36,6,countries_reversed,"['_Belgium_reversed', '_Yemen_reversed', '_Cuba_reversed', '_Tonga_reversed', '_Peru_reversed', '_Oman_reversed']","['f', 'm', 'm', 'f', 'm', 'm']","['p268', 'p318', 'p229', 'p245', 'p307', 'p256']","[5, 0, 3, 7, 1, 10]","[90.34149293193902, 84.40078082039426, 89.14911522239515, 91.73820004985969, 86.2038576498559, 93.00003341222717]",5.0,False,6.333333333333333,3.777124126457412,1.3752233982086182,0.6814890477811826
0,,sub_114,2024-07-18 13:58:03,3,distance,cathedral,numerosity_judgement,3,37,5,countries_reversed,"['_Belgium_reversed', '_Peru_reversed', '_Togo_reversed', '_Tonga_reversed', '_Syria_reversed']","['f', 'm', 'm', 'f', 'f']","['p245', 'p229', 'p318', 'p268', 'p284']","[1, 5, 2, 9, 3]","[86.2038576498559, 90.34149293193902, 87.57049330475357, 92.00610777531934, 89.14911522239515]",5.0,True,6.0,3.1622776601683795,1.5001585483551025,0.95351265463625
0,,sub_114,2024-07-18 13:58:06,3,distance,cathedral,numerosity_judgement,3,38,2,countries_reversed,"['_Sudan_reversed', '_Oman_reversed']","['f', 'm']","['p284', 'p318']","[10, 8]","[93.00003341222717, 92.0152836843556]",4.0,False,11.0,1.4142135623730951,1.2537877559661865,0.9068664169787766
0,,sub_114,2024-07-18 13:58:09,3,distance,cathedral,numerosity_judgement,3,39,3,countries_reversed,"['_Belgium_reversed', '_Oman_reversed', '_Cuba_reversed']","['m', 'm', 'f']","['p256', 'p307', 'p268']","[5, 9, 3]","[90.34149293193902, 92.00610777531934, 89.14911522239515]",3.0,True,7.666666666666667,3.0550504633038935,1.5626640319824219,0.6725116331857904
0,,sub_114,2024-07-18 13:58:12,3,distance,cathedral,numerosity_judgement,3,40,2,countries_reversed,"['_Cuba_reversed', '_Yemen_reversed']","['f', 'm']","['p268', 'p307']","[3, 5]","[89.14911522239515, 90.34149293193902]",2.0,True,6.0,1.4142135623730951,2.1252236366271973,0.6334241289297469
0,,sub_114,2024-07-18 13:58:16,3,distance,cathedral,numerosity_judgement,3,41,6,countries_reversed,"['_Oman_reversed', '_Japan_reversed', '_Sudan_reversed', '_Tonga_reversed', '_Cuba_reversed', '_Togo_reversed']","['f', 'f', 'f', 'm', 'm', 'm']","['p284', 'p245', 'p268', 'p229', 'p318', 'p256']","[10, 1, 5, 4, 0, 2]","[93.00003341222717, 86.2038576498559, 90.34149293193902, 89.31368318402099, 84.40078082039426, 87.57049330475357]",4.0,False,5.666666666666667,3.6147844564602556,2.5628488063812256,0.9595959595959596
0,,sub_114,2024-07-18 13:58:19,3,distance,cathedral,numerosity_judgement,3,42,3,countries_reversed,"['_Peru_reversed', '_Belgium_reversed', '_Oman_reversed']","['m', 'm', 'f']","['p307', 'p256', 'p245']","[6, 2, 7]","[91.58892582949886, 87.57049330475357, 91.73820004985969]",4.0,False,7.0,2.6457513110645907,2.1863417625427246,0.6852797639314493
0,,sub_114,2024-07-18 13:58:23,3,distance,cathedral,numerosity_judgement,3,43,4,countries_reversed,"['_Togo_reversed', '_Sudan_reversed', '_Tonga_reversed', '_Congo_reversed']","['m', 'f', 'f', 'm']","['p318', 'p284', 'p268', 'p307']","[3, 9, 8, 4]","[89.14911522239515, 92.00610777531934, 92.0152836843556, 89.31368318402099]",4.0,True,8.0,2.943920288775949,2.687716245651245,0.9611281352854386
0,,sub_114,2024-07-18 13:58:27,3,distance,cathedral,numerosity_judgement,3,44,5,countries_reversed,"['_Congo_reversed', '_Sudan_reversed', '_Belgium_reversed', '_Yemen_reversed', '_Cuba_reversed']","['f', 'm', 'f', 'f', 'f']","['p268', 'p307', 'p284', 'p245', 'p248']","[3, 1, 5, 0, 10]","[89.14911522239515, 86.2038576498559, 90.34149293193902, 84.40078082039426, 93.00003341222717]",5.0,True,5.8,3.96232255123179,1.7501130104064941,0.813698785608898
0,,sub_114,2024-07-18 13:58:30,3,distance,cathedral,numerosity_judgement,3,45,2,countries_reversed,"['_Mali_reversed', '_Sudan_reversed']","['f', 'f']","['p284', 'p268']","[10, 6]","[93.00003341222717, 91.58892582949886]",2.0,True,10.0,2.8284271247461903,1.8740594387054443,0.967778912722733
0,,sub_114,2024-07-18 13:58:34,3,distance,cathedral,numerosity_judgement,3,46,5,countries_reversed,"['_Cuba_reversed', '_Britain_reversed', '_Sudan_reversed', '_Mali_reversed', '_Tonga_reversed']","['f', 'f', 'f', 'm', 'm']","['p248', 'p284', 'p245', 'p307', 'p318']","[8, 1, 3, 4, 0]","[92.0152836843556, 86.2038576498559, 89.14911522239515, 89.31368318402099, 84.40078082039426]",2.0,False,5.2,3.1144823004794877,3.501732110977173,0.8299511973669277
0,,sub_114,2024-07-18 13:58:38,3,distance,cathedral,numerosity_judgement,3,47,3,countries_reversed,"['_Tonga_reversed', '_Mali_reversed', '_Britain_reversed']","['f', 'm', 'f']","['p248', 'p307', 'p268']","[4, 10, 7]","[89.31368318402099, 93.00003341222717, 91.73820004985969]",3.0,True,9.0,3.0,2.0002105236053467,0.7844739530132788
0,,sub_114,2024-07-18 13:58:41,3,distance,cathedral,numerosity_judgement,3,48,6,countries_reversed,"['_Tonga_reversed', '_Yemen_reversed', '_Britain_reversed', '_Oman_reversed', '_Congo_reversed', '_Mali_reversed']","['m', 'f', 'm', 'm', 'f', 'f']","['p256', 'p284', 'p318', 'p229', 'p268', 'p245']","[5, 2, 3, 4, 10, 9]","[90.34149293193902, 87.57049330475357, 89.14911522239515, 89.31368318402099, 93.00003341222717, 92.00610777531934]",4.0,False,7.5,3.271085446759225,2.1277647018432617,0.7645443196004994
0,,sub_114,2024-07-18 13:58:45,3,distance,cathedral,numerosity_judgement,3,49,4,countries_reversed,"['_Peru_reversed', '_Yemen_reversed', '_Britain_reversed', '_Congo_reversed']","['m', 'm', 'f', 'm']","['p307', 'p229', 'p245', 'p256']","[3, 6, 8, 2]","[89.14911522239515, 91.58892582949886, 92.0152836843556, 87.57049330475357]",5.0,False,6.75,2.753785273643051,2.1263017654418945,0.6608330495970945
0,,sub_114,2024-07-18 13:58:47,3,distance,cathedral,numerosity_judgement,3,50,2,countries_reversed,"['_Cuba_reversed', '_Syria_reversed']","['f', 'm']","['p268', 'p229']","[3, 6]","[89.14911522239515, 91.58892582949886]",2.0,True,6.5,2.1213203435596424,1.5001575946807861,0.7668369084099421
0,,sub_114,2024-07-18 13:58:50,3,distance,cathedral,numerosity_judgement,3,51,4,countries_reversed,"['_Togo_reversed', '_Peru_reversed', '_Japan_reversed', '_Mali_reversed']","['m', 'm', 'f', 'm']","['p256', 'p318', 'p248', 'p307']","[9, 8, 3, 6]","[92.00610777531934, 92.0152836843556, 89.14911522239515, 91.58892582949886]",3.0,False,8.5,2.6457513110645907,1.814089298248291,0.7531721711496993
0,,sub_114,2024-07-18 13:58:54,3,distance,cathedral,numerosity_judgement,3,52,3,countries_reversed,"['_Japan_reversed', '_Sudan_reversed', '_Oman_reversed']","['m', 'm', 'f']","['p256', 'p318', 'p268']","[7, 4, 0]","[91.73820004985969, 89.31368318402099, 84.40078082039426]",4.0,False,5.666666666666667,3.5118845842842465,2.1252214908599854,0.8326183180115765
0,,sub_114,2024-07-18 13:58:57,3,distance,cathedral,numerosity_judgement,3,53,5,countries_reversed,"['_Syria_reversed', '_Togo_reversed', '_Sudan_reversed', '_Peru_reversed', '_Congo_reversed']","['m', 'm', 'm', 'm', 'f']","['p307', 'p318', 'p229', 'p256', 'p284']","[5, 4, 1, 9, 10]","[90.34149293193902, 89.31368318402099, 86.2038576498559, 92.00610777531934, 93.00003341222717]",4.0,False,7.8,3.7013511046643495,1.937697172164917,0.9409488139825218
0,,sub_114,2024-07-18 13:59:00,3,distance,cathedral,numerosity_judgement,3,54,6,countries_reversed,"['_Belgium_reversed', '_Sudan_reversed', '_Tonga_reversed', '_Togo_reversed', '_Syria_reversed', '_Britain_reversed']","['m', 'm', 'm', 'f', 'f', 'f']","['p318', 'p256', 'p307', 'p245', 'p284', 'p268']","[4, 8, 6, 7, 3, 5]","[89.31368318402099, 92.0152836843556, 91.58892582949886, 91.73820004985969, 89.14911522239515, 90.34149293193902]",3.0,False,7.5,1.8708286933869707,1.876784086227417,0.8421972534332085
0,,sub_114,2024-07-18 13:59:05,3,distance,cathedral,numerosity_judgement,3,55,5,countries_reversed,"['_Japan_reversed', '_Syria_reversed', '_Britain_reversed', '_Yemen_reversed', '_Cuba_reversed']","['m', 'm', 'm', 'f', 'f']","['p256', 'p229', 'p307', 'p245', 'p248']","[9, 8, 1, 6, 10]","[92.00610777531934, 92.0152836843556, 86.2038576498559, 91.58892582949886, 93.00003341222717]",4.0,False,8.8,3.5637059362410923,3.0620861053466797,0.8473272046305754
0,,sub_114,2024-07-18 13:59:08,3,distance,cathedral,numerosity_judgement,3,56,4,countries_reversed,"['_Britain_reversed', '_Peru_reversed', '_Cuba_reversed', '_Yemen_reversed']","['f', 'm', 'm', 'f']","['p268', 'p229', 'p307', 'p284']","[5, 6, 8, 3]","[90.34149293193902, 91.58892582949886, 92.0152836843556, 89.14911522239515]",4.0,True,7.5,2.0816659994661326,1.93770432472229,0.8058563159686756
0,,sub_114,2024-07-18 13:59:11,3,distance,cathedral,numerosity_judgement,3,57,2,countries_reversed,"['_Oman_reversed', '_Cuba_reversed']","['m', 'f']","['p256', 'p248']","[0, 2]","[84.40078082039426, 87.57049330475357]",2.0,True,3.0,1.4142135623730951,1.8135972023010254,0.854681647940075
0,,sub_114,2024-07-18 13:59:14,3,distance,cathedral,numerosity_judgement,3,58,6,countries_reversed,"['_Congo_reversed', '_Peru_reversed', '_Tonga_reversed', '_Cuba_reversed', '_Oman_reversed', '_Britain_reversed']","['f', 'f', 'm', 'm', 'm', 'f']","['p284', 'p268', 'p256', 'p307', 'p318', 'p245']","[6, 10, 4, 7, 8, 0]","[91.58892582949886, 93.00003341222717, 89.31368318402099, 91.73820004985969, 92.0152836843556, 84.40078082039426]",4.0,False,7.833333333333333,3.488074922742725,1.8751988410949707,0.7310066961752355
0,,sub_114,2024-07-18 13:59:17,3,distance,cathedral,numerosity_judgement,3,59,3,countries_reversed,"['_Belgium_reversed', '_Mali_reversed', '_Britain_reversed']","['m', 'm', 'm']","['p229', 'p307', 'p256']","[7, 1, 8]","[91.73820004985969, 86.2038576498559, 92.0152836843556]",3.0,True,7.333333333333333,3.7859388972001824,1.8127155303955078,0.7335262739757121
0,,sub_114,2024-07-18 13:59:21,3,distance,cathedral,numerosity_judgement,3,60,6,countries_reversed,"['_Peru_reversed', '_Belgium_reversed', '_Sudan_reversed', '_Syria_reversed', '_Oman_reversed', '_Yemen_reversed']","['f', 'f', 'm', 'f', 'm', 'm']","['p245', 'p248', 'p318', 'p284', 'p229', 'p256']","[8, 7, 5, 10, 9, 4]","[92.0152836843556, 91.73820004985969, 90.34149293193902, 93.00003341222717, 92.00610777531934, 89.31368318402099]",4.0,False,9.166666666666666,2.3166067138525404,2.2513058185577393,0.8001588922937237
0,,sub_114,2024-07-18 13:59:23,3,distance,cathedral,numerosity_judgement,3,61,5,countries_reversed,"['_Britain_reversed', '_Congo_reversed', '_Togo_reversed', '_Sudan_reversed', '_Belgium_reversed']","['m', 'm', 'f', 'm', 'f']","['p256', 'p229', 'p268', 'p318', 'p284']","[9, 6, 10, 8, 3]","[92.00610777531934, 91.58892582949886, 93.00003341222717, 92.0152836843556, 89.14911522239515]",5.0,True,9.2,2.7748873851023217,1.562727689743042,0.9243559187379412
0,,sub_114,2024-07-18 13:59:27,3,distance,cathedral,numerosity_judgement,3,62,4,countries_reversed,"['_Peru_reversed', '_Cuba_reversed', '_Congo_reversed', '_Tonga_reversed']","['f', 'f', 'm', 'm']","['p245', 'p248', 'p318', 'p229']","[10, 6, 7, 2]","[93.00003341222717, 91.58892582949886, 91.73820004985969, 87.57049330475357]",4.0,True,8.25,3.304037933599835,2.061082363128662,0.8904891612756781
0,,sub_114,2024-07-18 13:59:30,3,distance,cathedral,numerosity_judgement,3,63,3,countries_reversed,"['_Cuba_reversed', '_Britain_reversed', '_Yemen_reversed']","['f', 'm', 'f']","['p245', 'p318', 'p268']","[7, 0, 9]","[91.73820004985969, 84.40078082039426, 92.00610777531934]",4.0,False,7.333333333333333,4.725815626252608,2.0013184547424316,0.6158778799228237
0,,sub_114,2024-07-18 13:59:33,3,distance,cathedral,numerosity_judgement,3,64,2,countries_reversed,"['_Peru_reversed', '_Yemen_reversed']","['f', 'm']","['p284', 'p256']","[4, 10]","[89.31368318402099, 93.00003341222717]",2.0,True,9.0,4.242640687119285,1.687683343887329,0.6791397117239814
0,,sub_114,2024-07-18 13:59:36,3,distance,cathedral,numerosity_judgement,3,65,4,countries_reversed,"['_Britain_reversed', '_Togo_reversed', '_Syria_reversed', '_Cuba_reversed']","['f', 'm', 'm', 'f']","['p248', 'p318', 'p256', 'p268']","[10, 6, 2, 3]","[93.00003341222717, 91.58892582949886, 87.57049330475357, 89.14911522239515]",3.0,False,7.25,3.593976442141304,1.7502212524414062,0.7316082170014754
0,,sub_114,2024-07-18 13:59:39,3,distance,cathedral,numerosity_judgement,3,66,2,countries_reversed,"['_Peru_reversed', '_Syria_reversed']","['m', 'f']","['p318', 'p248']","[2, 6]","[87.57049330475357, 91.58892582949886]",2.0,True,6.0,2.8284271247461903,1.5001585483551025,0.8695834752014527
0,,sub_114,2024-07-18 13:59:42,3,distance,cathedral,numerosity_judgement,3,67,5,countries_reversed,"['_Belgium_reversed', '_Yemen_reversed', '_Togo_reversed', '_Peru_reversed', '_Japan_reversed']","['m', 'f', 'f', 'f', 'm']","['p307', 'p284', 'p268', 'p248', 'p318']","[4, 2, 6, 10, 3]","[89.31368318402099, 87.57049330475357, 91.58892582949886, 93.00003341222717, 89.14911522239515]",4.0,False,7.0,3.1622776601683795,2.2502355575561523,0.8763363976847123
0,,sub_114,2024-07-18 13:59:46,3,distance,cathedral,numerosity_judgement,3,68,6,countries_reversed,"['_Mali_reversed', '_Congo_reversed', '_Tonga_reversed', '_Cuba_reversed', '_Sudan_reversed', '_Japan_reversed']","['m', 'f', 'f', 'f', 'm', 'f']","['p229', 'p245', 'p284', 'p248', 'p318', 'p268']","[3, 6, 7, 4, 5, 9]","[89.14911522239515, 91.58892582949886, 91.73820004985969, 89.31368318402099, 90.34149293193902, 92.00610777531934]",4.0,False,7.666666666666667,2.160246899469287,2.000103235244751,0.8228123935989105
0,,sub_114,2024-07-18 13:59:49,3,distance,cathedral,numerosity_judgement,3,69,3,countries_reversed,"['_Yemen_reversed', '_Britain_reversed', '_Cuba_reversed']","['f', 'm', 'm']","['p268', 'p256', 'p307']","[4, 0, 9]","[89.31368318402099, 84.40078082039426, 92.00610777531934]",4.0,False,6.333333333333333,4.509249752822894,2.2498221397399902,0.7512427647259108
0,,sub_114,2024-07-18 13:59:52,3,distance,cathedral,numerosity_judgement,3,70,2,countries_reversed,"['_Oman_reversed', '_Belgium_reversed']","['m', 'f']","['p307', 'p245']","[7, 0]","[91.73820004985969, 84.40078082039426]",2.0,True,5.5,4.949747468305833,1.6251709461212158,0.7292475314947225
0,,sub_114,2024-07-18 13:59:56,3,distance,cathedral,numerosity_judgement,3,71,3,countries_reversed,"['_Syria_reversed', '_Mali_reversed', '_Yemen_reversed']","['f', 'f', 'm']","['p284', 'p248', 'p318']","[4, 9, 5]","[89.31368318402099, 92.00610777531934, 90.34149293193902]",3.0,True,8.0,2.6457513110645907,2.312628746032715,0.8503234593122233
0,,sub_114,2024-07-18 13:59:59,3,distance,cathedral,numerosity_judgement,3,72,6,countries_reversed,"['_Yemen_reversed', '_Oman_reversed', '_Britain_reversed', '_Togo_reversed', '_Cuba_reversed', '_Japan_reversed']","['m', 'f', 'm', 'f', 'f', 'm']","['p318', 'p248', 'p307', 'p284', 'p245', 'p256']","[1, 7, 6, 9, 0, 4]","[86.2038576498559, 91.73820004985969, 91.58892582949886, 92.00610777531934, 84.40078082039426, 89.31368318402099]",2.0,False,6.5,3.5071355833500366,2.2499468326568604,0.747940074906367
0,,sub_114,2024-07-18 14:00:03,3,distance,cathedral,numerosity_judgement,3,73,5,countries_reversed,"['_Sudan_reversed', '_Peru_reversed', '_Japan_reversed', '_Belgium_reversed', '_Mali_reversed']","['f', 'f', 'f', 'm', 'm']","['p268', 'p248', 'p245', 'p307', 'p256']","[2, 6, 0, 7, 5]","[87.57049330475357, 91.58892582949886, 84.40078082039426, 91.73820004985969, 90.34149293193902]",3.0,False,6.0,2.9154759474226504,2.0627169609069824,0.8903302689819543
0,,sub_114,2024-07-18 14:00:05,3,distance,cathedral,numerosity_judgement,3,74,4,countries_reversed,"['_Cuba_reversed', '_Britain_reversed', '_Togo_reversed', '_Tonga_reversed']","['f', 'm', 'f', 'm']","['p245', 'p256', 'p248', 'p318']","[3, 6, 9, 5]","[89.14911522239515, 91.58892582949886, 92.00610777531934, 90.34149293193902]",3.0,False,7.75,2.5,1.625284194946289,0.775224151628646
0,,sub_114,2024-07-18 14:02:09,3,distance,cathedral,numerosity_judgement,4,0,5,countries_reversed,"['_Sudan_reversed', '_Togo_reversed', '_Oman_reversed', '_Congo_reversed', '_Mali_reversed']","['f', 'f', 'm', 'f', 'm']","['p248', 'p245', 'p256', 'p284', 'p229']","[0, 5, 3, 4, 1]","[84.40078082039426, 90.34149293193902, 89.14911522239515, 89.31368318402099, 86.2038576498559]",4.0,False,4.6,2.073644135332772,1.9377048015594482,0.8534899557371467
0,,sub_114,2024-07-18 14:02:12,3,distance,cathedral,numerosity_judgement,4,1,4,countries_reversed,"['_Peru_reversed', '_Britain_reversed', '_Oman_reversed', '_Yemen_reversed']","['m', 'f', 'm', 'm']","['p307', 'p245', 'p318', 'p256']","[7, 3, 4, 10]","[91.73820004985969, 89.14911522239515, 89.31368318402099, 93.00003341222717]",3.0,False,8.0,3.1622776601683795,2.000209331512451,0.6803087050278062
0,,sub_114,2024-07-18 14:02:15,3,distance,cathedral,numerosity_judgement,4,2,2,countries_reversed,"['_Oman_reversed', '_Cuba_reversed']","['f', 'f']","['p245', 'p248']","[6, 7]","[91.58892582949886, 91.73820004985969]",3.0,False,8.5,0.7071067811865476,1.3761863708496094,0.630915900578822
0,,sub_114,2024-07-18 14:02:18,3,distance,cathedral,numerosity_judgement,4,3,6,countries_reversed,"['_Oman_reversed', '_Togo_reversed', '_Congo_reversed', '_Tonga_reversed', '_Sudan_reversed', '_Cuba_reversed']","['f', 'm', 'f', 'm', 'f', 'm']","['p245', 'p318', 'p268', 'p229', 'p248', 'p256']","[3, 6, 8, 4, 1, 10]","[89.14911522239515, 91.58892582949886, 92.0152836843556, 89.31368318402099, 86.2038576498559, 93.00003341222717]",5.0,False,7.333333333333333,3.32665998663324,1.7501840591430664,0.7978095562365225
0,,sub_114,2024-07-18 14:02:21,3,distance,cathedral,numerosity_judgement,4,4,3,countries_reversed,"['_Mali_reversed', '_Japan_reversed', '_Yemen_reversed']","['m', 'f', 'f']","['p318', 'p268', 'p284']","[10, 4, 2]","[93.00003341222717, 89.31368318402099, 87.57049330475357]",3.0,True,7.333333333333333,4.163331998932266,1.438044548034668,0.8873794120985132
0,,sub_114,2024-07-18 14:02:24,3,distance,cathedral,numerosity_judgement,4,5,6,countries_reversed,"['_Cuba_reversed', '_Oman_reversed', '_Japan_reversed', '_Mali_reversed', '_Togo_reversed', '_Peru_reversed']","['m', 'f', 'f', 'm', 'f', 'm']","['p307', 'p248', 'p268', 'p229', 'p245', 'p318']","[5, 0, 8, 9, 3, 4]","[90.34149293193902, 84.40078082039426, 92.0152836843556, 92.00610777531934, 89.14911522239515, 89.31368318402099]",3.0,False,6.833333333333333,3.3115957885386114,1.5001578330993652,0.7655203722619452
0,,sub_114,2024-07-18 14:02:27,3,distance,cathedral,numerosity_judgement,4,6,5,countries_reversed,"['_Yemen_reversed', '_Mali_reversed', '_Sudan_reversed', '_Belgium_reversed', '_Syria_reversed']","['m', 'm', 'f', 'f', 'm']","['p229', 'p318', 'p284', 'p245', 'p307']","[10, 1, 9, 0, 8]","[93.00003341222717, 86.2038576498559, 92.00610777531934, 84.40078082039426, 92.0152836843556]",4.0,False,7.6,4.722287581247038,1.8119146823883057,0.9517421405061854
0,,sub_114,2024-07-18 14:02:29,3,distance,cathedral,numerosity_judgement,4,7,2,countries_reversed,"['_Belgium_reversed', '_Mali_reversed']","['f', 'f']","['p245', 'p248']","[9, 8]","[92.00610777531934, 92.0152836843556]",2.0,True,10.5,0.7071067811865476,1.435983657836914,0.8694926796050392
0,,sub_114,2024-07-18 14:02:33,3,distance,cathedral,numerosity_judgement,4,8,3,countries_reversed,"['_Peru_reversed', '_Tonga_reversed', '_Sudan_reversed']","['m', 'f', 'm']","['p318', 'p284', 'p256']","[10, 9, 3]","[93.00003341222717, 92.00610777531934, 89.14911522239515]",4.0,False,9.333333333333334,3.7859388972001824,2.3127429485321045,0.8174441039609579
0,,sub_114,2024-07-18 14:02:36,3,distance,cathedral,numerosity_judgement,4,9,4,countries_reversed,"['_Peru_reversed', '_Britain_reversed', '_Yemen_reversed', '_Congo_reversed']","['m', 'f', 'f', 'm']","['p307', 'p245', 'p268', 'p256']","[6, 0, 4, 3]","[91.58892582949886, 84.40078082039426, 89.31368318402099, 89.14911522239515]",4.0,True,5.25,2.5,1.7502474784851074,0.6504256043581886
0,,sub_114,2024-07-18 14:02:39,3,distance,cathedral,numerosity_judgement,4,10,3,countries_reversed,"['_Cuba_reversed', '_Oman_reversed', '_Togo_reversed']","['f', 'm', 'f']","['p248', 'p229', 'p284']","[8, 3, 10]","[92.0152836843556, 89.14911522239515, 93.00003341222717]",3.0,True,9.0,3.605551275463989,1.5001575946807861,0.7016229712858927
0,,sub_114,2024-07-18 14:02:42,3,distance,cathedral,numerosity_judgement,4,11,6,countries_reversed,"['_Yemen_reversed', '_Oman_reversed', '_Cuba_reversed', '_Britain_reversed', '_Congo_reversed', '_Japan_reversed']","['m', 'm', 'f', 'f', 'f', 'f']","['p256', 'p307', 'p245', 'p248', 'p268', 'p284']","[3, 1, 7, 5, 8, 4]","[89.14911522239515, 86.2038576498559, 91.73820004985969, 90.34149293193902, 92.0152836843556, 89.31368318402099]",4.0,False,6.666666666666667,2.581988897471611,1.8635027408599854,0.6976847122914539
0,,sub_114,2024-07-18 14:02:45,3,distance,cathedral,numerosity_judgement,4,12,5,countries_reversed,"['_Togo_reversed', '_Peru_reversed', '_Yemen_reversed', '_Oman_reversed', '_Congo_reversed']","['f', 'f', 'm', 'm', 'f']","['p248', 'p245', 'p318', 'p229', 'p268']","[4, 7, 5, 8, 6]","[89.31368318402099, 91.73820004985969, 90.34149293193902, 92.0152836843556, 91.58892582949886]",3.0,False,8.0,1.5811388300841898,2.1249380111694336,0.6672341391442516
0,,sub_114,2024-07-18 14:02:49,3,distance,cathedral,numerosity_judgement,4,13,4,countries_reversed,"['_Cuba_reversed', '_Peru_reversed', '_Congo_reversed', '_Mali_reversed']","['f', 'f', 'f', 'm']","['p248', 'p284', 'p245', 'p318']","[10, 9, 3, 0]","[93.00003341222717, 92.00610777531934, 89.14911522239515, 84.40078082039426]",3.0,False,7.5,4.795831523312719,2.1252281665802,0.7763704460333674
0,,sub_114,2024-07-18 14:02:52,3,distance,cathedral,numerosity_judgement,4,14,2,countries_reversed,"['_Syria_reversed', '_Britain_reversed']","['f', 'f']","['p245', 'p284']","[2, 0]","[87.57049330475357, 84.40078082039426]",2.0,True,3.0,1.4142135623730951,1.8787057399749756,0.9400976052661446
0,,sub_114,2024-07-18 14:02:55,3,distance,cathedral,numerosity_judgement,4,15,4,countries_reversed,"['_Oman_reversed', '_Britain_reversed', '_Congo_reversed', '_Mali_reversed']","['m', 'f', 'm', 'm']","['p256', 'p245', 'p229', 'p318']","[7, 4, 8, 9]","[91.73820004985969, 89.31368318402099, 92.0152836843556, 92.00610777531934]",3.0,False,9.0,2.160246899469287,1.811486005783081,0.7325956191124731
0,,sub_114,2024-07-18 14:02:58,3,distance,cathedral,numerosity_judgement,4,16,2,countries_reversed,"['_Oman_reversed', '_Yemen_reversed']","['f', 'f']","['p248', 'p245']","[5, 9]","[90.34149293193902, 92.00610777531934]",3.0,False,9.0,2.8284271247461903,1.875197410583496,0.5965384178867325
0,,sub_114,2024-07-18 14:03:01,3,distance,cathedral,numerosity_judgement,4,17,6,countries_reversed,"['_Belgium_reversed', '_Yemen_reversed', '_Britain_reversed', '_Togo_reversed', '_Oman_reversed', '_Japan_reversed']","['m', 'f', 'f', 'm', 'm', 'f']","['p229', 'p268', 'p245', 'p318', 'p307', 'p248']","[5, 10, 6, 4, 2, 7]","[90.34149293193902, 93.00003341222717, 91.58892582949886, 89.31368318402099, 87.57049330475357, 91.73820004985969]",4.0,False,7.666666666666667,2.7325202042558927,1.8150546550750732,0.8332992849846782
0,,sub_114,2024-07-18 14:03:05,3,distance,cathedral,numerosity_judgement,4,18,5,countries_reversed,"['_Congo_reversed', '_Peru_reversed', '_Togo_reversed', '_Tonga_reversed', '_Syria_reversed']","['m', 'f', 'm', 'm', 'f']","['p307', 'p284', 'p256', 'p229', 'p268']","[8, 10, 4, 7, 3]","[92.0152836843556, 93.00003341222717, 89.31368318402099, 91.73820004985969, 89.14911522239515]",5.0,True,8.4,2.8809720581775866,1.997722864151001,0.9246737033253888
0,,sub_114,2024-07-18 14:03:09,3,distance,cathedral,numerosity_judgement,4,19,3,countries_reversed,"['_Mali_reversed', '_Oman_reversed', '_Yemen_reversed']","['m', 'm', 'm']","['p318', 'p229', 'p256']","[8, 6, 3]","[92.0152836843556, 91.58892582949886, 89.14911522239515]",3.0,True,7.666666666666667,2.516611478423583,2.687781810760498,0.6290886392009988
0,,sub_114,2024-07-18 14:03:11,3,distance,cathedral,numerosity_judgement,4,20,5,countries_reversed,"['_Mali_reversed', '_Oman_reversed', '_Congo_reversed', '_Peru_reversed', '_Syria_reversed']","['m', 'f', 'm', 'f', 'f']","['p307', 'p268', 'p318', 'p248', 'p284']","[8, 6, 3, 10, 4]","[92.0152836843556, 91.58892582949886, 89.14911522239515, 93.00003341222717, 89.31368318402099]",4.0,False,8.2,2.8635642126552705,1.5650763511657715,0.8331290432414028
0,,sub_114,2024-07-18 14:03:14,3,distance,cathedral,numerosity_judgement,4,21,2,countries_reversed,"['_Yemen_reversed', '_Oman_reversed']","['m', 'm']","['p256', 'p229']","[6, 2]","[91.58892582949886, 87.57049330475357]",4.0,False,6.0,2.8284271247461903,1.7501838207244873,0.7281920326864147
0,,sub_114,2024-07-18 14:03:17,3,distance,cathedral,numerosity_judgement,4,22,3,countries_reversed,"['_Britain_reversed', '_Sudan_reversed', '_Oman_reversed']","['f', 'f', 'm']","['p284', 'p268', 'p307']","[3, 9, 0]","[89.14911522239515, 92.00610777531934, 84.40078082039426]",2.0,False,6.0,4.58257569495584,1.6876771450042725,0.9700261037339688
0,,sub_114,2024-07-18 14:03:20,3,distance,cathedral,numerosity_judgement,4,23,6,countries_reversed,"['_Sudan_reversed', '_Japan_reversed', '_Mali_reversed', '_Britain_reversed', '_Oman_reversed', '_Yemen_reversed']","['f', 'f', 'm', 'f', 'f', 'm']","['p268', 'p284', 'p307', 'p245', 'p248', 'p229']","[5, 3, 4, 1, 0, 2]","[90.34149293193902, 89.14911522239515, 89.31368318402099, 86.2038576498559, 84.40078082039426, 87.57049330475357]",3.0,False,4.5,1.8708286933869707,1.5629420280456543,0.9480308705027806
0,,sub_114,2024-07-18 14:03:23,3,distance,cathedral,numerosity_judgement,4,24,4,countries_reversed,"['_Syria_reversed', '_Japan_reversed', '_Oman_reversed', '_Congo_reversed']","['m', 'm', 'f', 'f']","['p256', 'p229', 'p268', 'p248']","[1, 5, 7, 8]","[86.2038576498559, 90.34149293193902, 91.73820004985969, 92.0152836843556]",4.0,True,7.25,3.095695936834452,1.875197172164917,0.93458177278402
0,,sub_114,2024-07-18 14:03:27,3,distance,cathedral,numerosity_judgement,4,25,6,countries_reversed,"['_Japan_reversed', '_Congo_reversed', '_Cuba_reversed', '_Oman_reversed', '_Yemen_reversed', '_Belgium_reversed']","['m', 'f', 'f', 'm', 'm', 'm']","['p256', 'p268', 'p245', 'p307', 'p229', 'p318']","[5, 4, 7, 3, 9, 10]","[90.34149293193902, 89.31368318402099, 91.73820004985969, 89.14911522239515, 92.00610777531934, 93.00003341222717]",4.0,False,8.333333333333334,2.804757862395017,2.753861427307129,0.7106117353308364
0,,sub_114,2024-07-18 14:03:31,3,distance,cathedral,numerosity_judgement,4,26,5,countries_reversed,"['_Yemen_reversed', '_Mali_reversed', '_Syria_reversed', '_Cuba_reversed', '_Tonga_reversed']","['f', 'm', 'm', 'm', 'f']","['p268', 'p229', 'p318', 'p307', 'p245']","[7, 0, 5, 2, 10]","[91.73820004985969, 84.40078082039426, 90.34149293193902, 87.57049330475357, 93.00003341222717]",4.0,False,6.8,3.96232255123179,2.5003414154052734,0.7237770968108047
0,,sub_114,2024-07-18 14:03:34,3,distance,cathedral,numerosity_judgement,4,27,3,countries_reversed,"['_Syria_reversed', '_Tonga_reversed', '_Togo_reversed']","['f', 'f', 'm']","['p248', 'p268', 'p307']","[7, 8, 0]","[91.73820004985969, 92.0152836843556, 84.40078082039426]",2.0,False,7.0,4.358898943540674,1.8126904964447021,0.921779593689706
0,,sub_114,2024-07-18 14:03:37,3,distance,cathedral,numerosity_judgement,4,28,2,countries_reversed,"['_Tonga_reversed', '_Japan_reversed']","['m', 'f']","['p256', 'p248']","[6, 10]","[91.58892582949886, 93.00003341222717]",2.0,True,10.0,2.8284271247461903,1.5001585483551025,0.8532516172965611
0,,sub_114,2024-07-18 14:03:40,3,distance,cathedral,numerosity_judgement,4,29,4,countries_reversed,"['_Oman_reversed', '_Britain_reversed', '_Syria_reversed', '_Togo_reversed']","['m', 'm', 'm', 'f']","['p307', 'p256', 'p318', 'p248']","[5, 10, 2, 7]","[90.34149293193902, 93.00003341222717, 87.57049330475357, 91.73820004985969]",3.0,False,8.0,3.366501646120693,1.8128674030303955,0.7364884803087051
0,,sub_114,2024-07-18 14:03:43,3,distance,cathedral,numerosity_judgement,4,30,5,countries_reversed,"['_Britain_reversed', '_Belgium_reversed', '_Yemen_reversed', '_Oman_reversed', '_Cuba_reversed']","['f', 'm', 'm', 'm', 'f']","['p248', 'p318', 'p229', 'p256', 'p268']","[8, 4, 7, 0, 3]","[92.0152836843556, 89.31368318402099, 91.73820004985969, 84.40078082039426, 89.14911522239515]",4.0,False,6.4,3.2093613071762426,1.7501845359802246,0.6562705708773124
0,,sub_114,2024-07-18 14:03:46,3,distance,cathedral,numerosity_judgement,4,31,6,countries_reversed,"['_Peru_reversed', '_Congo_reversed', '_Japan_reversed', '_Oman_reversed', '_Yemen_reversed', '_Togo_reversed']","['m', 'm', 'm', 'm', 'f', 'f']","['p256', 'p307', 'p229', 'p318', 'p248', 'p268']","[1, 8, 2, 6, 5, 4]","[86.2038576498559, 92.0152836843556, 87.57049330475357, 91.58892582949886, 90.34149293193902, 89.31368318402099]",5.0,False,6.333333333333333,2.581988897471611,1.6261887550354004,0.8188173873567132
0,,sub_114,2024-07-18 14:03:50,3,distance,cathedral,numerosity_judgement,4,32,4,countries_reversed,"['_Oman_reversed', '_Yemen_reversed', '_Britain_reversed', '_Mali_reversed']","['m', 'm', 'm', 'm']","['p229', 'p318', 'p307', 'p256']","[5, 7, 9, 6]","[90.34149293193902, 91.73820004985969, 92.00610777531934, 91.58892582949886]",4.0,True,8.75,1.707825127659933,2.3119492530822754,0.6135966405629327
0,,sub_114,2024-07-18 14:03:53,3,distance,cathedral,numerosity_judgement,4,33,3,countries_reversed,"['_Yemen_reversed', '_Britain_reversed', '_Congo_reversed']","['m', 'f', 'm']","['p307', 'p245', 'p256']","[8, 5, 3]","[92.0152836843556, 90.34149293193902, 89.14911522239515]",4.0,False,7.333333333333333,2.516611478423583,1.7501842975616455,0.7409828623311769
0,,sub_114,2024-07-18 14:03:56,3,distance,cathedral,numerosity_judgement,4,34,2,countries_reversed,"['_Yemen_reversed', '_Congo_reversed']","['f', 'm']","['p284', 'p229']","[9, 2]","[92.00610777531934, 87.57049330475357]",2.0,True,7.5,4.949747468305833,1.9843554496765137,0.836374985813188
