,event_id,timestamp,subject_id,session_index,plane,setup,task,block,trial_index,stim_type,headpose_offset_azi,headpose_offset_ele,stim_filename,stim_level,mgb_level,fluctuation,speaker_id,speaker_proc,speaker_chan,stim_azi,stim_ele,stim_dist,resp_azi,resp_ele,resp_dist,reaction_time
0,,2024-07-26 15:17:19,sub_119,3,distance,cathedral,localisation_accuracy,1,0,pinknoise,,,pinknoise_1.wav,89.12151552565602,30,-0.25550471878027725,4,RX81,5,0.0,0.0,6.0,0,0,5.199413489736071,4.937165021896362
0,,2024-07-26 15:17:24,sub_119,3,distance,cathedral,localisation_accuracy,1,1,pinknoise,,,pinknoise_7.wav,92.26475099127902,30,0.3658200783777067,9,RX81,10,0.0,0.0,11.0,0,0,7.03225806451613,3.24975848197937
0,,2024-07-26 15:17:28,sub_119,3,distance,cathedral,localisation_accuracy,1,2,pinknoise,,,pinknoise_1.wav,87.78342424786737,30,0.3098844367576127,2,RX81,3,0.0,0.0,4.0,0,0,5.0527859237536665,2.999760389328003
0,,2024-07-26 15:17:31,sub_119,3,distance,cathedral,localisation_accuracy,1,3,pinknoise,,,pinknoise_3.wav,92.06444221767657,30,0.06951872725521069,8,RX81,9,0.0,0.0,10.0,0,0,8.146627565982405,2.4372916221618652
0,,2024-07-26 15:17:35,sub_119,3,distance,cathedral,localisation_accuracy,1,4,pinknoise,,,pinknoise_3.wav,93.2744738754156,30,0.388313610284716,10,RX81,11,0.0,0.0,12.0,0,0,9.891495601173022,1.96856689453125
0,,2024-07-26 15:17:38,sub_119,3,distance,cathedral,localisation_accuracy,1,5,pinknoise,,,pinknoise_9.wav,86.4495973801364,30,0.3617262192369729,1,RX81,2,0.0,0.0,3.0,0,0,5.47800586510264,1.7654540538787842
0,,2024-07-26 15:17:42,sub_119,3,distance,cathedral,localisation_accuracy,1,6,pinknoise,,,pinknoise_1.wav,84.31456327015076,30,-0.127891844710323,0,RX81,1,0.0,0.0,2.0,0,0,6.167155425219942,2.9685115814208984
0,,2024-07-26 15:17:45,sub_119,3,distance,cathedral,localisation_accuracy,1,7,pinknoise,,,pinknoise_6.wav,89.49528040780683,30,0.4971440311496931,3,RX81,4,0.0,0.0,5.0,0,0,7.67741935483871,2.2810699939727783
0,,2024-07-26 15:17:48,sub_119,3,distance,cathedral,localisation_accuracy,1,8,pinknoise,,,pinknoise_6.wav,90.4553283446393,30,0.16319486989952559,5,RX81,6,0.0,0.0,7.0,0,0,9.803519061583579,1.8591971397399902
0,,2024-07-26 15:17:51,sub_119,3,distance,cathedral,localisation_accuracy,1,9,pinknoise,,,pinknoise_2.wav,92.06690550578375,30,0.4575595286849574,7,RX81,8,0.0,0.0,9.0,0,0,10.258064516129034,1.8748254776000977
0,,2024-07-26 15:17:54,sub_119,3,distance,cathedral,localisation_accuracy,1,10,pinknoise,,,pinknoise_0.wav,91.50657851228785,30,-0.11714465275697206,6,RX81,7,0.0,0.0,8.0,0,0,10.741935483870968,2.140454053878784
0,,2024-07-26 15:17:58,sub_119,3,distance,cathedral,localisation_accuracy,1,11,pinknoise,,,pinknoise_7.wav,84.36433214063152,30,-0.0541332636220786,0,RX81,1,0.0,0.0,2.0,0,0,3.513196480938417,2.202993631362915
0,,2024-07-26 15:18:02,sub_119,3,distance,cathedral,localisation_accuracy,1,12,pinknoise,,,pinknoise_9.wav,87.23842011308507,30,-0.4769643352929881,2,RX81,3,0.0,0.0,4.0,0,0,5.903225806451613,2.702920913696289
0,,2024-07-26 15:18:06,sub_119,3,distance,cathedral,localisation_accuracy,1,13,pinknoise,,,pinknoise_7.wav,93.17178271021425,30,0.24242792606123997,10,RX81,11,0.0,0.0,12.0,0,0,11.064516129032258,2.6092193126678467
0,,2024-07-26 15:18:10,sub_119,3,distance,cathedral,localisation_accuracy,1,14,pinknoise,,,pinknoise_9.wav,91.75241732745064,30,-0.36902037280956446,8,RX81,9,0.0,0.0,10.0,0,0,10.947214076246334,2.9997851848602295
0,,2024-07-26 15:18:14,sub_119,3,distance,cathedral,localisation_accuracy,1,15,pinknoise,,,pinknoise_1.wav,89.19915929829772,30,0.07136638943095475,3,RX81,4,0.0,0.0,5.0,0,0,6.079178885630499,3.421628475189209
0,,2024-07-26 15:18:18,sub_119,3,distance,cathedral,localisation_accuracy,1,16,pinknoise,,,pinknoise_8.wav,91.80559529346428,30,0.09325088646208624,7,RX81,8,0.0,0.0,9.0,0,0,10.624633431085044,2.624800682067871
0,,2024-07-26 15:18:21,sub_119,3,distance,cathedral,localisation_accuracy,1,17,pinknoise,,,pinknoise_1.wav,89.4995057918621,30,0.2491554646444717,4,RX81,5,0.0,0.0,6.0,0,0,8.395894428152493,1.6560940742492676
0,,2024-07-26 15:18:24,sub_119,3,distance,cathedral,localisation_accuracy,1,18,pinknoise,,,pinknoise_2.wav,91.86371214505914,30,0.39423528039421285,6,RX81,7,0.0,0.0,8.0,0,0,10.214076246334312,2.093579053878784
0,,2024-07-26 15:18:27,sub_119,3,distance,cathedral,localisation_accuracy,1,19,pinknoise,,,pinknoise_2.wav,90.66759795624964,30,0.46988020283567355,5,RX81,6,0.0,0.0,7.0,0,0,11.167155425219942,1.6873552799224854
0,,2024-07-26 15:18:33,sub_119,3,distance,cathedral,localisation_accuracy,1,20,pinknoise,,,pinknoise_2.wav,86.16324798902062,30,-0.059360664073845104,1,RX81,2,0.0,0.0,3.0,0,0,3.8944281524926687,5.315175294876099
0,,2024-07-26 15:18:37,sub_119,3,distance,cathedral,localisation_accuracy,1,21,pinknoise,,,pinknoise_1.wav,92.24779157308521,30,0.3416969262851892,9,RX81,10,0.0,0.0,11.0,0,0,9.994134897360704,2.3904385566711426
0,,2024-07-26 15:18:43,sub_119,3,distance,cathedral,localisation_accuracy,1,22,pinknoise,,,pinknoise_8.wav,84.69465478920485,30,0.4400495068263891,0,RX81,1,0.0,0.0,2.0,0,0,2.4721407624633436,4.780924320220947
0,,2024-07-26 15:18:46,sub_119,3,distance,cathedral,localisation_accuracy,1,23,pinknoise,,,pinknoise_8.wav,87.63434654076758,30,0.09259335665313995,2,RX81,3,0.0,0.0,4.0,0,0,3.6598240469208214,1.5935888290405273
0,,2024-07-26 15:18:48,sub_119,3,distance,cathedral,localisation_accuracy,1,24,pinknoise,,,pinknoise_0.wav,91.97413276371576,30,0.32771713845924955,7,RX81,8,0.0,0.0,9.0,0,0,7.384164222873901,1.5154716968536377
0,,2024-07-26 15:18:51,sub_119,3,distance,cathedral,localisation_accuracy,1,25,pinknoise,,,pinknoise_4.wav,91.28647122750456,30,-0.4280217261195861,6,RX81,7,0.0,0.0,8.0,0,0,8.92375366568915,1.3279798030853271
0,,2024-07-26 15:18:55,sub_119,3,distance,cathedral,localisation_accuracy,1,26,pinknoise,,,pinknoise_5.wav,92.33759110126795,30,0.4587436012737194,8,RX81,9,0.0,0.0,10.0,0,0,10.536656891495602,2.9841415882110596
0,,2024-07-26 15:18:58,sub_119,3,distance,cathedral,localisation_accuracy,1,27,pinknoise,,,pinknoise_1.wav,90.25442080661725,30,-0.12423069614947313,5,RX81,6,0.0,0.0,7.0,0,0,8.043988269794722,1.374859094619751
0,,2024-07-26 15:19:00,sub_119,3,distance,cathedral,localisation_accuracy,1,28,pinknoise,,,pinknoise_8.wav,92.68118879060339,30,-0.44491537629592925,10,RX81,11,0.0,0.0,12.0,0,0,10.932551319648095,1.5936105251312256
0,,2024-07-26 15:19:04,sub_119,3,distance,cathedral,localisation_accuracy,1,29,pinknoise,,,pinknoise_4.wav,91.74740778910933,30,-0.3614918548056182,9,RX81,10,0.0,0.0,11.0,0,0,11.211143695014664,2.2341983318328857
0,,2024-07-26 15:19:07,sub_119,3,distance,cathedral,localisation_accuracy,1,30,pinknoise,,,pinknoise_5.wav,89.07982751000326,30,-0.3106449195917165,4,RX81,5,0.0,0.0,6.0,0,0,6.196480938416423,1.9216949939727783
0,,2024-07-26 15:19:10,sub_119,3,distance,cathedral,localisation_accuracy,1,31,pinknoise,,,pinknoise_8.wav,86.01732552651742,30,-0.27169334476008167,1,RX81,2,0.0,0.0,3.0,0,0,3.6891495601173023,1.5624265670776367
0,,2024-07-26 15:19:13,sub_119,3,distance,cathedral,localisation_accuracy,1,32,pinknoise,,,pinknoise_9.wav,89.25621877455653,30,0.15294439794525094,3,RX81,4,0.0,0.0,5.0,0,0,5.082111436950147,1.781099796295166
0,,2024-07-26 15:19:16,sub_119,3,distance,cathedral,localisation_accuracy,1,33,pinknoise,,,pinknoise_8.wav,91.98010451142402,30,0.3360583523125661,7,RX81,8,0.0,0.0,9.0,0,0,9.627565982404693,2.296701431274414
0,,2024-07-26 15:19:19,sub_119,3,distance,cathedral,localisation_accuracy,1,34,pinknoise,,,pinknoise_9.wav,92.91658004316349,30,-0.11709375766627084,10,RX81,11,0.0,0.0,12.0,0,0,11.10850439882698,1.5936172008514404
0,,2024-07-26 15:19:23,sub_119,3,distance,cathedral,localisation_accuracy,1,35,pinknoise,,,pinknoise_9.wav,91.77903934483982,30,0.27220631558401964,6,RX81,7,0.0,0.0,8.0,0,0,10.565982404692082,2.9528846740722656
0,,2024-07-26 15:19:25,sub_119,3,distance,cathedral,localisation_accuracy,1,36,pinknoise,,,pinknoise_2.wav,89.48562247458699,30,0.23046906213373308,4,RX81,5,0.0,0.0,6.0,0,0,8.938416422287391,1.1873629093170166
0,,2024-07-26 15:19:28,sub_119,3,distance,cathedral,localisation_accuracy,1,37,pinknoise,,,pinknoise_7.wav,92.33434339390348,30,0.46500961098703497,9,RX81,10,0.0,0.0,11.0,0,0,10.316715542521996,1.3280036449432373
0,,2024-07-26 15:19:32,sub_119,3,distance,cathedral,localisation_accuracy,1,38,pinknoise,,,pinknoise_4.wav,86.02816582161309,30,-0.25597147314137214,1,RX81,2,0.0,0.0,3.0,0,0,3.7184750733137832,2.6716504096984863
0,,2024-07-26 15:19:35,sub_119,3,distance,cathedral,localisation_accuracy,1,39,pinknoise,,,pinknoise_5.wav,90.18314259435456,30,-0.22554429850980462,5,RX81,6,0.0,0.0,7.0,0,0,8.366568914956012,2.671651601791382
0,,2024-07-26 15:19:39,sub_119,3,distance,cathedral,localisation_accuracy,1,40,pinknoise,,,pinknoise_7.wav,87.48675171279791,30,-0.12100169708846098,2,RX81,3,0.0,0.0,4.0,0,0,5.844574780058651,2.234175443649292
0,,2024-07-26 15:19:43,sub_119,3,distance,cathedral,localisation_accuracy,1,41,pinknoise,,,pinknoise_2.wav,92.32392620725699,30,0.43915256183535245,8,RX81,9,0.0,0.0,10.0,0,0,11.0791788856305,2.7654168605804443
0,,2024-07-26 15:19:48,sub_119,3,distance,cathedral,localisation_accuracy,1,42,pinknoise,,,pinknoise_8.wav,84.27027377811876,30,-0.19337707941133742,0,RX81,1,0.0,0.0,2.0,0,0,2.3401759530791795,3.734144687652588
0,,2024-07-26 15:19:50,sub_119,3,distance,cathedral,localisation_accuracy,1,43,pinknoise,,,pinknoise_5.wav,89.22160454018086,30,0.10343001464903567,3,RX81,4,0.0,0.0,5.0,0,0,6.621700879765397,1.6561062335968018
0,,2024-07-26 15:19:53,sub_119,3,distance,cathedral,localisation_accuracy,1,44,pinknoise,,,pinknoise_5.wav,91.84892669251033,30,0.1533590629583692,7,RX81,8,0.0,0.0,9.0,0,0,7.838709677419356,1.1561839580535889
0,,2024-07-26 15:19:57,sub_119,3,distance,cathedral,localisation_accuracy,1,45,pinknoise,,,pinknoise_4.wav,84.66647669539176,30,0.39757707909022744,0,RX81,1,0.0,0.0,2.0,0,0,2.457478005865103,3.4372990131378174
0,,2024-07-26 15:20:03,sub_119,3,distance,cathedral,localisation_accuracy,1,46,pinknoise,,,pinknoise_2.wav,90.01150523799984,30,-0.4680991301262385,5,RX81,6,0.0,0.0,7.0,0,0,10.214076246334312,3.92158579826355
0,,2024-07-26 15:20:05,sub_119,3,distance,cathedral,localisation_accuracy,1,47,pinknoise,,,pinknoise_6.wav,89.35783341463656,30,0.298771356344818,3,RX81,4,0.0,0.0,5.0,0,0,8.90909090909091,1.4529879093170166
0,,2024-07-26 15:20:08,sub_119,3,distance,cathedral,localisation_accuracy,1,48,pinknoise,,,pinknoise_1.wav,91.50218698912829,30,-0.12337902926958899,6,RX81,7,0.0,0.0,8.0,0,0,10.82991202346041,1.7654755115509033
0,,2024-07-26 15:20:11,sub_119,3,distance,cathedral,localisation_accuracy,1,49,pinknoise,,,pinknoise_2.wav,92.28227913438921,30,0.3907723421334629,9,RX81,10,0.0,0.0,11.0,0,0,11.43108504398827,1.6248407363891602
0,,2024-07-26 15:20:14,sub_119,3,distance,cathedral,localisation_accuracy,1,50,pinknoise,,,pinknoise_2.wav,91.86482592403287,30,-0.21177630381840196,8,RX81,9,0.0,0.0,10.0,0,0,11.533724340175954,1.5154900550842285
0,,2024-07-26 15:20:17,sub_119,3,distance,cathedral,localisation_accuracy,1,51,pinknoise,,,pinknoise_1.wav,86.31607907390075,30,0.16465095432137355,1,RX81,2,0.0,0.0,3.0,0,0,5.873900293255132,2.0466878414154053
0,,2024-07-26 15:20:20,sub_119,3,distance,cathedral,localisation_accuracy,1,52,pinknoise,,,pinknoise_6.wav,89.03180890034218,30,-0.374031846293036,4,RX81,5,0.0,0.0,6.0,0,0,6.739002932551321,2.218573808670044
0,,2024-07-26 15:20:24,sub_119,3,distance,cathedral,localisation_accuracy,1,53,pinknoise,,,pinknoise_1.wav,87.37495267848432,30,-0.28178437938533685,2,RX81,3,0.0,0.0,4.0,0,0,5.184750733137831,2.3123180866241455
0,,2024-07-26 15:20:27,sub_119,3,distance,cathedral,localisation_accuracy,1,54,pinknoise,,,pinknoise_7.wav,93.03269559805086,30,0.045953273893143076,10,RX81,11,0.0,0.0,12.0,0,0,9.686217008797655,2.1248159408569336
0,,2024-07-26 15:22:15,sub_119,3,distance,cathedral,localisation_accuracy,2,0,pinknoise,,,pinknoise_9.wav,93.27662328947527,30,0.39137462985555704,10,RX81,11,0.0,0.0,12.0,0,0,10.17008797653959,3.3435497283935547
0,,2024-07-26 15:22:19,sub_119,3,distance,cathedral,localisation_accuracy,2,1,pinknoise,,,pinknoise_6.wav,86.40702357359379,30,0.2987471437763577,1,RX81,2,0.0,0.0,3.0,0,0,2.706744868035191,2.3279285430908203
0,,2024-07-26 15:22:23,sub_119,3,distance,cathedral,localisation_accuracy,2,2,pinknoise,,,pinknoise_0.wav,91.7878692326478,30,-0.3052421618938981,9,RX81,10,0.0,0.0,11.0,0,0,10.302052785923754,2.671651601791382
0,,2024-07-26 15:22:27,sub_119,3,distance,cathedral,localisation_accuracy,2,3,pinknoise,,,pinknoise_5.wav,87.70978006474643,30,0.20234754549136014,2,RX81,3,0.0,0.0,4.0,0,0,4.583577712609971,3.343508720397949
0,,2024-07-26 15:22:30,sub_119,3,distance,cathedral,localisation_accuracy,2,4,pinknoise,,,pinknoise_2.wav,89.25247497203395,30,-0.08161930093541014,4,RX81,5,0.0,0.0,6.0,0,0,5.873900293255132,1.5935890674591064
0,,2024-07-26 15:22:34,sub_119,3,distance,cathedral,localisation_accuracy,2,5,pinknoise,,,pinknoise_4.wav,84.06312837053746,30,-0.49775588427493045,0,RX81,1,0.0,0.0,2.0,0,0,2.457478005865103,2.5154590606689453
0,,2024-07-26 15:22:37,sub_119,3,distance,cathedral,localisation_accuracy,2,6,pinknoise,,,pinknoise_5.wav,89.34845456331816,30,0.28528229538120586,3,RX81,4,0.0,0.0,5.0,0,0,5.2434017595307925,1.7029592990875244
0,,2024-07-26 15:22:40,sub_119,3,distance,cathedral,localisation_accuracy,2,7,pinknoise,,,pinknoise_7.wav,90.03230573909929,30,-0.43880977832390355,5,RX81,6,0.0,0.0,7.0,0,0,8.762463343108505,2.062311887741089
0,,2024-07-26 15:22:43,sub_119,3,distance,cathedral,localisation_accuracy,2,8,pinknoise,,,pinknoise_9.wav,91.84725534017042,30,-0.2364100293355893,8,RX81,9,0.0,0.0,10.0,0,0,10.346041055718477,1.7654752731323242
0,,2024-07-26 15:22:46,sub_119,3,distance,cathedral,localisation_accuracy,2,9,pinknoise,,,pinknoise_1.wav,91.62068168225309,30,-0.16191264410983264,7,RX81,8,0.0,0.0,9.0,0,0,10.903225806451614,2.2966949939727783
0,,2024-07-26 15:22:49,sub_119,3,distance,cathedral,localisation_accuracy,2,10,pinknoise,,,pinknoise_2.wav,91.70629280269071,30,0.16775661964051214,6,RX81,7,0.0,0.0,8.0,0,0,11.299120234604107,1.2811288833618164
0,,2024-07-26 15:22:50,sub_119,3,distance,cathedral,localisation_accuracy,2,11,pinknoise,,,pinknoise_2.wav,93.01310828489926,30,0.018386934413235245,10,RX81,11,0.0,0.0,12.0,0,0,10.844574780058652,0.42180371284484863
0,,2024-07-26 15:22:53,sub_119,3,distance,cathedral,localisation_accuracy,2,12,pinknoise,,,pinknoise_1.wav,92.07804448129386,30,0.4731866904529044,7,RX81,8,0.0,0.0,9.0,0,0,9.744868035190617,1.4530470371246338
0,,2024-07-26 15:22:57,sub_119,3,distance,cathedral,localisation_accuracy,2,13,pinknoise,,,pinknoise_9.wav,89.54918721554299,30,0.31611939350837404,4,RX81,5,0.0,0.0,6.0,0,0,9.495601173020528,2.7341690063476562
0,,2024-07-26 15:23:01,sub_119,3,distance,cathedral,localisation_accuracy,2,14,pinknoise,,,pinknoise_6.wav,85.90483960998097,30,-0.43434395512291124,1,RX81,2,0.0,0.0,3.0,0,0,3.865102639296188,2.6404247283935547
0,,2024-07-26 15:23:04,sub_119,3,distance,cathedral,localisation_accuracy,2,15,pinknoise,,,pinknoise_9.wav,87.52257576658913,30,-0.06929788546864601,2,RX81,3,0.0,0.0,4.0,0,0,5.111436950146628,2.343574047088623
0,,2024-07-26 15:23:07,sub_119,3,distance,cathedral,localisation_accuracy,2,16,pinknoise,,,pinknoise_8.wav,90.57410054662178,30,0.334413550323016,5,RX81,6,0.0,0.0,7.0,0,0,7.530791788856305,1.937340497970581
0,,2024-07-26 15:23:10,sub_119,3,distance,cathedral,localisation_accuracy,2,17,pinknoise,,,pinknoise_9.wav,91.91886856413993,30,-0.13588137442470538,8,RX81,9,0.0,0.0,10.0,0,0,9.686217008797655,1.593618392944336
0,,2024-07-26 15:23:12,sub_119,3,distance,cathedral,localisation_accuracy,2,18,pinknoise,,,pinknoise_5.wav,91.88674677081451,30,0.42751741068928684,6,RX81,7,0.0,0.0,8.0,0,0,10.492668621700881,1.0311212539672852
0,,2024-07-26 15:23:15,sub_119,3,distance,cathedral,localisation_accuracy,2,19,pinknoise,,,pinknoise_4.wav,89.41207625685406,30,0.3769036473903937,3,RX81,4,0.0,0.0,5.0,0,0,6.680351906158359,1.6717312335968018
0,,2024-07-26 15:23:18,sub_119,3,distance,cathedral,localisation_accuracy,2,20,pinknoise,,,pinknoise_0.wav,91.87806152843939,30,-0.17947189627677984,9,RX81,10,0.0,0.0,11.0,0,0,10.4633431085044,1.9530243873596191
0,,2024-07-26 15:23:23,sub_119,3,distance,cathedral,localisation_accuracy,2,21,pinknoise,,,pinknoise_8.wav,84.33367962553193,30,-0.0995824910868307,0,RX81,1,0.0,0.0,2.0,0,0,2.325513196480939,3.671614646911621
0,,2024-07-26 15:23:27,sub_119,3,distance,cathedral,localisation_accuracy,2,22,pinknoise,,,pinknoise_3.wav,85.92271672810361,30,-0.4085538843764438,1,RX81,2,0.0,0.0,3.0,0,0,2.8240469208211145,2.452913761138916
0,,2024-07-26 15:23:30,sub_119,3,distance,cathedral,localisation_accuracy,2,23,pinknoise,,,pinknoise_5.wav,90.29604439457479,30,-0.06490829571050805,5,RX81,6,0.0,0.0,7.0,0,0,9.788856304985337,2.3123180866241455
0,,2024-07-26 15:23:33,sub_119,3,distance,cathedral,localisation_accuracy,2,24,pinknoise,,,pinknoise_7.wav,89.48105360740331,30,0.4765508480788212,3,RX81,4,0.0,0.0,5.0,0,0,8.263929618768328,1.577986478805542
0,,2024-07-26 15:23:36,sub_119,3,distance,cathedral,localisation_accuracy,2,25,pinknoise,,,pinknoise_8.wav,93.31760296365503,30,0.44979354192935717,10,RX81,11,0.0,0.0,12.0,0,0,10.727272727272728,1.8748254776000977
0,,2024-07-26 15:23:39,sub_119,3,distance,cathedral,localisation_accuracy,2,26,pinknoise,,,pinknoise_8.wav,91.39526639162148,30,-0.2747669696919147,6,RX81,7,0.0,0.0,8.0,0,0,11.12316715542522,1.4998478889465332
0,,2024-07-26 15:23:43,sub_119,3,distance,cathedral,localisation_accuracy,2,27,pinknoise,,,pinknoise_1.wav,91.906135736302,30,-0.15378015005625034,8,RX81,9,0.0,0.0,10.0,0,0,10.15542521994135,2.937281847000122
0,,2024-07-26 15:23:45,sub_119,3,distance,cathedral,localisation_accuracy,2,28,pinknoise,,,pinknoise_9.wav,88.95448072025103,30,-0.4758245248113562,4,RX81,5,0.0,0.0,6.0,0,0,8.381231671554254,1.4685993194580078
0,,2024-07-26 15:23:48,sub_119,3,distance,cathedral,localisation_accuracy,2,29,pinknoise,,,pinknoise_9.wav,92.06274501163504,30,0.07972791629164377,9,RX81,10,0.0,0.0,11.0,0,0,10.287390029325515,1.577986717224121
0,,2024-07-26 15:23:56,sub_119,3,distance,cathedral,localisation_accuracy,2,30,pinknoise,,,pinknoise_8.wav,84.48106466281712,30,0.1195822758534858,0,RX81,1,0.0,0.0,2.0,0,0,1.9296187683284458,6.265191555023193
0,,2024-07-26 15:23:59,sub_119,3,distance,cathedral,localisation_accuracy,2,31,pinknoise,,,pinknoise_7.wav,87.7350964192893,30,0.2392719517770462,2,RX81,3,0.0,0.0,4.0,0,0,3.0,2.4372973442077637
0,,2024-07-26 15:24:03,sub_119,3,distance,cathedral,localisation_accuracy,2,32,pinknoise,,,pinknoise_0.wav,91.77420388959575,30,0.04978041528715793,7,RX81,8,0.0,0.0,9.0,0,0,8.718475073313783,2.499786853790283
0,,2024-07-26 15:24:06,sub_119,3,distance,cathedral,localisation_accuracy,2,33,pinknoise,,,pinknoise_7.wav,93.04733493346788,30,0.06657257185311771,10,RX81,11,0.0,0.0,12.0,0,0,10.844574780058652,2.5154638290405273
0,,2024-07-26 15:24:11,sub_119,3,distance,cathedral,localisation_accuracy,2,34,pinknoise,,,pinknoise_6.wav,86.26035150758693,30,0.08277498285438467,1,RX81,2,0.0,0.0,3.0,0,0,2.1055718475073313,2.9529073238372803
0,,2024-07-26 15:24:14,sub_119,3,distance,cathedral,localisation_accuracy,2,35,pinknoise,,,pinknoise_6.wav,92.34326834128802,30,0.46688663475274716,8,RX81,9,0.0,0.0,10.0,0,0,10.712609970674487,2.62480092048645
0,,2024-07-26 15:24:17,sub_119,3,distance,cathedral,localisation_accuracy,2,36,pinknoise,,,pinknoise_4.wav,91.51869212977245,30,-0.0999409474420282,6,RX81,7,0.0,0.0,8.0,0,0,11.10850439882698,1.312377691268921
0,,2024-07-26 15:24:22,sub_119,3,distance,cathedral,localisation_accuracy,2,37,pinknoise,,,pinknoise_6.wav,87.27094754075776,30,-0.430581427496337,2,RX81,3,0.0,0.0,4.0,0,0,2.1055718475073313,4.171550750732422
0,,2024-07-26 15:24:26,sub_119,3,distance,cathedral,localisation_accuracy,2,38,pinknoise,,,pinknoise_4.wav,84.06161237166043,30,-0.49997199215848953,0,RX81,1,0.0,0.0,2.0,0,0,1.7683284457478008,2.5622735023498535
0,,2024-07-26 15:24:29,sub_119,3,distance,cathedral,localisation_accuracy,2,39,pinknoise,,,pinknoise_9.wav,90.63878895347798,30,0.4280750170203511,5,RX81,6,0.0,0.0,7.0,0,0,8.703812316715544,2.140425682067871
0,,2024-07-26 15:24:33,sub_119,3,distance,cathedral,localisation_accuracy,2,40,pinknoise,,,pinknoise_2.wav,89.39809420349137,30,0.11292494118339447,4,RX81,5,0.0,0.0,6.0,0,0,6.8269794721407635,2.2654197216033936
0,,2024-07-26 15:24:36,sub_119,3,distance,cathedral,localisation_accuracy,2,41,pinknoise,,,pinknoise_2.wav,91.55502143058855,30,-0.2519961915536527,7,RX81,8,0.0,0.0,9.0,0,0,9.87683284457478,2.1091763973236084
0,,2024-07-26 15:24:39,sub_119,3,distance,cathedral,localisation_accuracy,2,42,pinknoise,,,pinknoise_5.wav,89.09805991410406,30,-0.07263394374201704,3,RX81,4,0.0,0.0,5.0,0,0,6.196480938416423,2.1560781002044678
0,,2024-07-26 15:24:43,sub_119,3,distance,cathedral,localisation_accuracy,2,43,pinknoise,,,pinknoise_0.wav,91.70326951037993,30,-0.422731592992579,9,RX81,10,0.0,0.0,11.0,0,0,10.228739002932553,2.671643018722534
0,,2024-07-26 15:24:47,sub_119,3,distance,cathedral,localisation_accuracy,2,44,pinknoise,,,pinknoise_1.wav,91.89750725289686,30,0.4430774372235282,6,RX81,7,0.0,0.0,8.0,0,0,10.580645161290324,2.6247732639312744
0,,2024-07-26 15:24:51,sub_119,3,distance,cathedral,localisation_accuracy,2,45,pinknoise,,,pinknoise_4.wav,89.16941106330731,30,-0.19202747961764388,4,RX81,5,0.0,0.0,6.0,0,0,8.263929618768328,2.4529058933258057
0,,2024-07-26 15:24:55,sub_119,3,distance,cathedral,localisation_accuracy,2,46,pinknoise,,,pinknoise_5.wav,87.8678417899249,30,0.43362391694825353,2,RX81,3,0.0,0.0,4.0,0,0,4.1143695014662764,2.906024932861328
0,,2024-07-26 15:24:58,sub_119,3,distance,cathedral,localisation_accuracy,2,47,pinknoise,,,pinknoise_6.wav,90.49558751310403,30,0.22112281475762863,5,RX81,6,0.0,0.0,7.0,0,0,8.395894428152493,1.9998114109039307
0,,2024-07-26 15:25:01,sub_119,3,distance,cathedral,localisation_accuracy,2,48,pinknoise,,,pinknoise_7.wav,92.99926400174185,30,-0.001081655778296775,10,RX81,11,0.0,0.0,12.0,0,0,9.759530791788857,2.28106427192688
0,,2024-07-26 15:25:04,sub_119,3,distance,cathedral,localisation_accuracy,2,49,pinknoise,,,pinknoise_0.wav,91.85346764250963,30,0.15966509531211737,7,RX81,8,0.0,0.0,9.0,0,0,10.302052785923754,1.4842166900634766
0,,2024-07-26 15:25:09,sub_119,3,distance,cathedral,localisation_accuracy,2,50,pinknoise,,,pinknoise_6.wav,84.53927760253123,30,0.20658808887200575,0,RX81,1,0.0,0.0,2.0,0,0,2.545454545454546,4.2965638637542725
0,,2024-07-26 15:25:15,sub_119,3,distance,cathedral,localisation_accuracy,2,51,pinknoise,,,pinknoise_1.wav,92.24936995251981,30,0.34394121122365306,9,RX81,10,0.0,0.0,11.0,0,0,11.020527859237538,4.171571969985962
0,,2024-07-26 15:25:20,sub_119,3,distance,cathedral,localisation_accuracy,2,52,pinknoise,,,pinknoise_6.wav,86.06533457146641,30,-0.20200182236110853,1,RX81,2,0.0,0.0,3.0,0,0,1.709677419354839,4.218420505523682
0,,2024-07-26 15:25:25,sub_119,3,distance,cathedral,localisation_accuracy,2,53,pinknoise,,,pinknoise_2.wav,91.97008481512844,30,-0.06377723880337527,8,RX81,9,0.0,0.0,10.0,0,0,11.460410557184751,3.4216177463531494
0,,2024-07-26 15:25:28,sub_119,3,distance,cathedral,localisation_accuracy,2,54,pinknoise,,,pinknoise_7.wav,89.12990518608977,30,-0.027349862104452338,3,RX81,4,0.0,0.0,5.0,0,0,9.55425219941349,1.8904414176940918
0,,2024-07-26 15:29:31,sub_119,3,distance,cathedral,localisation_accuracy,3,0,babble,,,babble-reversed_n13_p318-three-p307-one-p256-five-p248-nine-p245-two-p284-eight.wav,92.72486278431116,30,-0.38436495624860867,10,RX81,11,0.0,0.0,12.0,0,0,9.964809384164223,3.2341296672821045
0,,2024-07-26 15:29:34,sub_119,3,distance,cathedral,localisation_accuracy,3,1,babble,,,babble-reversed_n13_p229-nine-p318-one-p307-two-p248-eight-p245-five-p284-four.wav,91.44353345694364,30,-0.2065212693841556,6,RX81,7,0.0,0.0,8.0,0,0,10.595307917888563,1.7030138969421387
0,,2024-07-26 15:29:37,sub_119,3,distance,cathedral,localisation_accuracy,3,2,babble,,,babble-reversed_n13_p318-five-p256-nine-p307-two-p245-eight-p248-one-p284-four.wav,92.34829182821517,30,0.48492915433177275,9,RX81,10,0.0,0.0,11.0,0,0,10.991202346041057,1.57796311378479
0,,2024-07-26 15:29:40,sub_119,3,distance,cathedral,localisation_accuracy,3,3,babble,,,babble-reversed_n13_p256-four-p229-eight-p307-five-p248-three-p245-one-p284-two.wav,91.5555927245771,30,-0.25121357043609116,7,RX81,8,0.0,0.0,9.0,0,0,10.551319648093843,1.9842615127563477
0,,2024-07-26 15:29:43,sub_119,3,distance,cathedral,localisation_accuracy,3,4,babble,,,babble-reversed_n13_p256-eight-p318-five-p307-four-p245-three-p268-one-p284-nine.wav,84.34343352421322,30,-0.0851276365242265,0,RX81,1,0.0,0.0,2.0,0,0,5.829912023460411,2.3280017375946045
0,,2024-07-26 15:29:47,sub_119,3,distance,cathedral,localisation_accuracy,3,5,babble,,,babble-reversed_n13_p318-five-p256-nine-p307-two-p245-eight-p248-one-p284-four.wav,89.1864542887497,30,0.05323208439123128,3,RX81,4,0.0,0.0,5.0,0,0,8.95307917888563,2.484182357788086
0,,2024-07-26 15:29:50,sub_119,3,distance,cathedral,localisation_accuracy,3,6,babble,,,babble-reversed_n13_p307-five-p229-three-p318-nine-p245-four-p268-eight-p284-two.wav,87.571002827688,30,0.0007377286344228962,2,RX81,3,0.0,0.0,4.0,0,0,9.788856304985337,1.9373390674591064
0,,2024-07-26 15:29:53,sub_119,3,distance,cathedral,localisation_accuracy,3,7,babble,,,babble-reversed_n13_p318-five-p256-nine-p307-two-p245-eight-p248-one-p284-four.wav,89.63653202213598,30,0.4342081481607486,4,RX81,5,0.0,0.0,6.0,0,0,10.844574780058652,1.9842092990875244
0,,2024-07-26 15:29:56,sub_119,3,distance,cathedral,localisation_accuracy,3,8,babble,,,babble-reversed_n13_p256-three-p318-one-p307-two-p284-nine-p268-four-p245-eight.wav,86.10585325939311,30,-0.14305643612578656,1,RX81,2,0.0,0.0,3.0,0,0,8.439882697947215,2.031064033508301
0,,2024-07-26 15:29:59,sub_119,3,distance,cathedral,localisation_accuracy,3,9,babble,,,babble-reversed_n13_p318-nine-p256-five-p307-eight-p268-three-p248-one-p245-four.wav,92.02321474037305,30,0.011205011244208585,8,RX81,9,0.0,0.0,10.0,0,0,10.023460410557185,1.2655444145202637
0,,2024-07-26 15:30:01,sub_119,3,distance,cathedral,localisation_accuracy,3,10,babble,,,babble-reversed_n13_p256-three-p318-two-p229-nine-p248-four-p284-one-p268-eight.wav,90.54674037309891,30,0.2948859338762786,5,RX81,6,0.0,0.0,7.0,0,0,10.580645161290324,1.1405153274536133
0,,2024-07-26 15:30:04,sub_119,3,distance,cathedral,localisation_accuracy,3,11,babble,,,babble-reversed_n13_p256-five-p307-nine-p318-three-p284-eight-p268-one-p248-two.wav,91.44777544552613,30,-0.20051595788171306,6,RX81,7,0.0,0.0,8.0,0,0,9.407624633431086,1.5467486381530762
0,,2024-07-26 15:30:06,sub_119,3,distance,cathedral,localisation_accuracy,3,12,babble,,,babble-reversed_n13_p256-four-p307-eight-p318-two-p248-three-p284-nine-p268-one.wav,90.21112878123775,30,-0.18580625340142465,5,RX81,6,0.0,0.0,7.0,0,0,10.844574780058652,1.5467321872711182
0,,2024-07-26 15:30:09,sub_119,3,distance,cathedral,localisation_accuracy,3,13,babble,,,babble-reversed_n13_p318-five-p229-three-p256-four-p268-eight-p248-one-p245-nine.wav,92.35476735564413,30,0.49418118121790566,9,RX81,10,0.0,0.0,11.0,0,0,11.313782991202347,1.1249220371246338
0,,2024-07-26 15:30:11,sub_119,3,distance,cathedral,localisation_accuracy,3,14,babble,,,babble-reversed_n13_p229-five-p256-one-p318-three-p248-nine-p268-four-p284-eight.wav,87.24256578252405,30,-0.47105681207081007,2,RX81,3,0.0,0.0,4.0,0,0,10.331378299120235,1.2811079025268555
0,,2024-07-26 15:30:13,sub_119,3,distance,cathedral,localisation_accuracy,3,15,babble,,,babble-reversed_n13_p256-nine-p307-four-p229-one-p284-three-p248-two-p245-five.wav,93.32362783298562,30,0.4583918072698433,10,RX81,11,0.0,0.0,12.0,0,0,11.12316715542522,1.0780186653137207
0,,2024-07-26 15:30:15,sub_119,3,distance,cathedral,localisation_accuracy,3,16,babble,,,babble-reversed_n13_p307-one-p318-five-p229-four-p268-eight-p284-two-p245-three.wav,89.30515189408125,30,0.22308039387409595,3,RX81,4,0.0,0.0,5.0,0,0,11.152492668621703,1.2030513286590576
0,,2024-07-26 15:30:18,sub_119,3,distance,cathedral,localisation_accuracy,3,17,babble,,,babble-reversed_n13_p318-one-p307-two-p256-eight-p284-three-p248-five-p245-four.wav,86.30365789430178,30,0.1463822496077658,1,RX81,2,0.0,0.0,3.0,0,0,10.419354838709678,1.1092679500579834
0,,2024-07-26 15:30:21,sub_119,3,distance,cathedral,localisation_accuracy,3,18,babble,,,babble-reversed_n13_p256-four-p229-two-p318-five-p268-one-p248-eight-p245-three.wav,91.47105528798987,30,-0.36679861081589515,7,RX81,8,0.0,0.0,9.0,0,0,11.313782991202347,1.7811388969421387
0,,2024-07-26 15:30:24,sub_119,3,distance,cathedral,localisation_accuracy,3,19,babble,,,babble-reversed_n13_p256-four-p229-eight-p307-five-p248-three-p245-one-p284-two.wav,89.4124271784775,30,0.132141746746826,4,RX81,5,0.0,0.0,6.0,0,0,9.8475073313783,2.531048536300659
0,,2024-07-26 15:30:27,sub_119,3,distance,cathedral,localisation_accuracy,3,20,babble,,,babble-reversed_n13_p307-two-p256-four-p318-three-p284-eight-p248-five-p245-nine.wav,91.93866150945674,30,-0.10803674489122206,8,RX81,9,0.0,0.0,10.0,0,0,9.8475073313783,2.015439510345459
0,,2024-07-26 15:30:29,sub_119,3,distance,cathedral,localisation_accuracy,3,21,babble,,,babble-reversed_n13_p256-three-p318-two-p229-nine-p248-four-p284-one-p268-eight.wav,84.31358529296318,30,-0.1293394073085008,0,RX81,1,0.0,0.0,2.0,0,0,10.19941348973607,0.015584945678710938
0,,2024-07-26 15:30:30,sub_119,3,distance,cathedral,localisation_accuracy,3,22,babble,,,babble-reversed_n13_p256-eight-p318-two-p307-five-p245-four-p268-nine-p284-one.wav,89.50118978127546,30,0.251422833938598,4,RX81,5,0.0,0.0,6.0,0,0,6.768328445747802,0.4842994213104248
0,,2024-07-26 15:30:33,sub_119,3,distance,cathedral,localisation_accuracy,3,23,babble,,,babble-reversed_n13_p318-three-p307-one-p256-five-p248-nine-p245-two-p284-eight.wav,91.93899668669388,30,0.278686216584368,7,RX81,8,0.0,0.0,9.0,0,0,10.815249266862171,2.015439748764038
0,,2024-07-26 15:30:36,sub_119,3,distance,cathedral,localisation_accuracy,3,24,babble,,,babble-reversed_n13_p229-three-p256-nine-p318-five-p248-one-p245-eight-p284-two.wav,91.26298829920194,30,-0.46099723015375316,6,RX81,7,0.0,0.0,8.0,0,0,10.390029325513197,1.68735671043396
0,,2024-07-26 15:30:39,sub_119,3,distance,cathedral,localisation_accuracy,3,25,babble,,,babble-reversed_n13_p307-four-p318-three-p256-eight-p284-two-p245-nine-p248-five.wav,86.26367604961987,30,0.0876532220232793,1,RX81,2,0.0,0.0,3.0,0,0,10.82991202346041,1.8435728549957275
0,,2024-07-26 15:30:42,sub_119,3,distance,cathedral,localisation_accuracy,3,26,babble,,,babble-reversed_n13_p229-nine-p318-one-p307-two-p248-eight-p245-five-p284-four.wav,90.42609185776926,30,0.12119680420555035,5,RX81,6,0.0,0.0,7.0,0,0,8.821114369501467,1.6404786109924316
0,,2024-07-26 15:30:44,sub_119,3,distance,cathedral,localisation_accuracy,3,27,babble,,,babble-reversed_n13_p256-four-p229-eight-p307-five-p248-three-p245-one-p284-two.wav,92.13308759162148,30,0.17904382791522078,9,RX81,10,0.0,0.0,11.0,0,0,10.067448680351907,1.296729564666748
0,,2024-07-26 15:30:48,sub_119,3,distance,cathedral,localisation_accuracy,3,28,babble,,,babble-reversed_n13_p318-nine-p256-five-p307-eight-p268-three-p248-one-p245-four.wav,84.14275619385054,30,-0.38112052191161405,0,RX81,1,0.0,0.0,2.0,0,0,9.52492668621701,3.0153963565826416
0,,2024-07-26 15:30:51,sub_119,3,distance,cathedral,localisation_accuracy,3,29,babble,,,babble-reversed_n13_p229-eight-p256-nine-p318-four-p245-three-p268-five-p284-two.wav,92.09752560516398,30,0.11639506552290368,8,RX81,9,0.0,0.0,10.0,0,0,10.404692082111438,1.5623424053192139
0,,2024-07-26 15:30:54,sub_119,3,distance,cathedral,localisation_accuracy,3,30,babble,,,babble-reversed_n13_p256-four-p307-eight-p318-two-p248-three-p284-nine-p268-one.wav,93.15285128105086,30,0.21561001326163776,10,RX81,11,0.0,0.0,12.0,0,0,11.167155425219942,1.3280036449432373
0,,2024-07-26 15:30:56,sub_119,3,distance,cathedral,localisation_accuracy,3,31,babble,,,babble-reversed_n13_p307-two-p256-four-p318-three-p284-eight-p248-five-p245-nine.wav,88.84152594691656,30,-0.43493945211036644,3,RX81,4,0.0,0.0,5.0,0,0,10.17008797653959,1.562401294708252
0,,2024-07-26 15:30:58,sub_119,3,distance,cathedral,localisation_accuracy,3,32,babble,,,babble-reversed_n13_p318-five-p256-nine-p307-eight-p248-two-p245-four-p284-three.wav,87.47088023123545,30,-0.14387998332721508,2,RX81,3,0.0,0.0,4.0,0,0,10.683284457478006,0.9998979568481445
0,,2024-07-26 15:31:01,sub_119,3,distance,cathedral,localisation_accuracy,3,33,babble,,,babble-reversed_n13_p229-one-p318-nine-p256-four-p284-eight-p268-five-p245-two.wav,89.3769032187371,30,0.32621688588025477,3,RX81,4,0.0,0.0,5.0,0,0,11.0791788856305,1.2498650550842285
0,,2024-07-26 15:31:03,sub_119,3,distance,cathedral,localisation_accuracy,3,34,babble,,,babble-reversed_n13_p318-four-p256-five-p229-three-p284-one-p245-eight-p248-nine.wav,85.93593819352719,30,-0.38946572850311467,1,RX81,2,0.0,0.0,3.0,0,0,9.451612903225808,1.62485933303833
0,,2024-07-26 15:31:06,sub_119,3,distance,cathedral,localisation_accuracy,3,35,babble,,,babble-reversed_n13_p229-five-p318-two-p307-eight-p268-three-p248-four-p245-one.wav,89.52777629674826,30,0.28724217466231405,4,RX81,5,0.0,0.0,6.0,0,0,10.448680351906159,1.2655057907104492
0,,2024-07-26 15:31:09,sub_119,3,distance,cathedral,localisation_accuracy,3,36,babble,,,babble-reversed_n13_p318-five-p256-nine-p307-two-p245-eight-p248-one-p284-four.wav,91.75828780601731,30,-0.3608289664266595,8,RX81,9,0.0,0.0,10.0,0,0,10.75659824046921,2.3904311656951904
0,,2024-07-26 15:31:12,sub_119,3,distance,cathedral,localisation_accuracy,3,37,babble,,,babble-reversed_n13_p229-three-p307-one-p318-two-p245-eight-p268-five-p284-four.wav,91.5503572634907,30,-0.054923468731142844,6,RX81,7,0.0,0.0,8.0,0,0,8.557184750733139,1.4686121940612793
0,,2024-07-26 15:31:15,sub_119,3,distance,cathedral,localisation_accuracy,3,38,babble,,,babble-reversed_n13_p307-four-p318-three-p256-eight-p284-two-p245-nine-p248-five.wav,93.24014776930966,30,0.3394709356726252,10,RX81,11,0.0,0.0,12.0,0,0,8.087976539589443,2.390411615371704
0,,2024-07-26 15:31:18,sub_119,3,distance,cathedral,localisation_accuracy,3,39,babble,,,babble-reversed_n13_p307-two-p256-four-p318-three-p284-eight-p248-five-p245-nine.wav,90.11759133523876,30,-0.3184144095785162,5,RX81,6,0.0,0.0,7.0,0,0,9.583577712609971,1.281167984008789
0,,2024-07-26 15:31:20,sub_119,3,distance,cathedral,localisation_accuracy,3,40,babble,,,babble-reversed_n13_p318-three-p307-one-p256-five-p248-nine-p245-two-p284-eight.wav,91.90864248307327,30,-0.13670691925432377,9,RX81,10,0.0,0.0,11.0,0,0,9.612903225806452,1.1561198234558105
0,,2024-07-26 15:31:24,sub_119,3,distance,cathedral,localisation_accuracy,3,41,babble,,,babble-reversed_n13_p229-eight-p256-nine-p318-four-p245-three-p268-five-p284-two.wav,84.71798016956751,30,0.4752524010071769,0,RX81,1,0.0,0.0,2.0,0,0,7.618768328445748,2.24981689453125
0,,2024-07-26 15:31:26,sub_119,3,distance,cathedral,localisation_accuracy,3,42,babble,,,babble-reversed_n13_p229-three-p256-nine-p318-five-p248-one-p245-eight-p284-two.wav,91.72287913162745,30,-0.021158322008857144,7,RX81,8,0.0,0.0,9.0,0,0,8.469208211143696,1.5467407703399658
0,,2024-07-26 15:31:28,sub_119,3,distance,cathedral,localisation_accuracy,3,43,babble,,,babble-reversed_n13_p318-five-p229-four-p256-eight-p284-one-p245-three-p248-two.wav,87.40563630487173,30,-0.23774336351628378,2,RX81,3,0.0,0.0,4.0,0,0,7.560117302052786,1.124939203262329
0,,2024-07-26 15:31:31,sub_119,3,distance,cathedral,localisation_accuracy,3,44,babble,,,babble-reversed_n13_p229-five-p318-two-p307-eight-p268-three-p248-four-p245-one.wav,91.79741827831614,30,0.2986520160332148,6,RX81,7,0.0,0.0,8.0,0,0,9.950146627565983,1.5467338562011719
0,,2024-07-26 15:31:34,sub_119,3,distance,cathedral,localisation_accuracy,3,45,babble,,,babble-reversed_n13_p256-eight-p318-two-p307-five-p245-four-p268-nine-p284-one.wav,87.81578645190645,30,0.3572614720894315,2,RX81,3,0.0,0.0,4.0,0,0,9.099706744868035,1.4217197895050049
0,,2024-07-26 15:31:36,sub_119,3,distance,cathedral,localisation_accuracy,3,46,babble,,,babble-reversed_n13_p229-two-p307-five-p318-four-p284-one-p248-nine-p268-eight.wav,86.26333312925698,30,0.08715000408629148,1,RX81,2,0.0,0.0,3.0,0,0,9.55425219941349,1.4061250686645508
0,,2024-07-26 15:31:39,sub_119,3,distance,cathedral,localisation_accuracy,3,47,babble,,,babble-reversed_n13_p307-one-p318-five-p229-four-p268-eight-p284-two-p245-three.wav,89.03141887564502,30,-0.1671764488185824,3,RX81,4,0.0,0.0,5.0,0,0,8.850439882697948,1.499861240386963
0,,2024-07-26 15:31:41,sub_119,3,distance,cathedral,localisation_accuracy,3,48,babble,,,babble-reversed_n13_p256-five-p229-one-p318-three-p248-nine-p284-eight-p268-two.wav,93.27877880374568,30,0.3944446464980673,10,RX81,11,0.0,0.0,12.0,0,0,10.258064516129034,1.2811131477355957
0,,2024-07-26 15:31:44,sub_119,3,distance,cathedral,localisation_accuracy,3,49,babble,,,babble-reversed_n13_p307-two-p256-four-p318-three-p284-eight-p248-five-p245-nine.wav,89.61671975899011,30,0.4073820200597704,4,RX81,5,0.0,0.0,6.0,0,0,9.568914956011731,1.7029814720153809
0,,2024-07-26 15:31:46,sub_119,3,distance,cathedral,localisation_accuracy,3,50,babble,,,babble-reversed_n13_p318-five-p256-nine-p307-two-p245-eight-p248-one-p284-four.wav,91.71965756331329,30,-0.4146903512409589,8,RX81,9,0.0,0.0,10.0,0,0,10.4633431085044,1.3280043601989746
0,,2024-07-26 15:31:49,sub_119,3,distance,cathedral,localisation_accuracy,3,51,babble,,,babble-reversed_n13_p307-five-p229-three-p318-nine-p245-four-p268-eight-p284-two.wav,91.76215201426186,30,0.033107797585687826,7,RX81,8,0.0,0.0,9.0,0,0,10.80058651026393,1.546715259552002
0,,2024-07-26 15:31:52,sub_119,3,distance,cathedral,localisation_accuracy,3,52,babble,,,babble-reversed_n13_p307-four-p318-three-p256-eight-p284-two-p245-nine-p248-five.wav,91.79838935071348,30,-0.2905995648864911,9,RX81,10,0.0,0.0,11.0,0,0,9.407624633431086,1.406118392944336
0,,2024-07-26 15:31:56,sub_119,3,distance,cathedral,localisation_accuracy,3,53,babble,,,babble-reversed_n13_p229-nine-p318-one-p307-two-p248-eight-p245-five-p284-four.wav,84.07880388805842,30,-0.4748314357785872,0,RX81,1,0.0,0.0,2.0,0,0,4.085043988269795,3.093498706817627
0,,2024-07-26 15:31:59,sub_119,3,distance,cathedral,localisation_accuracy,3,54,babble,,,babble-reversed_n13_p318-five-p229-three-p256-four-p268-eight-p248-one-p245-nine.wav,90.5456383657872,30,0.29329492838143745,5,RX81,6,0.0,0.0,7.0,0,0,8.087976539589443,1.7342429161071777
0,,2024-07-26 15:32:52,sub_119,3,distance,cathedral,localisation_accuracy,4,0,babble,,,babble-reversed_n13_p256-nine-p307-four-p229-one-p284-three-p248-two-p245-five.wav,91.81077431967941,30,0.10042878592949389,7,RX81,8,0.0,0.0,9.0,0,0,9.480938416422289,2.9997501373291016
0,,2024-07-26 15:32:55,sub_119,3,distance,cathedral,localisation_accuracy,4,1,babble,,,babble-reversed_n13_p307-two-p256-four-p318-three-p284-eight-p248-five-p245-nine.wav,86.40468894925971,30,0.2952973343196167,1,RX81,2,0.0,0.0,3.0,0,0,7.545454545454547,1.5467400550842285
0,,2024-07-26 15:32:58,sub_119,3,distance,cathedral,localisation_accuracy,4,2,babble,,,babble-reversed_n13_p229-five-p256-one-p318-three-p248-nine-p268-four-p284-eight.wav,90.42952553969418,30,0.12612623877709628,5,RX81,6,0.0,0.0,7.0,0,0,8.982404692082111,1.5154926776885986
0,,2024-07-26 15:33:00,sub_119,3,distance,cathedral,localisation_accuracy,4,3,babble,,,babble-reversed_n13_p256-five-p229-one-p318-three-p248-nine-p284-eight-p268-two.wav,92.88267383393057,30,-0.16453703030598343,10,RX81,11,0.0,0.0,12.0,0,0,9.583577712609971,1.1561179161071777
0,,2024-07-26 15:33:03,sub_119,3,distance,cathedral,localisation_accuracy,4,4,babble,,,babble-reversed_n13_p318-five-p229-four-p256-eight-p284-one-p245-three-p248-two.wav,84.32205890157371,30,-0.11679478227415618,0,RX81,1,0.0,0.0,2.0,0,0,7.398826979472142,1.390495777130127
0,,2024-07-26 15:33:05,sub_119,3,distance,cathedral,localisation_accuracy,4,5,babble,,,babble-reversed_n13_p318-five-p229-three-p256-four-p268-eight-p248-one-p245-nine.wav,91.9003392607716,30,0.44717394035465685,6,RX81,7,0.0,0.0,8.0,0,0,8.659824046920821,0.9842925071716309
0,,2024-07-26 15:33:07,sub_119,3,distance,cathedral,localisation_accuracy,4,6,babble,,,babble-reversed_n13_p229-two-p307-five-p318-four-p284-one-p248-nine-p268-eight.wav,89.21794139005023,30,0.09819477369772622,3,RX81,4,0.0,0.0,5.0,0,0,9.466275659824047,1.0312066078186035
0,,2024-07-26 15:33:09,sub_119,3,distance,cathedral,localisation_accuracy,4,7,babble,,,babble-reversed_n13_p307-five-p229-two-p318-four-p248-three-p245-nine-p268-eight.wav,89.61042241050609,30,0.3988602606645961,4,RX81,5,0.0,0.0,6.0,0,0,8.645161290322582,1.4373977184295654
0,,2024-07-26 15:33:12,sub_119,3,distance,cathedral,localisation_accuracy,4,8,babble,,,babble-reversed_n13_p229-five-p256-three-p318-nine-p248-two-p284-four-p268-one.wav,92.05963218594796,30,0.06270940053469365,8,RX81,9,0.0,0.0,10.0,0,0,10.47800586510264,1.6717586517333984
0,,2024-07-26 15:33:15,sub_119,3,distance,cathedral,localisation_accuracy,4,9,babble,,,babble-reversed_n13_p318-three-p229-one-p256-eight-p245-five-p248-four-p284-nine.wav,92.02390321287346,30,0.02502774223769233,9,RX81,10,0.0,0.0,11.0,0,0,9.304985337243403,1.3436284065246582
0,,2024-07-26 15:33:17,sub_119,3,distance,cathedral,localisation_accuracy,4,10,babble,,,babble-reversed_n13_p229-five-p256-three-p318-nine-p248-two-p284-four-p268-one.wav,87.7933293153602,30,0.32437722136646585,2,RX81,3,0.0,0.0,4.0,0,0,8.410557184750735,1.3279812335968018
0,,2024-07-26 15:33:20,sub_119,3,distance,cathedral,localisation_accuracy,4,11,babble,,,babble-reversed_n13_p307-nine-p318-two-p256-one-p245-three-p268-four-p248-eight.wav,91.91463318488911,30,0.4678585344913866,6,RX81,7,0.0,0.0,8.0,0,0,9.979472140762464,1.3904998302459717
0,,2024-07-26 15:33:22,sub_119,3,distance,cathedral,localisation_accuracy,4,12,babble,,,babble-reversed_n13_p256-two-p307-five-p318-nine-p248-eight-p245-four-p284-one.wav,89.08186951544587,30,-0.09563050327592648,3,RX81,4,0.0,0.0,5.0,0,0,8.322580645161292,1.359252691268921
0,,2024-07-26 15:33:25,sub_119,3,distance,cathedral,localisation_accuracy,4,13,babble,,,babble-reversed_n13_p256-four-p307-eight-p318-two-p248-three-p284-nine-p268-one.wav,86.11177824745113,30,-0.1344271725556988,1,RX81,2,0.0,0.0,3.0,0,0,6.093841642228739,1.5779621601104736
0,,2024-07-26 15:33:28,sub_119,3,distance,cathedral,localisation_accuracy,4,14,babble,,,babble-reversed_n13_p229-three-p256-one-p307-two-p284-eight-p268-five-p248-nine.wav,87.91215462457747,30,0.4987798534629132,2,RX81,3,0.0,0.0,4.0,0,0,7.750733137829913,1.9998104572296143
0,,2024-07-26 15:33:30,sub_119,3,distance,cathedral,localisation_accuracy,4,15,babble,,,babble-reversed_n13_p229-five-p256-three-p318-nine-p248-two-p284-four-p268-one.wav,90.6490193020713,30,0.442913861094256,5,RX81,6,0.0,0.0,7.0,0,0,9.187683284457478,1.2030482292175293
0,,2024-07-26 15:33:33,sub_119,3,distance,cathedral,localisation_accuracy,4,16,babble,,,babble-reversed_n13_p318-five-p229-three-p256-four-p268-eight-p248-one-p245-nine.wav,91.88535252852034,30,-0.16928158898283152,9,RX81,10,0.0,0.0,11.0,0,0,8.527859237536658,1.515474557876587
0,,2024-07-26 15:33:35,sub_119,3,distance,cathedral,localisation_accuracy,4,17,babble,,,babble-reversed_n13_p307-four-p318-three-p256-eight-p284-two-p245-nine-p248-five.wav,91.6622882656844,30,-0.49449866892362815,8,RX81,9,0.0,0.0,10.0,0,0,10.008797653958945,1.1405155658721924
0,,2024-07-26 15:33:37,sub_119,3,distance,cathedral,localisation_accuracy,4,18,babble,,,babble-reversed_n13_p229-two-p318-eight-p256-three-p268-one-p248-nine-p284-five.wav,91.92931687734638,30,0.26519238121601696,7,RX81,8,0.0,0.0,9.0,0,0,9.334310850439884,1.2186377048492432
0,,2024-07-26 15:33:41,sub_119,3,distance,cathedral,localisation_accuracy,4,19,babble,,,babble-reversed_n13_p307-two-p229-one-p256-five-p248-nine-p284-three-p268-eight.wav,84.4368015495518,30,0.0535938146376711,0,RX81,1,0.0,0.0,2.0,0,0,3.8944281524926687,2.3904387950897217
0,,2024-07-26 15:33:44,sub_119,3,distance,cathedral,localisation_accuracy,4,20,babble,,,babble-reversed_n13_p256-four-p229-two-p318-five-p268-one-p248-eight-p245-three.wav,89.17534826404079,30,-0.1841493172257831,4,RX81,5,0.0,0.0,6.0,0,0,7.8240469208211145,1.9060726165771484
0,,2024-07-26 15:33:47,sub_119,3,distance,cathedral,localisation_accuracy,4,21,babble,,,babble-reversed_n13_p229-two-p318-eight-p256-three-p268-one-p248-nine-p284-five.wav,92.69975842630942,30,-0.4191852382628407,10,RX81,11,0.0,0.0,12.0,0,0,9.55425219941349,1.59360933303833
0,,2024-07-26 15:33:49,sub_119,3,distance,cathedral,localisation_accuracy,4,22,babble,,,babble-reversed_n13_p318-nine-p256-five-p307-eight-p268-three-p248-one-p245-four.wav,85.98228760450041,30,-0.3224526464958264,1,RX81,2,0.0,0.0,3.0,0,0,8.87976539589443,1.1873865127563477
0,,2024-07-26 15:33:51,sub_119,3,distance,cathedral,localisation_accuracy,4,23,babble,,,babble-reversed_n13_p229-nine-p318-one-p307-two-p248-eight-p245-five-p284-four.wav,91.57502662577025,30,-0.22457861607815977,7,RX81,8,0.0,0.0,9.0,0,0,10.50733137829912,1.3280038833618164
0,,2024-07-26 15:33:54,sub_119,3,distance,cathedral,localisation_accuracy,4,24,babble,,,babble-reversed_n13_p229-three-p256-nine-p318-five-p248-one-p245-eight-p284-two.wav,92.23814839162304,30,0.32798896918360276,9,RX81,10,0.0,0.0,11.0,0,0,10.917888563049853,1.343623399734497
0,,2024-07-26 15:33:56,sub_119,3,distance,cathedral,localisation_accuracy,4,25,babble,,,babble-reversed_n13_p256-three-p318-one-p307-two-p284-nine-p268-four-p245-eight.wav,91.88656340191562,30,0.4272523218956623,6,RX81,7,0.0,0.0,8.0,0,0,9.451612903225808,1.1717395782470703
0,,2024-07-26 15:33:58,sub_119,3,distance,cathedral,localisation_accuracy,4,26,babble,,,babble-reversed_n13_p229-nine-p307-five-p256-two-p248-three-p245-one-p268-eight.wav,89.04760631511175,30,-0.353193433369281,4,RX81,5,0.0,0.0,6.0,0,0,10.111436950146627,1.03114652633667
0,,2024-07-26 15:34:01,sub_119,3,distance,cathedral,localisation_accuracy,4,27,babble,,,babble-reversed_n13_p256-eight-p318-two-p307-five-p245-four-p268-nine-p284-one.wav,92.93662500120553,30,-0.08901036815242325,10,RX81,11,0.0,0.0,12.0,0,0,8.87976539589443,1.1718230247497559
0,,2024-07-26 15:34:04,sub_119,3,distance,cathedral,localisation_accuracy,4,28,babble,,,babble-reversed_n13_p307-four-p318-three-p256-eight-p284-two-p245-nine-p248-five.wav,92.10308424012844,30,0.12427834471047305,8,RX81,9,0.0,0.0,10.0,0,0,9.466275659824047,2.0467636585235596
0,,2024-07-26 15:34:08,sub_119,3,distance,cathedral,localisation_accuracy,4,29,babble,,,babble-reversed_n13_p229-three-p256-one-p307-two-p284-eight-p268-five-p248-nine.wav,84.60320443431127,30,0.30242353309675885,0,RX81,1,0.0,0.0,2.0,0,0,2.5014662756598245,3.046618700027466
0,,2024-07-26 15:34:13,sub_119,3,distance,cathedral,localisation_accuracy,4,30,babble,,,babble-reversed_n13_p229-two-p256-three-p318-eight-p284-five-p268-four-p245-one.wav,88.88357356829124,30,-0.3758571336914389,3,RX81,4,0.0,0.0,5.0,0,0,7.589442815249267,3.968445301055908
0,,2024-07-26 15:34:16,sub_119,3,distance,cathedral,localisation_accuracy,4,31,babble,,,babble-reversed_n13_p307-one-p318-five-p229-four-p268-eight-p284-two-p245-three.wav,87.32642611752854,30,-0.3513028316149822,2,RX81,3,0.0,0.0,4.0,0,0,9.099706744868035,2.015495538711548
0,,2024-07-26 15:34:19,sub_119,3,distance,cathedral,localisation_accuracy,4,32,babble,,,babble-reversed_n13_p256-five-p229-one-p318-three-p248-nine-p284-eight-p268-two.wav,90.45412495909218,30,0.16146505766715924,5,RX81,6,0.0,0.0,7.0,0,0,10.18475073313783,1.5935862064361572
0,,2024-07-26 15:34:22,sub_119,3,distance,cathedral,localisation_accuracy,4,33,babble,,,babble-reversed_n13_p256-eight-p318-five-p307-four-p245-three-p268-one-p284-nine.wav,84.21225452575436,30,-0.27894560512603683,0,RX81,1,0.0,0.0,2.0,0,0,9.51026392961877,2.2341976165771484
0,,2024-07-26 15:34:25,sub_119,3,distance,cathedral,localisation_accuracy,4,34,babble,,,babble-reversed_n13_p307-one-p318-five-p229-four-p268-eight-p284-two-p245-three.wav,87.65716897280193,30,0.12575736750912536,2,RX81,3,0.0,0.0,4.0,0,0,7.926686217008799,1.7342605590820312
0,,2024-07-26 15:34:27,sub_119,3,distance,cathedral,localisation_accuracy,4,35,babble,,,babble-reversed_n13_p307-two-p229-one-p256-five-p248-nine-p284-three-p268-eight.wav,89.10540732237816,30,-0.062191980420077564,3,RX81,4,0.0,0.0,5.0,0,0,9.055718475073315,1.2342371940612793
0,,2024-07-26 15:34:30,sub_119,3,distance,cathedral,localisation_accuracy,4,36,babble,,,babble-reversed_n13_p256-four-p307-eight-p318-two-p248-three-p284-nine-p268-one.wav,92.0934559595849,30,0.12304810330912563,9,RX81,10,0.0,0.0,11.0,0,0,10.272727272727273,1.4685990810394287
0,,2024-07-26 15:34:33,sub_119,3,distance,cathedral,localisation_accuracy,4,37,babble,,,babble-reversed_n13_p229-five-p318-two-p307-eight-p268-three-p248-four-p245-one.wav,90.17700055086172,30,-0.23425839660047598,5,RX81,6,0.0,0.0,7.0,0,0,9.891495601173022,1.7655117511749268
0,,2024-07-26 15:34:36,sub_119,3,distance,cathedral,localisation_accuracy,4,38,babble,,,babble-reversed_n13_p318-five-p256-nine-p307-two-p245-eight-p248-one-p284-four.wav,93.34742329077204,30,0.4923747312819391,10,RX81,11,0.0,0.0,12.0,0,0,10.067448680351907,2.312296152114868
0,,2024-07-26 15:34:39,sub_119,3,distance,cathedral,localisation_accuracy,4,39,babble,,,babble-reversed_n13_p229-five-p256-one-p318-three-p248-nine-p268-four-p284-eight.wav,91.61387545228143,30,0.03558309615879318,6,RX81,7,0.0,0.0,8.0,0,0,9.686217008797655,1.1717774868011475
0,,2024-07-26 15:34:41,sub_119,3,distance,cathedral,localisation_accuracy,4,40,babble,,,babble-reversed_n13_p318-four-p256-five-p229-three-p284-one-p245-eight-p248-nine.wav,91.77901271188541,30,0.05643554439292009,7,RX81,8,0.0,0.0,9.0,0,0,8.27859237536657,1.3592298030853271
0,,2024-07-26 15:34:44,sub_119,3,distance,cathedral,localisation_accuracy,4,41,babble,,,babble-reversed_n13_p318-four-p256-five-p229-three-p284-one-p245-eight-p248-nine.wav,92.1554932995856,30,0.19870661155493685,8,RX81,9,0.0,0.0,10.0,0,0,9.671554252199414,1.2030107975006104
0,,2024-07-26 15:34:46,sub_119,3,distance,cathedral,localisation_accuracy,4,42,babble,,,babble-reversed_n13_p318-nine-p256-five-p307-eight-p268-three-p248-one-p245-four.wav,86.48736864493978,30,0.41771051706334805,1,RX81,2,0.0,0.0,3.0,0,0,7.252199413489736,1.8123414516448975
0,,2024-07-26 15:34:50,sub_119,3,distance,cathedral,localisation_accuracy,4,43,babble,,,babble-reversed_n13_p318-five-p229-three-p256-four-p268-eight-p248-one-p245-nine.wav,89.26522948113173,30,-0.06462988355697785,4,RX81,5,0.0,0.0,6.0,0,0,6.988269794721408,2.218545436859131
0,,2024-07-26 15:34:52,sub_119,3,distance,cathedral,localisation_accuracy,4,44,babble,,,babble-reversed_n13_p256-three-p318-one-p307-two-p284-nine-p268-four-p245-eight.wav,91.70787596824023,30,-0.4310977106307249,8,RX81,9,0.0,0.0,10.0,0,0,8.60117302052786,1.4529728889465332
0,,2024-07-26 15:34:55,sub_119,3,distance,cathedral,localisation_accuracy,4,45,babble,,,babble-reversed_n13_p229-five-p256-one-p318-three-p248-nine-p268-four-p284-eight.wav,87.32815074610963,30,-0.3488349428746286,2,RX81,3,0.0,0.0,4.0,0,0,6.255131964809385,1.4373931884765625
0,,2024-07-26 15:34:57,sub_119,3,distance,cathedral,localisation_accuracy,4,46,babble,,,babble-reversed_n13_p229-one-p318-nine-p256-four-p284-eight-p268-five-p245-two.wav,89.11719423139238,30,-0.045433092383407536,3,RX81,4,0.0,0.0,5.0,0,0,8.703812316715544,1.265479326248169
0,,2024-07-26 15:35:00,sub_119,3,distance,cathedral,localisation_accuracy,4,47,babble,,,babble-reversed_n13_p229-eight-p256-nine-p318-four-p245-three-p268-five-p284-two.wav,91.71508899134788,30,-0.03191085039652919,7,RX81,8,0.0,0.0,9.0,0,0,9.671554252199414,1.4061203002929688
0,,2024-07-26 15:35:02,sub_119,3,distance,cathedral,localisation_accuracy,4,48,babble,,,babble-reversed_n13_p229-one-p318-nine-p256-four-p284-eight-p268-five-p245-two.wav,90.20082225220888,30,-0.20044682834560257,5,RX81,6,0.0,0.0,7.0,0,0,8.30791788856305,1.171741247177124
0,,2024-07-26 15:35:04,sub_119,3,distance,cathedral,localisation_accuracy,4,49,babble,,,babble-reversed_n13_p229-three-p307-one-p318-two-p245-eight-p268-five-p284-four.wav,89.30082219426612,30,-0.017168198410449143,4,RX81,5,0.0,0.0,6.0,0,0,7.706744868035191,1.1561384201049805
0,,2024-07-26 15:35:07,sub_119,3,distance,cathedral,localisation_accuracy,4,50,babble,,,babble-reversed_n13_p229-two-p307-five-p318-four-p284-one-p248-nine-p268-eight.wav,93.21916941556064,30,0.309659458168164,10,RX81,11,0.0,0.0,12.0,0,0,9.51026392961877,1.952965497970581
0,,2024-07-26 15:35:11,sub_119,3,distance,cathedral,localisation_accuracy,4,51,babble,,,babble-reversed_n13_p229-three-p256-nine-p318-five-p248-one-p245-eight-p284-two.wav,91.85056858777111,30,-0.2178662577002599,9,RX81,10,0.0,0.0,11.0,0,0,9.964809384164223,2.734138011932373
0,,2024-07-26 15:35:15,sub_119,3,distance,cathedral,localisation_accuracy,4,52,babble,,,babble-reversed_n13_p229-nine-p318-one-p307-two-p248-eight-p245-five-p284-four.wav,91.58254576885213,30,-0.009092458004657966,6,RX81,7,0.0,0.0,8.0,0,0,9.129032258064516,2.2341787815093994
0,,2024-07-26 15:35:22,sub_119,3,distance,cathedral,localisation_accuracy,4,53,babble,,,babble-reversed_n13_p256-four-p307-eight-p318-two-p248-three-p284-nine-p268-one.wav,84.34901377053015,30,-0.07685481135128525,0,RX81,1,0.0,0.0,2.0,0,0,2.0762463343108504,5.765231370925903
0,,2024-07-26 15:35:24,sub_119,3,distance,cathedral,localisation_accuracy,4,54,babble,,,babble-reversed_n13_p229-three-p256-one-p307-two-p284-eight-p268-five-p248-nine.wav,86.14282110640028,30,-0.08917499017685915,1,RX81,2,0.0,0.0,3.0,0,0,3.747800586510264,1.4842422008514404
