event_id,timestamp,subject_id,session_index,plane,setup,task,block,trial_index,headpose_offset_azi,headpose_offset_ele,target_number,target_filename,target_talker,target_sex,target_speaker_id,step_number:,distance_masker,distance_target,target_speaker_proc,target_speaker_chan,target_speaker_azi,target_speaker_ele,target_speaker_dist,target_stim_level,masker_filename,masker_speaker_id,masker_speaker_proc,masker_speaker_chan,masker_speaker_azi,masker_speaker_ele,masker_speaker_dist,masker_stim_level,normalisation_method,normalisation_level_masker,normalisation_level_target,played_number,resp_number,is_correct,reaction_time
,2024-07-11 10:05:45,sub_108,3,distance,cathedral,spatial_unmasking,1,0,0,0,_five_,talker-p284_sex-f_text-_five_.wav,p284,f,5,1,7.0,7.0,RX81,6,0.0,0.0,7.0,92.34149293193902,babble-reversed_n13_p307-five-p229-two-p318-four-p248-three-p245-nine-p268-eight.wav,5,RX81,6,0.0,0.0,7.0,90.341492931939,mgb_normalisation,90.34149293193902,90.34149293193902,5,5.0,True,1.8748679161071773
,2024-07-11 10:05:49,sub_108,3,distance,cathedral,spatial_unmasking,1,1,0,0,_three_,talker-p284_sex-f_text-_three_.wav,p284,f,5,2,7.0,7.0,RX81,6,0.0,0.0,7.0,88.34149293193903,babble-reversed_n13_p229-three-p256-one-p307-two-p284-eight-p268-five-p248-nine.wav,5,RX81,6,0.0,0.0,7.0,90.34149293193904,mgb_normalisation,90.34149293193902,90.34149293193902,3,3.0,True,1.4998931884765625
,2024-07-11 10:05:54,sub_108,3,distance,cathedral,spatial_unmasking,1,2,0,0,_five_,talker-p284_sex-f_text-_five_.wav,p284,f,5,3,7.0,7.0,RX81,6,0.0,0.0,7.0,84.341492931939,babble-reversed_n13_p307-two-p229-one-p256-five-p248-nine-p284-three-p268-eight.wav,5,RX81,6,0.0,0.0,7.0,90.34149293193904,mgb_normalisation,90.34149293193902,90.34149293193902,5,9.0,False,2.624814748764038
,2024-07-11 10:05:59,sub_108,3,distance,cathedral,spatial_unmasking,1,3,0,0,_one_,talker-p284_sex-f_text-_one_.wav,p284,f,5,4,7.0,7.0,RX81,6,0.0,0.0,7.0,86.34149293193902,babble-reversed_n13_p256-four-p229-two-p318-five-p268-one-p248-eight-p245-three.wav,5,RX81,6,0.0,0.0,7.0,90.341492931939,mgb_normalisation,90.34149293193902,90.34149293193902,1,1.0,True,3.1872751712799072
,2024-07-11 10:06:03,sub_108,3,distance,cathedral,spatial_unmasking,1,4,0,0,_nine_,talker-p284_sex-f_text-_nine_.wav,p284,f,5,5,7.0,7.0,RX81,6,0.0,0.0,7.0,86.341492931939,babble-reversed_n13_p229-three-p256-one-p307-two-p284-eight-p268-five-p248-nine.wav,5,RX81,6,0.0,0.0,7.0,90.34149293193904,mgb_normalisation,90.34149293193902,90.34149293193902,9,9.0,True,1.74987530708313
,2024-07-11 10:06:08,sub_108,3,distance,cathedral,spatial_unmasking,1,5,0,0,_three_,talker-p284_sex-f_text-_three_.wav,p284,f,5,6,7.0,7.0,RX81,6,0.0,0.0,7.0,84.34149293193903,babble-reversed_n13_p318-four-p256-five-p229-three-p284-one-p245-eight-p248-nine.wav,5,RX81,6,0.0,0.0,7.0,90.34149293193904,mgb_normalisation,90.34149293193902,90.34149293193902,3,3.0,True,2.124850273132324
,2024-07-11 10:06:14,sub_108,3,distance,cathedral,spatial_unmasking,1,6,0,0,_three_,talker-p284_sex-f_text-_three_.wav,p284,f,5,7,7.0,7.0,RX81,6,0.0,0.0,7.0,84.34149293193903,babble-reversed_n13_p318-four-p256-five-p229-three-p284-one-p245-eight-p248-nine.wav,5,RX81,6,0.0,0.0,7.0,90.34149293193904,mgb_normalisation,90.34149293193902,90.34149293193902,3,3.0,True,3.812291622161865
,2024-07-11 10:06:20,sub_108,3,distance,cathedral,spatial_unmasking,1,7,0,0,_two_,talker-p284_sex-f_text-_two_.wav,p284,f,5,8,7.0,7.0,RX81,6,0.0,0.0,7.0,82.34149293193902,babble-reversed_n13_p229-two-p256-three-p318-eight-p284-five-p268-four-p245-one.wav,5,RX81,6,0.0,0.0,7.0,90.34149293193904,mgb_normalisation,90.34149293193902,90.34149293193902,2,2.0,True,3.4997451305389404
,2024-07-11 10:06:24,sub_108,3,distance,cathedral,spatial_unmasking,1,8,0,0,_two_,talker-p284_sex-f_text-_two_.wav,p284,f,5,9,7.0,7.0,RX81,6,0.0,0.0,7.0,82.34149293193902,babble-reversed_n13_p318-one-p307-two-p256-eight-p284-three-p248-five-p245-four.wav,5,RX81,6,0.0,0.0,7.0,90.34149293193904,mgb_normalisation,90.34149293193902,90.34149293193902,2,2.0,True,1.937380075454712
,2024-07-11 10:06:29,sub_108,3,distance,cathedral,spatial_unmasking,1,9,0,0,_two_,talker-p284_sex-f_text-_two_.wav,p284,f,5,10,7.0,7.0,RX81,6,0.0,0.0,7.0,80.34149293193903,babble-reversed_n13_p256-eight-p318-five-p307-four-p245-three-p268-one-p284-nine.wav,5,RX81,6,0.0,0.0,7.0,90.341492931939,mgb_normalisation,90.34149293193902,90.34149293193902,2,2.0,True,2.562318563461304
,2024-07-11 10:06:34,sub_108,3,distance,cathedral,spatial_unmasking,1,10,0,0,_one_,talker-p284_sex-f_text-_one_.wav,p284,f,5,11,7.0,7.0,RX81,6,0.0,0.0,7.0,80.34149293193903,babble-reversed_n13_p318-three-p307-one-p256-five-p248-nine-p245-two-p284-eight.wav,5,RX81,6,0.0,0.0,7.0,90.34149293193904,mgb_normalisation,90.34149293193902,90.34149293193902,1,8.0,False,3.4371912479400635
,2024-07-11 10:06:39,sub_108,3,distance,cathedral,spatial_unmasking,1,11,0,0,_one_,talker-p284_sex-f_text-_one_.wav,p284,f,5,12,7.0,7.0,RX81,6,0.0,0.0,7.0,81.34149293193902,babble-reversed_n13_p318-five-p229-three-p256-four-p268-eight-p248-one-p245-nine.wav,5,RX81,6,0.0,0.0,7.0,90.34149293193904,mgb_normalisation,90.34149293193902,90.34149293193902,1,1.0,True,1.8173890113830569
,2024-07-11 10:06:45,sub_108,3,distance,cathedral,spatial_unmasking,1,12,0,0,_four_,talker-p284_sex-f_text-_four_.wav,p284,f,5,13,7.0,7.0,RX81,6,0.0,0.0,7.0,81.341492931939,babble-reversed_n13_p318-five-p256-nine-p307-eight-p248-two-p245-four-p284-three.wav,5,RX81,6,0.0,0.0,7.0,90.34149293193904,mgb_normalisation,90.34149293193902,90.34149293193902,4,8.0,False,4.500555038452148
,2024-07-11 10:06:52,sub_108,3,distance,cathedral,spatial_unmasking,1,13,0,0,_six_,talker-p284_sex-f_text-_six_.wav,p284,f,5,14,7.0,7.0,RX81,6,0.0,0.0,7.0,82.34149293193902,babble-reversed_n13_p229-nine-p256-four-p318-three-p268-eight-p248-two-p284-five.wav,5,RX81,6,0.0,0.0,7.0,90.34149293193904,mgb_normalisation,90.34149293193902,90.34149293193902,6,6.0,True,4.37469220161438
,2024-07-11 10:06:59,sub_108,3,distance,cathedral,spatial_unmasking,1,14,0,0,_nine_,talker-p284_sex-f_text-_nine_.wav,p284,f,5,15,7.0,7.0,RX81,6,0.0,0.0,7.0,82.34149293193902,babble-reversed_n13_p318-five-p229-three-p256-four-p268-eight-p248-one-p245-nine.wav,5,RX81,6,0.0,0.0,7.0,90.34149293193904,mgb_normalisation,90.34149293193902,90.34149293193902,9,9.0,True,4.124708414077759
,2024-07-11 10:07:02,sub_108,3,distance,cathedral,spatial_unmasking,1,15,0,0,_five_,talker-p284_sex-f_text-_five_.wav,p284,f,5,16,7.0,7.0,RX81,6,0.0,0.0,7.0,81.34149293193902,babble-reversed_n13_p256-eight-p229-three-p307-nine-p245-five-p248-four-p268-two.wav,5,RX81,6,0.0,0.0,7.0,90.341492931939,mgb_normalisation,90.34149293193902,90.34149293193902,5,5.0,True,1.4373385906219482
,2024-07-11 10:07:07,sub_108,3,distance,cathedral,spatial_unmasking,1,16,0,0,_three_,talker-p284_sex-f_text-_three_.wav,p284,f,5,17,7.0,7.0,RX81,6,0.0,0.0,7.0,81.34149293193902,babble-reversed_n13_p307-two-p256-four-p318-three-p284-eight-p248-five-p245-nine.wav,5,RX81,6,0.0,0.0,7.0,90.34149293193904,mgb_normalisation,90.34149293193902,90.34149293193902,3,3.0,True,2.374896287918091
,2024-07-11 10:07:12,sub_108,3,distance,cathedral,spatial_unmasking,1,17,0,0,_five_,talker-p284_sex-f_text-_five_.wav,p284,f,5,18,7.0,7.0,RX81,6,0.0,0.0,7.0,80.34149293193903,babble-reversed_n13_p318-five-p229-three-p256-four-p268-eight-p248-one-p245-nine.wav,5,RX81,6,0.0,0.0,7.0,90.34149293193904,mgb_normalisation,90.34149293193902,90.34149293193902,5,5.0,True,2.312335968017578
,2024-07-11 10:07:17,sub_108,3,distance,cathedral,spatial_unmasking,1,18,0,0,_four_,talker-p284_sex-f_text-_four_.wav,p284,f,5,19,7.0,7.0,RX81,6,0.0,0.0,7.0,80.341492931939,babble-reversed_n13_p229-five-p256-one-p318-three-p248-nine-p268-four-p284-eight.wav,5,RX81,6,0.0,0.0,7.0,90.341492931939,mgb_normalisation,90.34149293193902,90.34149293193902,4,6.0,False,3.4371936321258545
,2024-07-11 10:07:21,sub_108,3,distance,cathedral,spatial_unmasking,1,19,0,0,_three_,talker-p284_sex-f_text-_three_.wav,p284,f,5,20,7.0,7.0,RX81,6,0.0,0.0,7.0,81.34149293193902,babble-reversed_n13_p229-three-p307-one-p318-two-p245-eight-p268-five-p284-four.wav,5,RX81,6,0.0,0.0,7.0,90.34149293193904,mgb_normalisation,90.34149293193902,90.34149293193902,3,3.0,True,1.687380313873291
,2024-07-11 10:07:25,sub_108,3,distance,cathedral,spatial_unmasking,1,20,0,0,_one_,talker-p284_sex-f_text-_one_.wav,p284,f,5,21,7.0,7.0,RX81,6,0.0,0.0,7.0,81.34149293193902,babble-reversed_n13_p229-three-p256-one-p307-two-p284-eight-p268-five-p248-nine.wav,5,RX81,6,0.0,0.0,7.0,90.34149293193904,mgb_normalisation,90.34149293193902,90.34149293193902,1,1.0,True,1.3124151229858398
,2024-07-11 10:07:29,sub_108,3,distance,cathedral,spatial_unmasking,1,21,0,0,_six_,talker-p284_sex-f_text-_six_.wav,p284,f,5,22,7.0,7.0,RX81,6,0.0,0.0,7.0,80.341492931939,babble-reversed_n13_p256-five-p229-one-p318-three-p248-nine-p284-eight-p268-two.wav,5,RX81,6,0.0,0.0,7.0,90.34149293193904,mgb_normalisation,90.34149293193902,90.34149293193902,6,6.0,True,1.4998939037322998
,2024-07-11 10:07:34,sub_108,3,distance,cathedral,spatial_unmasking,1,22,0,0,_nine_,talker-p284_sex-f_text-_nine_.wav,p284,f,5,23,7.0,7.0,RX81,6,0.0,0.0,7.0,80.341492931939,babble-reversed_n13_p256-four-p229-eight-p307-five-p248-three-p245-one-p284-two.wav,5,RX81,6,0.0,0.0,7.0,90.341492931939,mgb_normalisation,90.34149293193902,90.34149293193902,9,9.0,True,2.7498044967651367
,2024-07-11 10:07:38,sub_108,3,distance,cathedral,spatial_unmasking,1,23,0,0,_nine_,talker-p284_sex-f_text-_nine_.wav,p284,f,5,24,7.0,7.0,RX81,6,0.0,0.0,7.0,79.341492931939,babble-reversed_n13_p229-five-p256-one-p318-three-p248-nine-p268-four-p284-eight.wav,5,RX81,6,0.0,0.0,7.0,90.341492931939,mgb_normalisation,90.34149293193902,90.34149293193902,9,9.0,True,1.6873817443847656
,2024-07-11 10:07:41,sub_108,3,distance,cathedral,spatial_unmasking,1,24,0,0,_five_,talker-p284_sex-f_text-_five_.wav,p284,f,5,25,7.0,7.0,RX81,6,0.0,0.0,7.0,79.34149293193902,babble-reversed_n13_p318-five-p229-four-p256-eight-p284-one-p245-three-p248-two.wav,5,RX81,6,0.0,0.0,7.0,90.34149293193904,mgb_normalisation,90.34149293193902,90.34149293193902,5,5.0,True,1.3749020099639893
,2024-07-11 10:07:45,sub_108,3,distance,cathedral,spatial_unmasking,1,25,0,0,_three_,talker-p284_sex-f_text-_three_.wav,p284,f,5,26,7.0,7.0,RX81,6,0.0,0.0,7.0,78.34149293193902,babble-reversed_n13_p307-nine-p318-two-p256-one-p245-three-p268-four-p248-eight.wav,5,RX81,6,0.0,0.0,7.0,90.341492931939,mgb_normalisation,90.34149293193902,90.34149293193902,3,3.0,True,1.3749022483825684
,2024-07-11 10:07:50,sub_108,3,distance,cathedral,spatial_unmasking,1,26,0,0,_three_,talker-p284_sex-f_text-_three_.wav,p284,f,5,27,7.0,7.0,RX81,6,0.0,0.0,7.0,78.34149293193902,babble-reversed_n13_p229-five-p256-three-p318-nine-p248-two-p284-four-p268-one.wav,5,RX81,6,0.0,0.0,7.0,90.34149293193904,mgb_normalisation,90.34149293193902,90.34149293193902,3,3.0,True,2.749833345413208
,2024-07-11 10:07:54,sub_108,3,distance,cathedral,spatial_unmasking,1,27,0,0,_six_,talker-p284_sex-f_text-_six_.wav,p284,f,5,28,7.0,7.0,RX81,6,0.0,0.0,7.0,77.341492931939,babble-reversed_n13_p229-nine-p307-five-p256-two-p248-three-p245-one-p268-eight.wav,5,RX81,6,0.0,0.0,7.0,90.34149293193904,mgb_normalisation,90.34149293193902,90.34149293193902,6,6.0,True,1.4373986721038818
,2024-07-11 10:07:58,sub_108,3,distance,cathedral,spatial_unmasking,1,28,0,0,_five_,talker-p284_sex-f_text-_five_.wav,p284,f,5,29,7.0,7.0,RX81,6,0.0,0.0,7.0,77.34149293193902,babble-reversed_n13_p318-five-p256-nine-p307-two-p245-eight-p248-one-p284-four.wav,5,RX81,6,0.0,0.0,7.0,90.34149293193904,mgb_normalisation,90.34149293193902,90.34149293193902,5,5.0,True,1.6873810291290283
,2024-07-11 10:08:03,sub_108,3,distance,cathedral,spatial_unmasking,1,29,0,0,_eight_,talker-p284_sex-f_text-_eight_.wav,p284,f,5,30,7.0,7.0,RX81,6,0.0,0.0,7.0,76.34149293193902,babble-reversed_n13_p256-three-p318-two-p229-nine-p248-four-p284-one-p268-eight.wav,5,RX81,6,0.0,0.0,7.0,90.341492931939,mgb_normalisation,90.34149293193902,90.34149293193902,8,9.0,False,3.4372575283050537
,2024-07-11 10:08:07,sub_108,3,distance,cathedral,spatial_unmasking,1,30,0,0,_nine_,talker-p284_sex-f_text-_nine_.wav,p284,f,5,31,7.0,7.0,RX81,6,0.0,0.0,7.0,77.341492931939,babble-reversed_n13_p229-one-p318-eight-p256-three-p268-nine-p248-five-p284-four.wav,5,RX81,6,0.0,0.0,7.0,90.341492931939,mgb_normalisation,90.34149293193902,90.34149293193902,9,9.0,True,1.5623881816864014
,2024-07-11 10:08:11,sub_108,3,distance,cathedral,spatial_unmasking,1,31,0,0,_eight_,talker-p284_sex-f_text-_eight_.wav,p284,f,5,32,7.0,7.0,RX81,6,0.0,0.0,7.0,77.341492931939,babble-reversed_n13_p256-three-p318-two-p229-nine-p248-four-p284-one-p268-eight.wav,5,RX81,6,0.0,0.0,7.0,90.341492931939,mgb_normalisation,90.34149293193902,90.34149293193902,8,6.0,False,1.4373843669891355
,2024-07-11 10:08:15,sub_108,3,distance,cathedral,spatial_unmasking,1,32,0,0,_six_,talker-p284_sex-f_text-_six_.wav,p284,f,5,33,7.0,7.0,RX81,6,0.0,0.0,7.0,78.34149293193902,babble-reversed_n13_p256-four-p229-two-p318-five-p268-one-p248-eight-p245-three.wav,5,RX81,6,0.0,0.0,7.0,90.341492931939,mgb_normalisation,90.34149293193902,90.34149293193902,6,6.0,True,1.187389850616455
,2024-07-11 10:08:18,sub_108,3,distance,cathedral,spatial_unmasking,1,33,0,0,_two_,talker-p284_sex-f_text-_two_.wav,p284,f,5,34,7.0,7.0,RX81,6,0.0,0.0,7.0,78.34149293193902,babble-reversed_n13_p256-five-p229-one-p318-three-p248-nine-p284-eight-p268-two.wav,5,RX81,6,0.0,0.0,7.0,90.34149293193904,mgb_normalisation,90.34149293193902,90.34149293193902,2,3.0,False,1.6248865127563477
,2024-07-11 10:08:22,sub_108,3,distance,cathedral,spatial_unmasking,1,34,0,0,_six_,talker-p284_sex-f_text-_six_.wav,p284,f,5,35,7.0,7.0,RX81,6,0.0,0.0,7.0,79.341492931939,babble-reversed_n13_p318-four-p256-five-p229-three-p284-one-p245-eight-p248-nine.wav,5,RX81,6,0.0,0.0,7.0,90.34149293193904,mgb_normalisation,90.34149293193902,90.34149293193902,6,6.0,True,1.4373984336853027
,2024-07-11 10:08:26,sub_108,3,distance,cathedral,spatial_unmasking,1,35,0,0,_six_,talker-p284_sex-f_text-_six_.wav,p284,f,5,36,7.0,7.0,RX81,6,0.0,0.0,7.0,79.341492931939,babble-reversed_n13_p318-four-p256-five-p229-three-p284-one-p245-eight-p248-nine.wav,5,RX81,6,0.0,0.0,7.0,90.34149293193904,mgb_normalisation,90.34149293193902,90.34149293193902,6,6.0,True,1.5623815059661863
,2024-07-11 10:08:31,sub_108,3,distance,cathedral,spatial_unmasking,1,36,0,0,_four_,talker-p284_sex-f_text-_four_.wav,p284,f,5,37,7.0,7.0,RX81,6,0.0,0.0,7.0,78.341492931939,babble-reversed_n13_p318-three-p229-one-p256-eight-p245-five-p248-four-p284-nine.wav,5,RX81,6,0.0,0.0,7.0,90.34149293193904,mgb_normalisation,90.34149293193902,90.34149293193902,4,3.0,False,2.124849557876587
,2024-07-11 10:08:38,sub_108,3,distance,cathedral,spatial_unmasking,1,37,0,0,_eight_,talker-p284_sex-f_text-_eight_.wav,p284,f,5,38,7.0,7.0,RX81,6,0.0,0.0,7.0,79.341492931939,babble-reversed_n13_p229-five-p318-two-p307-eight-p268-three-p248-four-p245-one.wav,5,RX81,6,0.0,0.0,7.0,90.34149293193904,mgb_normalisation,90.34149293193902,90.34149293193902,8,2.0,False,4.874591112136841
,2024-07-11 10:08:42,sub_108,3,distance,cathedral,spatial_unmasking,1,38,0,0,_four_,talker-p284_sex-f_text-_four_.wav,p284,f,5,39,7.0,7.0,RX81,6,0.0,0.0,7.0,80.341492931939,babble-reversed_n13_p307-nine-p318-two-p256-one-p245-three-p268-four-p248-eight.wav,5,RX81,6,0.0,0.0,7.0,90.341492931939,mgb_normalisation,90.34149293193902,90.34149293193902,4,2.0,False,2.24984073638916
,2024-07-11 10:08:46,sub_108,3,distance,cathedral,spatial_unmasking,1,39,0,0,_six_,talker-p284_sex-f_text-_six_.wav,p284,f,5,40,7.0,7.0,RX81,6,0.0,0.0,7.0,81.341492931939,babble-reversed_n13_p229-three-p256-one-p307-two-p284-eight-p268-five-p248-nine.wav,5,RX81,6,0.0,0.0,7.0,90.34149293193904,mgb_normalisation,90.34149293193902,90.34149293193902,6,6.0,True,1.687380075454712
,2024-07-11 10:08:51,sub_108,3,distance,cathedral,spatial_unmasking,1,40,0,0,_eight_,talker-p284_sex-f_text-_eight_.wav,p284,f,5,41,7.0,7.0,RX81,6,0.0,0.0,7.0,81.341492931939,babble-reversed_n13_p256-five-p229-one-p318-three-p248-nine-p284-eight-p268-two.wav,5,RX81,6,0.0,0.0,7.0,90.34149293193904,mgb_normalisation,90.34149293193902,90.34149293193902,8,8.0,True,2.4373278617858887
,2024-07-11 10:09:01,sub_108,3,distance,cathedral,spatial_unmasking,1,41,0,0,_eight_,talker-p284_sex-f_text-_eight_.wav,p284,f,5,42,7.0,7.0,RX81,6,0.0,0.0,7.0,80.341492931939,babble-reversed_n13_p307-five-p229-two-p318-four-p248-three-p245-nine-p268-eight.wav,5,RX81,6,0.0,0.0,7.0,90.341492931939,mgb_normalisation,90.34149293193902,90.34149293193902,8,9.0,False,7.311983585357666
,2024-07-11 10:09:05,sub_108,3,distance,cathedral,spatial_unmasking,1,42,0,0,_eight_,talker-p284_sex-f_text-_eight_.wav,p284,f,5,43,7.0,7.0,RX81,6,0.0,0.0,7.0,81.341492931939,babble-reversed_n13_p318-nine-p256-five-p307-eight-p268-three-p248-one-p245-four.wav,5,RX81,6,0.0,0.0,7.0,90.34149293193904,mgb_normalisation,90.34149293193902,90.34149293193902,8,8.0,True,1.874866962432861
,2024-07-11 10:09:09,sub_108,3,distance,cathedral,spatial_unmasking,1,43,0,0,_nine_,talker-p284_sex-f_text-_nine_.wav,p284,f,5,44,7.0,7.0,RX81,6,0.0,0.0,7.0,81.341492931939,babble-reversed_n13_p318-five-p256-nine-p307-two-p245-eight-p248-one-p284-four.wav,5,RX81,6,0.0,0.0,7.0,90.34149293193904,mgb_normalisation,90.34149293193902,90.34149293193902,9,9.0,True,1.7498772144317627
,2024-07-11 10:10:56,sub_108,3,distance,cathedral,spatial_unmasking,2,44,0,0,_five_,talker-p284_sex-f_text-_five_.wav,p284,f,5,1,10.0,7.0,RX81,6,0.0,0.0,7.0,92.34149293193902,babble-reversed_n13_p256-eight-p318-two-p307-five-p245-four-p268-nine-p284-one.wav,8,RX81,9,0.0,0.0,10.0,92.0152836843556,mgb_normalisation,92.0152836843556,90.34149293193902,5,5.0,True,1.687380313873291
,2024-07-11 10:11:00,sub_108,3,distance,cathedral,spatial_unmasking,2,45,0,0,_nine_,talker-p284_sex-f_text-_nine_.wav,p284,f,5,2,10.0,7.0,RX81,6,0.0,0.0,7.0,88.34149293193902,babble-reversed_n13_p229-five-p318-two-p307-eight-p268-three-p248-four-p245-one.wav,8,RX81,9,0.0,0.0,10.0,92.0152836843556,mgb_normalisation,92.0152836843556,90.34149293193902,9,9.0,True,1.7498762607574463
,2024-07-11 10:11:04,sub_108,3,distance,cathedral,spatial_unmasking,2,46,0,0,_nine_,talker-p284_sex-f_text-_nine_.wav,p284,f,5,3,10.0,7.0,RX81,6,0.0,0.0,7.0,84.341492931939,babble-reversed_n13_p307-two-p229-one-p256-five-p248-nine-p284-three-p268-eight.wav,8,RX81,9,0.0,0.0,10.0,92.0152836843556,mgb_normalisation,92.0152836843556,90.34149293193902,9,9.0,True,1.2499642372131348
,2024-07-11 10:11:08,sub_108,3,distance,cathedral,spatial_unmasking,2,47,0,0,_one_,talker-p284_sex-f_text-_one_.wav,p284,f,5,4,10.0,7.0,RX81,6,0.0,0.0,7.0,80.34149293193903,babble-reversed_n13_p318-five-p229-four-p256-eight-p284-one-p245-three-p248-two.wav,8,RX81,9,0.0,0.0,10.0,92.0152836843556,mgb_normalisation,92.0152836843556,90.34149293193902,1,1.0,True,1.3749186992645264
,2024-07-11 10:11:14,sub_108,3,distance,cathedral,spatial_unmasking,2,48,0,0,_four_,talker-p284_sex-f_text-_four_.wav,p284,f,5,5,10.0,7.0,RX81,6,0.0,0.0,7.0,76.34149293193902,babble-reversed_n13_p307-five-p229-three-p318-nine-p245-four-p268-eight-p284-two.wav,8,RX81,9,0.0,0.0,10.0,92.0152836843556,mgb_normalisation,92.0152836843556,90.34149293193902,4,3.0,False,3.624744415283203
,2024-07-11 10:11:17,sub_108,3,distance,cathedral,spatial_unmasking,2,49,0,0,_one_,talker-p284_sex-f_text-_one_.wav,p284,f,5,6,10.0,7.0,RX81,6,0.0,0.0,7.0,78.34149293193902,babble-reversed_n13_p318-nine-p256-five-p307-eight-p268-three-p248-one-p245-four.wav,8,RX81,9,0.0,0.0,10.0,92.0152836843556,mgb_normalisation,92.0152836843556,90.34149293193902,1,5.0,False,1.3749024868011477
,2024-07-11 10:11:21,sub_108,3,distance,cathedral,spatial_unmasking,2,50,0,0,_one_,talker-p284_sex-f_text-_one_.wav,p284,f,5,7,10.0,7.0,RX81,6,0.0,0.0,7.0,80.34149293193903,babble-reversed_n13_p229-five-p256-one-p318-three-p248-nine-p268-four-p284-eight.wav,8,RX81,9,0.0,0.0,10.0,92.0152836843556,mgb_normalisation,92.0152836843556,90.34149293193902,1,1.0,True,1.2499120235443115
,2024-07-11 10:11:25,sub_108,3,distance,cathedral,spatial_unmasking,2,51,0,0,_two_,talker-p284_sex-f_text-_two_.wav,p284,f,5,8,10.0,7.0,RX81,6,0.0,0.0,7.0,80.34149293193903,babble-reversed_n13_p229-one-p318-eight-p256-three-p268-nine-p248-five-p284-four.wav,8,RX81,9,0.0,0.0,10.0,92.0152836843556,mgb_normalisation,92.0152836843556,90.34149293193902,2,2.0,True,1.2498691082000732
,2024-07-11 10:11:28,sub_108,3,distance,cathedral,spatial_unmasking,2,52,0,0,_five_,talker-p284_sex-f_text-_five_.wav,p284,f,5,9,10.0,7.0,RX81,6,0.0,0.0,7.0,78.34149293193902,babble-reversed_n13_p229-one-p318-nine-p256-four-p284-eight-p268-five-p245-two.wav,8,RX81,9,0.0,0.0,10.0,92.0152836843556,mgb_normalisation,92.0152836843556,90.34149293193902,5,5.0,True,1.1249208450317385
,2024-07-11 10:11:32,sub_108,3,distance,cathedral,spatial_unmasking,2,53,0,0,_five_,talker-p284_sex-f_text-_five_.wav,p284,f,5,10,10.0,7.0,RX81,6,0.0,0.0,7.0,78.34149293193902,babble-reversed_n13_p229-two-p307-five-p318-four-p284-one-p248-nine-p268-eight.wav,8,RX81,9,0.0,0.0,10.0,92.0152836843556,mgb_normalisation,92.0152836843556,90.34149293193902,5,9.0,False,1.8748691082000728
,2024-07-11 10:11:37,sub_108,3,distance,cathedral,spatial_unmasking,2,54,0,0,_four_,talker-p284_sex-f_text-_four_.wav,p284,f,5,11,10.0,7.0,RX81,6,0.0,0.0,7.0,79.341492931939,babble-reversed_n13_p256-eight-p229-three-p307-nine-p245-five-p248-four-p268-two.wav,8,RX81,9,0.0,0.0,10.0,92.0152836843556,mgb_normalisation,92.0152836843556,90.34149293193902,4,1.0,False,1.9999206066131592
,2024-07-11 10:11:41,sub_108,3,distance,cathedral,spatial_unmasking,2,55,0,0,_five_,talker-p284_sex-f_text-_five_.wav,p284,f,5,12,10.0,7.0,RX81,6,0.0,0.0,7.0,80.34149293193903,babble-reversed_n13_p318-five-p256-nine-p307-two-p245-eight-p248-one-p284-four.wav,8,RX81,9,0.0,0.0,10.0,92.0152836843556,mgb_normalisation,92.0152836843556,90.34149293193902,5,5.0,True,1.3749029636383057
,2024-07-11 10:11:44,sub_108,3,distance,cathedral,spatial_unmasking,2,56,0,0,_three_,talker-p284_sex-f_text-_three_.wav,p284,f,5,13,10.0,7.0,RX81,6,0.0,0.0,7.0,80.34149293193903,babble-reversed_n13_p256-three-p318-two-p229-nine-p248-four-p284-one-p268-eight.wav,8,RX81,9,0.0,0.0,10.0,92.0152836843556,mgb_normalisation,92.0152836843556,90.34149293193902,3,3.0,True,1.3124079704284668
,2024-07-11 10:11:48,sub_108,3,distance,cathedral,spatial_unmasking,2,57,0,0,_three_,talker-p284_sex-f_text-_three_.wav,p284,f,5,14,10.0,7.0,RX81,6,0.0,0.0,7.0,79.34149293193903,babble-reversed_n13_p256-five-p307-nine-p318-three-p284-eight-p268-one-p248-two.wav,8,RX81,9,0.0,0.0,10.0,92.0152836843556,mgb_normalisation,92.0152836843556,90.34149293193902,3,3.0,True,1.3124077320098877
,2024-07-11 10:11:54,sub_108,3,distance,cathedral,spatial_unmasking,2,58,0,0,_four_,talker-p284_sex-f_text-_four_.wav,p284,f,5,15,10.0,7.0,RX81,6,0.0,0.0,7.0,79.341492931939,babble-reversed_n13_p256-four-p229-eight-p307-five-p248-three-p245-one-p284-two.wav,8,RX81,9,0.0,0.0,10.0,92.0152836843556,mgb_normalisation,92.0152836843556,90.34149293193902,4,9.0,False,3.124779224395752
,2024-07-11 10:11:57,sub_108,3,distance,cathedral,spatial_unmasking,2,59,0,0,_two_,talker-p284_sex-f_text-_two_.wav,p284,f,5,16,10.0,7.0,RX81,6,0.0,0.0,7.0,80.34149293193903,babble-reversed_n13_p307-nine-p229-one-p256-eight-p248-four-p284-two-p268-three.wav,8,RX81,9,0.0,0.0,10.0,92.0152836843556,mgb_normalisation,92.0152836843556,90.34149293193902,2,2.0,True,1.1249210834503174
,2024-07-11 10:12:02,sub_108,3,distance,cathedral,spatial_unmasking,2,60,0,0,_nine_,talker-p284_sex-f_text-_nine_.wav,p284,f,5,17,10.0,7.0,RX81,6,0.0,0.0,7.0,80.341492931939,babble-reversed_n13_p256-four-p307-eight-p318-two-p248-three-p284-nine-p268-one.wav,8,RX81,9,0.0,0.0,10.0,92.0152836843556,mgb_normalisation,92.0152836843556,90.34149293193902,9,5.0,False,2.8747990131378174
,2024-07-11 10:12:06,sub_108,3,distance,cathedral,spatial_unmasking,2,61,0,0,_eight_,talker-p284_sex-f_text-_eight_.wav,p284,f,5,18,10.0,7.0,RX81,6,0.0,0.0,7.0,81.341492931939,babble-reversed_n13_p256-five-p307-nine-p318-three-p284-eight-p268-one-p248-two.wav,8,RX81,9,0.0,0.0,10.0,92.0152836843556,mgb_normalisation,92.0152836843556,90.34149293193902,8,8.0,True,1.24989652633667
,2024-07-11 10:12:10,sub_108,3,distance,cathedral,spatial_unmasking,2,62,0,0,_six_,talker-p284_sex-f_text-_six_.wav,p284,f,5,19,10.0,7.0,RX81,6,0.0,0.0,7.0,81.341492931939,babble-reversed_n13_p307-nine-p229-one-p256-eight-p248-four-p284-two-p268-three.wav,8,RX81,9,0.0,0.0,10.0,92.0152836843556,mgb_normalisation,92.0152836843556,90.34149293193902,6,6.0,True,1.3124070167541504
,2024-07-11 10:12:15,sub_108,3,distance,cathedral,spatial_unmasking,2,63,0,0,_four_,talker-p284_sex-f_text-_four_.wav,p284,f,5,20,10.0,7.0,RX81,6,0.0,0.0,7.0,80.341492931939,babble-reversed_n13_p318-four-p256-five-p229-three-p284-one-p245-eight-p248-nine.wav,8,RX81,9,0.0,0.0,10.0,92.0152836843556,mgb_normalisation,92.0152836843556,90.34149293193902,4,5.0,False,2.749804973602295
,2024-07-11 10:12:19,sub_108,3,distance,cathedral,spatial_unmasking,2,64,0,0,_one_,talker-p284_sex-f_text-_one_.wav,p284,f,5,21,10.0,7.0,RX81,6,0.0,0.0,7.0,81.34149293193902,babble-reversed_n13_p229-two-p318-eight-p256-three-p268-one-p248-nine-p284-five.wav,8,RX81,9,0.0,0.0,10.0,92.0152836843556,mgb_normalisation,92.0152836843556,90.34149293193902,1,1.0,True,1.4998934268951416
,2024-07-11 10:12:23,sub_108,3,distance,cathedral,spatial_unmasking,2,65,0,0,_one_,talker-p284_sex-f_text-_one_.wav,p284,f,5,22,10.0,7.0,RX81,6,0.0,0.0,7.0,81.34149293193902,babble-reversed_n13_p229-five-p318-three-p307-two-p245-four-p284-nine-p248-eight.wav,8,RX81,9,0.0,0.0,10.0,92.0152836843556,mgb_normalisation,92.0152836843556,90.34149293193902,1,1.0,True,1.6248857975006104
,2024-07-11 10:12:27,sub_108,3,distance,cathedral,spatial_unmasking,2,66,0,0,_five_,talker-p284_sex-f_text-_five_.wav,p284,f,5,23,10.0,7.0,RX81,6,0.0,0.0,7.0,80.34149293193903,babble-reversed_n13_p256-five-p307-nine-p318-three-p284-eight-p268-one-p248-two.wav,8,RX81,9,0.0,0.0,10.0,92.0152836843556,mgb_normalisation,92.0152836843556,90.34149293193902,5,5.0,True,1.624884843826294
,2024-07-11 10:12:30,sub_108,3,distance,cathedral,spatial_unmasking,2,67,0,0,_two_,talker-p284_sex-f_text-_two_.wav,p284,f,5,24,10.0,7.0,RX81,6,0.0,0.0,7.0,80.34149293193903,babble-reversed_n13_p256-four-p307-eight-p318-two-p248-three-p284-nine-p268-one.wav,8,RX81,9,0.0,0.0,10.0,92.0152836843556,mgb_normalisation,92.0152836843556,90.34149293193902,2,2.0,True,1.2499125003814695
,2024-07-11 10:12:34,sub_108,3,distance,cathedral,spatial_unmasking,2,68,0,0,_nine_,talker-p284_sex-f_text-_nine_.wav,p284,f,5,25,10.0,7.0,RX81,6,0.0,0.0,7.0,79.341492931939,babble-reversed_n13_p229-one-p318-eight-p256-three-p268-nine-p248-five-p284-four.wav,8,RX81,9,0.0,0.0,10.0,92.0152836843556,mgb_normalisation,92.0152836843556,90.34149293193902,9,9.0,True,1.312342643737793
,2024-07-11 10:12:38,sub_108,3,distance,cathedral,spatial_unmasking,2,69,0,0,_one_,talker-p284_sex-f_text-_one_.wav,p284,f,5,26,10.0,7.0,RX81,6,0.0,0.0,7.0,79.34149293193902,babble-reversed_n13_p229-two-p318-eight-p256-three-p268-one-p248-nine-p284-five.wav,8,RX81,9,0.0,0.0,10.0,92.0152836843556,mgb_normalisation,92.0152836843556,90.34149293193902,1,1.0,True,1.1874160766601562
,2024-07-11 10:12:41,sub_108,3,distance,cathedral,spatial_unmasking,2,70,0,0,_one_,talker-p284_sex-f_text-_one_.wav,p284,f,5,27,10.0,7.0,RX81,6,0.0,0.0,7.0,78.34149293193902,babble-reversed_n13_p229-eight-p256-nine-p318-four-p245-three-p268-five-p284-two.wav,8,RX81,9,0.0,0.0,10.0,92.0152836843556,mgb_normalisation,92.0152836843556,90.34149293193902,1,1.0,True,1.3749029636383057
,2024-07-11 10:12:45,sub_108,3,distance,cathedral,spatial_unmasking,2,71,0,0,_three_,talker-p284_sex-f_text-_three_.wav,p284,f,5,28,10.0,7.0,RX81,6,0.0,0.0,7.0,78.34149293193902,babble-reversed_n13_p307-two-p256-four-p318-three-p284-eight-p248-five-p245-nine.wav,8,RX81,9,0.0,0.0,10.0,92.0152836843556,mgb_normalisation,92.0152836843556,90.34149293193902,3,3.0,True,0.9999308586120604
,2024-07-11 10:12:49,sub_108,3,distance,cathedral,spatial_unmasking,2,72,0,0,_three_,talker-p284_sex-f_text-_three_.wav,p284,f,5,29,10.0,7.0,RX81,6,0.0,0.0,7.0,77.34149293193903,babble-reversed_n13_p307-four-p318-three-p256-eight-p284-two-p245-nine-p248-five.wav,8,RX81,9,0.0,0.0,10.0,92.0152836843556,mgb_normalisation,92.0152836843556,90.34149293193902,3,3.0,True,1.3124074935913086
,2024-07-11 10:12:54,sub_108,3,distance,cathedral,spatial_unmasking,2,73,0,0,_six_,talker-p284_sex-f_text-_six_.wav,p284,f,5,30,10.0,7.0,RX81,6,0.0,0.0,7.0,77.341492931939,babble-reversed_n13_p307-four-p318-three-p256-eight-p284-two-p245-nine-p248-five.wav,8,RX81,9,0.0,0.0,10.0,92.0152836843556,mgb_normalisation,92.0152836843556,90.34149293193902,6,3.0,False,3.4372589588165283
,2024-07-11 10:12:58,sub_108,3,distance,cathedral,spatial_unmasking,2,74,0,0,_eight_,talker-p284_sex-f_text-_eight_.wav,p284,f,5,31,10.0,7.0,RX81,6,0.0,0.0,7.0,78.341492931939,babble-reversed_n13_p318-five-p229-four-p256-eight-p284-one-p245-three-p248-two.wav,8,RX81,9,0.0,0.0,10.0,92.0152836843556,mgb_normalisation,92.0152836843556,90.34149293193902,8,8.0,True,1.2499110698699951
,2024-07-11 10:13:03,sub_108,3,distance,cathedral,spatial_unmasking,2,75,0,0,_four_,talker-p284_sex-f_text-_four_.wav,p284,f,5,32,10.0,7.0,RX81,6,0.0,0.0,7.0,78.341492931939,babble-reversed_n13_p229-five-p318-two-p307-eight-p268-three-p248-four-p245-one.wav,8,RX81,9,0.0,0.0,10.0,92.0152836843556,mgb_normalisation,92.0152836843556,90.34149293193902,4,5.0,False,2.124849796295166
,2024-07-11 10:13:06,sub_108,3,distance,cathedral,spatial_unmasking,2,76,0,0,_two_,talker-p284_sex-f_text-_two_.wav,p284,f,5,33,10.0,7.0,RX81,6,0.0,0.0,7.0,79.34149293193902,babble-reversed_n13_p229-two-p318-eight-p256-three-p268-one-p248-nine-p284-five.wav,8,RX81,9,0.0,0.0,10.0,92.0152836843556,mgb_normalisation,92.0152836843556,90.34149293193902,2,2.0,True,0.9374339580535888
,2024-07-11 10:13:10,sub_108,3,distance,cathedral,spatial_unmasking,2,77,0,0,_nine_,talker-p284_sex-f_text-_nine_.wav,p284,f,5,34,10.0,7.0,RX81,6,0.0,0.0,7.0,79.341492931939,babble-reversed_n13_p256-five-p307-nine-p318-three-p284-eight-p268-one-p248-two.wav,8,RX81,9,0.0,0.0,10.0,92.0152836843556,mgb_normalisation,92.0152836843556,90.34149293193902,9,9.0,True,2.249906539916992
,2024-07-11 10:13:15,sub_108,3,distance,cathedral,spatial_unmasking,2,78,0,0,_eight_,talker-p284_sex-f_text-_eight_.wav,p284,f,5,35,10.0,7.0,RX81,6,0.0,0.0,7.0,78.341492931939,babble-reversed_n13_p307-five-p229-three-p318-nine-p245-four-p268-eight-p284-two.wav,8,RX81,9,0.0,0.0,10.0,92.0152836843556,mgb_normalisation,92.0152836843556,90.34149293193902,8,8.0,True,1.937363624572754
,2024-07-11 10:13:19,sub_108,3,distance,cathedral,spatial_unmasking,2,79,0,0,_four_,talker-p284_sex-f_text-_four_.wav,p284,f,5,36,10.0,7.0,RX81,6,0.0,0.0,7.0,78.341492931939,babble-reversed_n13_p256-four-p229-two-p318-five-p268-one-p248-eight-p245-three.wav,8,RX81,9,0.0,0.0,10.0,92.0152836843556,mgb_normalisation,92.0152836843556,90.34149293193902,4,1.0,False,1.687352180480957
,2024-07-11 10:13:24,sub_108,3,distance,cathedral,spatial_unmasking,2,80,0,0,_one_,talker-p284_sex-f_text-_one_.wav,p284,f,5,37,10.0,7.0,RX81,6,0.0,0.0,7.0,79.34149293193902,babble-reversed_n13_p256-three-p318-one-p307-two-p284-nine-p268-four-p245-eight.wav,8,RX81,9,0.0,0.0,10.0,92.0152836843556,mgb_normalisation,92.0152836843556,90.34149293193902,1,8.0,False,2.874796867370605
,2024-07-11 10:13:28,sub_108,3,distance,cathedral,spatial_unmasking,2,81,0,0,_three_,talker-p284_sex-f_text-_three_.wav,p284,f,5,38,10.0,7.0,RX81,6,0.0,0.0,7.0,80.34149293193903,babble-reversed_n13_p318-nine-p256-five-p307-eight-p268-three-p248-one-p245-four.wav,8,RX81,9,0.0,0.0,10.0,92.0152836843556,mgb_normalisation,92.0152836843556,90.34149293193902,3,3.0,True,1.4373981952667236
,2024-07-11 10:13:32,sub_108,3,distance,cathedral,spatial_unmasking,2,82,0,0,_eight_,talker-p284_sex-f_text-_eight_.wav,p284,f,5,39,10.0,7.0,RX81,6,0.0,0.0,7.0,80.341492931939,babble-reversed_n13_p318-nine-p256-five-p307-eight-p268-three-p248-one-p245-four.wav,8,RX81,9,0.0,0.0,10.0,92.0152836843556,mgb_normalisation,92.0152836843556,90.34149293193902,8,8.0,True,1.9998583793640137
,2024-07-11 10:15:25,sub_108,3,distance,cathedral,spatial_unmasking,3,83,0,0,_one_,talker-p284_sex-f_text-_one_.wav,p284,f,5,1,12.0,7.0,RX81,6,0.0,0.0,7.0,92.34149293193902,babble-reversed_n13_p229-one-p318-eight-p256-three-p268-two-p245-five-p248-nine.wav,10,RX81,11,0.0,0.0,12.0,93.00003341222715,mgb_normalisation,93.00003341222715,90.34149293193902,1,1.0,True,1.3124072551727295
,2024-07-11 10:15:28,sub_108,3,distance,cathedral,spatial_unmasking,3,84,0,0,_four_,talker-p284_sex-f_text-_four_.wav,p284,f,5,2,12.0,7.0,RX81,6,0.0,0.0,7.0,88.34149293193902,babble-reversed_n13_p229-nine-p307-five-p256-two-p248-three-p245-one-p268-eight.wav,10,RX81,11,0.0,0.0,12.0,93.00003341222715,mgb_normalisation,93.00003341222715,90.34149293193902,4,2.0,False,1.3124079704284668
,2024-07-11 10:15:32,sub_108,3,distance,cathedral,spatial_unmasking,3,85,0,0,_four_,talker-p284_sex-f_text-_four_.wav,p284,f,5,3,12.0,7.0,RX81,6,0.0,0.0,7.0,90.341492931939,babble-reversed_n13_p229-three-p256-one-p307-two-p284-eight-p268-five-p248-nine.wav,10,RX81,11,0.0,0.0,12.0,93.00003341222718,mgb_normalisation,93.00003341222715,90.34149293193902,4,4.0,True,1.249911546707153
,2024-07-11 10:15:36,sub_108,3,distance,cathedral,spatial_unmasking,3,86,0,0,_six_,talker-p284_sex-f_text-_six_.wav,p284,f,5,4,12.0,7.0,RX81,6,0.0,0.0,7.0,90.341492931939,babble-reversed_n13_p229-five-p318-three-p307-two-p245-four-p284-nine-p248-eight.wav,10,RX81,11,0.0,0.0,12.0,93.00003341222715,mgb_normalisation,93.00003341222715,90.34149293193902,6,6.0,True,1.1249215602874756
,2024-07-11 10:15:39,sub_108,3,distance,cathedral,spatial_unmasking,3,87,0,0,_two_,talker-p284_sex-f_text-_two_.wav,p284,f,5,5,12.0,7.0,RX81,6,0.0,0.0,7.0,88.34149293193902,babble-reversed_n13_p256-eight-p229-three-p307-nine-p245-five-p248-four-p268-two.wav,10,RX81,11,0.0,0.0,12.0,93.00003341222715,mgb_normalisation,93.00003341222715,90.34149293193902,2,2.0,True,1.1249215602874756
,2024-07-11 10:15:43,sub_108,3,distance,cathedral,spatial_unmasking,3,88,0,0,_five_,talker-p284_sex-f_text-_five_.wav,p284,f,5,6,12.0,7.0,RX81,6,0.0,0.0,7.0,88.34149293193902,babble-reversed_n13_p256-eight-p318-two-p307-five-p245-four-p268-nine-p284-one.wav,10,RX81,11,0.0,0.0,12.0,93.00003341222718,mgb_normalisation,93.00003341222715,90.34149293193902,5,5.0,True,0.9999289512634276
,2024-07-11 10:15:46,sub_108,3,distance,cathedral,spatial_unmasking,3,89,0,0,_eight_,talker-p284_sex-f_text-_eight_.wav,p284,f,5,7,12.0,7.0,RX81,6,0.0,0.0,7.0,86.341492931939,babble-reversed_n13_p256-four-p229-eight-p307-five-p248-three-p245-one-p284-two.wav,10,RX81,11,0.0,0.0,12.0,93.00003341222715,mgb_normalisation,93.00003341222715,90.34149293193902,8,8.0,True,1.4373960494995115
,2024-07-11 10:15:50,sub_108,3,distance,cathedral,spatial_unmasking,3,90,0,0,_one_,talker-p284_sex-f_text-_one_.wav,p284,f,5,8,12.0,7.0,RX81,6,0.0,0.0,7.0,86.34149293193902,babble-reversed_n13_p229-three-p256-one-p307-two-p284-eight-p268-five-p248-nine.wav,10,RX81,11,0.0,0.0,12.0,93.00003341222718,mgb_normalisation,93.00003341222715,90.34149293193902,1,1.0,True,1.312406063079834
,2024-07-11 10:15:54,sub_108,3,distance,cathedral,spatial_unmasking,3,91,0,0,_eight_,talker-p284_sex-f_text-_eight_.wav,p284,f,5,9,12.0,7.0,RX81,6,0.0,0.0,7.0,84.341492931939,babble-reversed_n13_p318-one-p307-two-p256-eight-p284-three-p248-five-p245-four.wav,10,RX81,11,0.0,0.0,12.0,93.00003341222718,mgb_normalisation,93.00003341222715,90.34149293193902,8,8.0,True,1.31238055229187
,2024-07-11 10:15:57,sub_108,3,distance,cathedral,spatial_unmasking,3,92,0,0,_three_,talker-p284_sex-f_text-_three_.wav,p284,f,5,10,12.0,7.0,RX81,6,0.0,0.0,7.0,84.34149293193903,babble-reversed_n13_p229-nine-p307-five-p256-two-p248-three-p245-one-p268-eight.wav,10,RX81,11,0.0,0.0,12.0,93.00003341222715,mgb_normalisation,93.00003341222715,90.34149293193902,3,3.0,True,1.187415361404419
,2024-07-11 10:16:01,sub_108,3,distance,cathedral,spatial_unmasking,3,93,0,0,_two_,talker-p284_sex-f_text-_two_.wav,p284,f,5,11,12.0,7.0,RX81,6,0.0,0.0,7.0,82.34149293193902,babble-reversed_n13_p307-one-p318-five-p229-four-p268-eight-p284-two-p245-three.wav,10,RX81,11,0.0,0.0,12.0,93.00003341222715,mgb_normalisation,93.00003341222715,90.34149293193902,2,2.0,True,1.2499117851257324
,2024-07-11 10:16:05,sub_108,3,distance,cathedral,spatial_unmasking,3,94,0,0,_five_,talker-p284_sex-f_text-_five_.wav,p284,f,5,12,12.0,7.0,RX81,6,0.0,0.0,7.0,82.34149293193902,babble-reversed_n13_p318-five-p229-three-p256-four-p268-eight-p248-one-p245-nine.wav,10,RX81,11,0.0,0.0,12.0,93.00003341222718,mgb_normalisation,93.00003341222715,90.34149293193902,5,9.0,False,1.3749029636383057
,2024-07-11 10:16:09,sub_108,3,distance,cathedral,spatial_unmasking,3,95,0,0,_nine_,talker-p284_sex-f_text-_nine_.wav,p284,f,5,13,12.0,7.0,RX81,6,0.0,0.0,7.0,83.34149293193902,babble-reversed_n13_p318-five-p256-nine-p307-eight-p248-two-p245-four-p284-three.wav,10,RX81,11,0.0,0.0,12.0,93.00003341222718,mgb_normalisation,93.00003341222715,90.34149293193902,9,9.0,True,1.4389562606811523
,2024-07-11 10:16:12,sub_108,3,distance,cathedral,spatial_unmasking,3,96,0,0,_one_,talker-p284_sex-f_text-_one_.wav,p284,f,5,14,12.0,7.0,RX81,6,0.0,0.0,7.0,83.34149293193902,babble-reversed_n13_p307-five-p229-two-p318-four-p248-three-p245-nine-p268-eight.wav,10,RX81,11,0.0,0.0,12.0,93.00003341222715,mgb_normalisation,93.00003341222715,90.34149293193902,1,1.0,True,1.3124072551727295
,2024-07-11 10:16:17,sub_108,3,distance,cathedral,spatial_unmasking,3,97,0,0,_nine_,talker-p284_sex-f_text-_nine_.wav,p284,f,5,15,12.0,7.0,RX81,6,0.0,0.0,7.0,82.34149293193902,babble-reversed_n13_p318-five-p256-nine-p307-eight-p248-two-p245-four-p284-three.wav,10,RX81,11,0.0,0.0,12.0,93.00003341222718,mgb_normalisation,93.00003341222715,90.34149293193902,9,9.0,True,2.499823093414306
,2024-07-11 10:16:21,sub_108,3,distance,cathedral,spatial_unmasking,3,98,0,0,_one_,talker-p284_sex-f_text-_one_.wav,p284,f,5,16,12.0,7.0,RX81,6,0.0,0.0,7.0,82.34149293193902,babble-reversed_n13_p256-four-p307-eight-p318-two-p248-three-p284-nine-p268-one.wav,10,RX81,11,0.0,0.0,12.0,93.00003341222718,mgb_normalisation,93.00003341222715,90.34149293193902,1,1.0,True,1.249911546707153
,2024-07-11 10:16:24,sub_108,3,distance,cathedral,spatial_unmasking,3,99,0,0,_nine_,talker-p284_sex-f_text-_nine_.wav,p284,f,5,17,12.0,7.0,RX81,6,0.0,0.0,7.0,81.341492931939,babble-reversed_n13_p318-three-p307-one-p256-five-p248-nine-p245-two-p284-eight.wav,10,RX81,11,0.0,0.0,12.0,93.00003341222718,mgb_normalisation,93.00003341222715,90.34149293193902,9,9.0,True,1.124919891357422
,2024-07-11 10:16:28,sub_108,3,distance,cathedral,spatial_unmasking,3,100,0,0,_one_,talker-p284_sex-f_text-_one_.wav,p284,f,5,18,12.0,7.0,RX81,6,0.0,0.0,7.0,81.34149293193902,babble-reversed_n13_p229-five-p318-two-p307-eight-p268-three-p248-four-p245-one.wav,10,RX81,11,0.0,0.0,12.0,93.00003341222718,mgb_normalisation,93.00003341222715,90.34149293193902,1,1.0,True,1.1874167919158936
,2024-07-11 10:16:32,sub_108,3,distance,cathedral,spatial_unmasking,3,101,0,0,_five_,talker-p284_sex-f_text-_five_.wav,p284,f,5,19,12.0,7.0,RX81,6,0.0,0.0,7.0,80.34149293193903,babble-reversed_n13_p229-five-p318-two-p307-eight-p268-three-p248-four-p245-one.wav,10,RX81,11,0.0,0.0,12.0,93.00003341222718,mgb_normalisation,93.00003341222715,90.34149293193902,5,5.0,True,1.312408208847046
,2024-07-11 10:16:35,sub_108,3,distance,cathedral,spatial_unmasking,3,102,0,0,_five_,talker-p284_sex-f_text-_five_.wav,p284,f,5,20,12.0,7.0,RX81,6,0.0,0.0,7.0,80.34149293193903,babble-reversed_n13_p229-three-p307-one-p318-two-p245-eight-p268-five-p284-four.wav,10,RX81,11,0.0,0.0,12.0,93.00003341222718,mgb_normalisation,93.00003341222715,90.34149293193902,5,5.0,True,1.1249210834503174
,2024-07-11 10:16:39,sub_108,3,distance,cathedral,spatial_unmasking,3,103,0,0,_one_,talker-p284_sex-f_text-_one_.wav,p284,f,5,21,12.0,7.0,RX81,6,0.0,0.0,7.0,79.34149293193902,babble-reversed_n13_p318-five-p229-three-p256-four-p268-eight-p248-one-p245-nine.wav,10,RX81,11,0.0,0.0,12.0,93.00003341222718,mgb_normalisation,93.00003341222715,90.34149293193902,1,1.0,True,1.3124074935913086
,2024-07-11 10:16:43,sub_108,3,distance,cathedral,spatial_unmasking,3,104,0,0,_nine_,talker-p284_sex-f_text-_nine_.wav,p284,f,5,22,12.0,7.0,RX81,6,0.0,0.0,7.0,79.341492931939,babble-reversed_n13_p229-five-p318-two-p307-eight-p268-three-p248-four-p245-one.wav,10,RX81,11,0.0,0.0,12.0,93.00003341222718,mgb_normalisation,93.00003341222715,90.34149293193902,9,9.0,True,1.562361717224121
,2024-07-11 10:16:47,sub_108,3,distance,cathedral,spatial_unmasking,3,105,0,0,_eight_,talker-p284_sex-f_text-_eight_.wav,p284,f,5,23,12.0,7.0,RX81,6,0.0,0.0,7.0,78.341492931939,babble-reversed_n13_p318-nine-p307-eight-p229-two-p284-one-p248-three-p245-five.wav,10,RX81,11,0.0,0.0,12.0,93.00003341222718,mgb_normalisation,93.00003341222715,90.34149293193902,8,8.0,True,1.437330961227417
,2024-07-11 10:16:50,sub_108,3,distance,cathedral,spatial_unmasking,3,106,0,0,_one_,talker-p284_sex-f_text-_one_.wav,p284,f,5,24,12.0,7.0,RX81,6,0.0,0.0,7.0,78.34149293193902,babble-reversed_n13_p229-three-p256-one-p307-two-p284-eight-p268-five-p248-nine.wav,10,RX81,11,0.0,0.0,12.0,93.00003341222718,mgb_normalisation,93.00003341222715,90.34149293193902,1,1.0,True,0.999985933303833
,2024-07-11 10:16:53,sub_108,3,distance,cathedral,spatial_unmasking,3,107,0,0,_two_,talker-p284_sex-f_text-_two_.wav,p284,f,5,25,12.0,7.0,RX81,6,0.0,0.0,7.0,77.34149293193902,babble-reversed_n13_p229-nine-p318-one-p307-two-p248-eight-p245-five-p284-four.wav,10,RX81,11,0.0,0.0,12.0,93.00003341222718,mgb_normalisation,93.00003341222715,90.34149293193902,2,2.0,True,1.1249213218688965
,2024-07-11 10:16:57,sub_108,3,distance,cathedral,spatial_unmasking,3,108,0,0,_five_,talker-p284_sex-f_text-_five_.wav,p284,f,5,26,12.0,7.0,RX81,6,0.0,0.0,7.0,77.34149293193902,babble-reversed_n13_p229-one-p318-eight-p256-three-p268-nine-p248-five-p284-four.wav,10,RX81,11,0.0,0.0,12.0,93.00003341222715,mgb_normalisation,93.00003341222715,90.34149293193902,5,5.0,True,1.1249213218688965
,2024-07-11 10:17:01,sub_108,3,distance,cathedral,spatial_unmasking,3,109,0,0,_three_,talker-p284_sex-f_text-_three_.wav,p284,f,5,27,12.0,7.0,RX81,6,0.0,0.0,7.0,76.34149293193902,babble-reversed_n13_p318-three-p229-one-p256-eight-p245-five-p248-four-p284-nine.wav,10,RX81,11,0.0,0.0,12.0,93.00003341222718,mgb_normalisation,93.00003341222715,90.34149293193902,3,3.0,True,1.3124072551727295
,2024-07-11 10:17:07,sub_108,3,distance,cathedral,spatial_unmasking,3,110,0,0,_five_,talker-p284_sex-f_text-_five_.wav,p284,f,5,28,12.0,7.0,RX81,6,0.0,0.0,7.0,76.34149293193902,babble-reversed_n13_p229-two-p307-five-p318-four-p284-one-p248-nine-p268-eight.wav,10,RX81,11,0.0,0.0,12.0,93.00003341222718,mgb_normalisation,93.00003341222715,90.34149293193902,5,5.0,True,3.8747246265411377
,2024-07-11 10:17:10,sub_108,3,distance,cathedral,spatial_unmasking,3,111,0,0,_nine_,talker-p284_sex-f_text-_nine_.wav,p284,f,5,29,12.0,7.0,RX81,6,0.0,0.0,7.0,75.34149293193902,babble-reversed_n13_p318-five-p229-four-p256-eight-p284-one-p245-three-p248-two.wav,10,RX81,11,0.0,0.0,12.0,93.00003341222718,mgb_normalisation,93.00003341222715,90.34149293193902,9,9.0,True,1.1249191761016846
,2024-07-11 10:17:17,sub_108,3,distance,cathedral,spatial_unmasking,3,112,0,0,_eight_,talker-p284_sex-f_text-_eight_.wav,p284,f,5,30,12.0,7.0,RX81,6,0.0,0.0,7.0,75.341492931939,babble-reversed_n13_p229-three-p256-nine-p318-five-p248-one-p245-eight-p284-two.wav,10,RX81,11,0.0,0.0,12.0,93.00003341222718,mgb_normalisation,93.00003341222715,90.34149293193902,8,1.0,False,3.812232494354248
,2024-07-11 10:17:21,sub_108,3,distance,cathedral,spatial_unmasking,3,113,0,0,_three_,talker-p284_sex-f_text-_three_.wav,p284,f,5,31,12.0,7.0,RX81,6,0.0,0.0,7.0,76.34149293193902,babble-reversed_n13_p307-nine-p318-two-p256-one-p245-three-p268-four-p248-eight.wav,10,RX81,11,0.0,0.0,12.0,93.00003341222715,mgb_normalisation,93.00003341222715,90.34149293193902,3,3.0,True,1.437394142150879
,2024-07-11 10:17:24,sub_108,3,distance,cathedral,spatial_unmasking,3,114,0,0,_six_,talker-p284_sex-f_text-_six_.wav,p284,f,5,32,12.0,7.0,RX81,6,0.0,0.0,7.0,76.34149293193902,babble-reversed_n13_p318-four-p256-five-p229-three-p284-one-p245-eight-p248-nine.wav,10,RX81,11,0.0,0.0,12.0,93.00003341222718,mgb_normalisation,93.00003341222715,90.34149293193902,6,6.0,True,1.187415361404419
,2024-07-11 10:17:32,sub_108,3,distance,cathedral,spatial_unmasking,3,115,0,0,_nine_,talker-p284_sex-f_text-_nine_.wav,p284,f,5,33,12.0,7.0,RX81,6,0.0,0.0,7.0,75.34149293193902,babble-reversed_n13_p307-five-p229-two-p318-four-p248-three-p245-nine-p268-eight.wav,10,RX81,11,0.0,0.0,12.0,93.00003341222715,mgb_normalisation,93.00003341222715,90.34149293193902,9,5.0,False,5.249629497528076
,2024-07-11 10:17:36,sub_108,3,distance,cathedral,spatial_unmasking,3,116,0,0,_eight_,talker-p284_sex-f_text-_eight_.wav,p284,f,5,34,12.0,7.0,RX81,6,0.0,0.0,7.0,76.34149293193902,babble-reversed_n13_p256-five-p229-one-p318-three-p248-nine-p284-eight-p268-two.wav,10,RX81,11,0.0,0.0,12.0,93.00003341222718,mgb_normalisation,93.00003341222715,90.34149293193902,8,8.0,True,1.6873810291290283
,2024-07-11 10:17:42,sub_108,3,distance,cathedral,spatial_unmasking,3,117,0,0,_four_,talker-p284_sex-f_text-_four_.wav,p284,f,5,35,12.0,7.0,RX81,6,0.0,0.0,7.0,76.34149293193902,babble-reversed_n13_p318-five-p256-nine-p307-two-p245-eight-p248-one-p284-four.wav,10,RX81,11,0.0,0.0,12.0,93.00003341222718,mgb_normalisation,93.00003341222715,90.34149293193902,4,1.0,False,3.749735593795776
,2024-07-11 10:17:47,sub_108,3,distance,cathedral,spatial_unmasking,3,118,0,0,_eight_,talker-p284_sex-f_text-_eight_.wav,p284,f,5,36,12.0,7.0,RX81,6,0.0,0.0,7.0,77.341492931939,babble-reversed_n13_p256-three-p318-one-p307-two-p284-nine-p268-four-p245-eight.wav,10,RX81,11,0.0,0.0,12.0,93.00003341222718,mgb_normalisation,93.00003341222715,90.34149293193902,8,8.0,True,3.062284231185913
,2024-07-11 10:17:51,sub_108,3,distance,cathedral,spatial_unmasking,3,119,0,0,_five_,talker-p284_sex-f_text-_five_.wav,p284,f,5,37,12.0,7.0,RX81,6,0.0,0.0,7.0,77.34149293193902,babble-reversed_n13_p318-five-p256-nine-p307-eight-p248-two-p245-four-p284-three.wav,10,RX81,11,0.0,0.0,12.0,93.00003341222718,mgb_normalisation,93.00003341222715,90.34149293193902,5,5.0,True,1.3749659061431885
,2024-07-11 10:17:55,sub_108,3,distance,cathedral,spatial_unmasking,3,120,0,0,_four_,talker-p284_sex-f_text-_four_.wav,p284,f,5,38,12.0,7.0,RX81,6,0.0,0.0,7.0,76.34149293193902,babble-reversed_n13_p318-five-p256-nine-p307-two-p245-eight-p248-one-p284-four.wav,10,RX81,11,0.0,0.0,12.0,93.00003341222718,mgb_normalisation,93.00003341222715,90.34149293193902,4,4.0,True,1.3749024868011477
,2024-07-11 10:17:59,sub_108,3,distance,cathedral,spatial_unmasking,3,121,0,0,_six_,talker-p284_sex-f_text-_six_.wav,p284,f,5,39,12.0,7.0,RX81,6,0.0,0.0,7.0,76.34149293193902,babble-reversed_n13_p318-four-p256-five-p229-three-p284-one-p245-eight-p248-nine.wav,10,RX81,11,0.0,0.0,12.0,93.00003341222718,mgb_normalisation,93.00003341222715,90.34149293193902,6,6.0,True,1.3124077320098877
,2024-07-11 10:18:03,sub_108,3,distance,cathedral,spatial_unmasking,3,122,0,0,_nine_,talker-p284_sex-f_text-_nine_.wav,p284,f,5,40,12.0,7.0,RX81,6,0.0,0.0,7.0,75.34149293193902,babble-reversed_n13_p229-five-p256-three-p318-nine-p248-two-p284-four-p268-one.wav,10,RX81,11,0.0,0.0,12.0,93.00003341222718,mgb_normalisation,93.00003341222715,90.34149293193902,9,9.0,True,1.499894142150879
,2024-07-11 10:18:06,sub_108,3,distance,cathedral,spatial_unmasking,3,123,0,0,_nine_,talker-p284_sex-f_text-_nine_.wav,p284,f,5,41,12.0,7.0,RX81,6,0.0,0.0,7.0,75.34149293193902,babble-reversed_n13_p229-one-p318-eight-p256-three-p268-nine-p248-five-p284-four.wav,10,RX81,11,0.0,0.0,12.0,93.00003341222715,mgb_normalisation,93.00003341222715,90.34149293193902,9,9.0,True,1.3749659061431885
,2024-07-11 10:18:10,sub_108,3,distance,cathedral,spatial_unmasking,3,124,0,0,_six_,talker-p284_sex-f_text-_six_.wav,p284,f,5,42,12.0,7.0,RX81,6,0.0,0.0,7.0,74.341492931939,babble-reversed_n13_p256-four-p307-eight-p318-two-p248-three-p284-nine-p268-one.wav,10,RX81,11,0.0,0.0,12.0,93.00003341222718,mgb_normalisation,93.00003341222715,90.34149293193902,6,6.0,True,1.249910831451416
,2024-07-11 10:18:14,sub_108,3,distance,cathedral,spatial_unmasking,3,125,0,0,_five_,talker-p284_sex-f_text-_five_.wav,p284,f,5,43,12.0,7.0,RX81,6,0.0,0.0,7.0,74.34149293193902,babble-reversed_n13_p229-three-p307-one-p318-two-p245-eight-p268-five-p284-four.wav,10,RX81,11,0.0,0.0,12.0,93.00003341222718,mgb_normalisation,93.00003341222715,90.34149293193902,5,5.0,True,1.062424898147583
,2024-07-11 10:18:17,sub_108,3,distance,cathedral,spatial_unmasking,3,126,0,0,_one_,talker-p284_sex-f_text-_one_.wav,p284,f,5,44,12.0,7.0,RX81,6,0.0,0.0,7.0,73.34149293193902,babble-reversed_n13_p318-one-p307-two-p256-eight-p284-three-p248-five-p245-four.wav,10,RX81,11,0.0,0.0,12.0,93.00003341222718,mgb_normalisation,93.00003341222715,90.34149293193902,1,1.0,True,1.4373977184295654
,2024-07-11 10:18:21,sub_108,3,distance,cathedral,spatial_unmasking,3,127,0,0,_two_,talker-p284_sex-f_text-_two_.wav,p284,f,5,45,12.0,7.0,RX81,6,0.0,0.0,7.0,73.34149293193902,babble-reversed_n13_p318-five-p229-four-p256-eight-p284-one-p245-three-p248-two.wav,10,RX81,11,0.0,0.0,12.0,93.00003341222718,mgb_normalisation,93.00003341222715,90.34149293193902,2,2.0,True,1.1249213218688965
,2024-07-11 10:18:25,sub_108,3,distance,cathedral,spatial_unmasking,3,128,0,0,_one_,talker-p284_sex-f_text-_one_.wav,p284,f,5,46,12.0,7.0,RX81,6,0.0,0.0,7.0,72.34149293193902,babble-reversed_n13_p229-one-p318-nine-p256-four-p284-eight-p268-five-p245-two.wav,10,RX81,11,0.0,0.0,12.0,93.00003341222715,mgb_normalisation,93.00003341222715,90.34149293193902,1,1.0,True,1.3123431205749512
,2024-07-11 10:18:28,sub_108,3,distance,cathedral,spatial_unmasking,3,129,0,0,_eight_,talker-p284_sex-f_text-_eight_.wav,p284,f,5,47,12.0,7.0,RX81,6,0.0,0.0,7.0,72.341492931939,babble-reversed_n13_p229-one-p318-eight-p256-three-p268-nine-p248-five-p284-four.wav,10,RX81,11,0.0,0.0,12.0,93.00003341222715,mgb_normalisation,93.00003341222715,90.34149293193902,8,8.0,True,1.1249206066131592
,2024-07-11 10:18:32,sub_108,3,distance,cathedral,spatial_unmasking,3,130,0,0,_two_,talker-p284_sex-f_text-_two_.wav,p284,f,5,48,12.0,7.0,RX81,6,0.0,0.0,7.0,71.34149293193902,babble-reversed_n13_p229-five-p256-three-p318-nine-p248-two-p284-four-p268-one.wav,10,RX81,11,0.0,0.0,12.0,93.00003341222718,mgb_normalisation,93.00003341222715,90.34149293193902,2,2.0,True,1.062424898147583
,2024-07-11 10:18:36,sub_108,3,distance,cathedral,spatial_unmasking,3,131,0,0,_eight_,talker-p284_sex-f_text-_eight_.wav,p284,f,5,49,12.0,7.0,RX81,6,0.0,0.0,7.0,71.34149293193902,babble-reversed_n13_p256-nine-p307-four-p229-one-p284-three-p248-two-p245-five.wav,10,RX81,11,0.0,0.0,12.0,93.00003341222718,mgb_normalisation,93.00003341222715,90.34149293193902,8,8.0,True,2.3123371601104736
,2024-07-11 10:18:40,sub_108,3,distance,cathedral,spatial_unmasking,3,132,0,0,_two_,talker-p284_sex-f_text-_two_.wav,p284,f,5,50,12.0,7.0,RX81,6,0.0,0.0,7.0,70.34149293193903,babble-reversed_n13_p318-three-p307-one-p256-five-p248-nine-p245-two-p284-eight.wav,10,RX81,11,0.0,0.0,12.0,93.00003341222718,mgb_normalisation,93.00003341222715,90.34149293193902,2,8.0,False,1.7498767375946045
,2024-07-11 10:18:44,sub_108,3,distance,cathedral,spatial_unmasking,3,133,0,0,_five_,talker-p284_sex-f_text-_five_.wav,p284,f,5,51,12.0,7.0,RX81,6,0.0,0.0,7.0,71.34149293193902,babble-reversed_n13_p229-three-p307-one-p318-two-p245-eight-p268-five-p284-four.wav,10,RX81,11,0.0,0.0,12.0,93.00003341222718,mgb_normalisation,93.00003341222715,90.34149293193902,5,5.0,True,1.2499117851257324
,2024-07-11 10:18:48,sub_108,3,distance,cathedral,spatial_unmasking,3,134,0,0,_eight_,talker-p284_sex-f_text-_eight_.wav,p284,f,5,52,12.0,7.0,RX81,6,0.0,0.0,7.0,71.34149293193902,babble-reversed_n13_p229-one-p318-nine-p256-four-p284-eight-p268-five-p245-two.wav,10,RX81,11,0.0,0.0,12.0,93.00003341222715,mgb_normalisation,93.00003341222715,90.34149293193902,8,8.0,True,1.1874158382415771
,2024-07-11 10:18:51,sub_108,3,distance,cathedral,spatial_unmasking,3,135,0,0,_nine_,talker-p284_sex-f_text-_nine_.wav,p284,f,5,53,12.0,7.0,RX81,6,0.0,0.0,7.0,70.341492931939,babble-reversed_n13_p229-five-p256-one-p318-three-p248-nine-p268-four-p284-eight.wav,10,RX81,11,0.0,0.0,12.0,93.00003341222715,mgb_normalisation,93.00003341222715,90.34149293193902,9,9.0,True,1.0623695850372314
,2024-07-11 10:18:55,sub_108,3,distance,cathedral,spatial_unmasking,3,136,0,0,_one_,talker-p284_sex-f_text-_one_.wav,p284,f,5,54,12.0,7.0,RX81,6,0.0,0.0,7.0,70.34149293193902,babble-reversed_n13_p256-eight-p318-two-p307-five-p245-four-p268-nine-p284-one.wav,10,RX81,11,0.0,0.0,12.0,93.00003341222718,mgb_normalisation,93.00003341222715,90.34149293193902,1,1.0,True,1.499894380569458
,2024-07-11 10:18:59,sub_108,3,distance,cathedral,spatial_unmasking,3,137,0,0,_six_,talker-p284_sex-f_text-_six_.wav,p284,f,5,55,12.0,7.0,RX81,6,0.0,0.0,7.0,69.341492931939,babble-reversed_n13_p229-one-p318-nine-p256-four-p284-eight-p268-five-p245-two.wav,10,RX81,11,0.0,0.0,12.0,93.00003341222715,mgb_normalisation,93.00003341222715,90.34149293193902,6,8.0,False,1.2499103546142578
,2024-07-11 10:19:02,sub_108,3,distance,cathedral,spatial_unmasking,3,138,0,0,_two_,talker-p284_sex-f_text-_two_.wav,p284,f,5,56,12.0,7.0,RX81,6,0.0,0.0,7.0,70.34149293193903,babble-reversed_n13_p229-one-p318-nine-p256-four-p284-eight-p268-five-p245-two.wav,10,RX81,11,0.0,0.0,12.0,93.00003341222715,mgb_normalisation,93.00003341222715,90.34149293193902,2,2.0,True,1.2499120235443115
,2024-07-11 10:19:09,sub_108,3,distance,cathedral,spatial_unmasking,3,139,0,0,_four_,talker-p284_sex-f_text-_four_.wav,p284,f,5,57,12.0,7.0,RX81,6,0.0,0.0,7.0,70.341492931939,babble-reversed_n13_p229-three-p307-one-p318-two-p245-eight-p268-five-p284-four.wav,10,RX81,11,0.0,0.0,12.0,93.00003341222718,mgb_normalisation,93.00003341222715,90.34149293193902,4,3.0,False,4.312195777893066
,2024-07-11 10:19:14,sub_108,3,distance,cathedral,spatial_unmasking,3,140,0,0,_six_,talker-p284_sex-f_text-_six_.wav,p284,f,5,58,12.0,7.0,RX81,6,0.0,0.0,7.0,71.34149293193902,babble-reversed_n13_p318-three-p229-one-p256-eight-p245-five-p248-four-p284-nine.wav,10,RX81,11,0.0,0.0,12.0,93.00003341222718,mgb_normalisation,93.00003341222715,90.34149293193902,6,1.0,False,2.249841690063477
,2024-07-11 10:19:18,sub_108,3,distance,cathedral,spatial_unmasking,3,141,0,0,_five_,talker-p284_sex-f_text-_five_.wav,p284,f,5,59,12.0,7.0,RX81,6,0.0,0.0,7.0,72.34149293193902,babble-reversed_n13_p229-nine-p318-one-p307-two-p248-eight-p245-five-p284-four.wav,10,RX81,11,0.0,0.0,12.0,93.00003341222718,mgb_normalisation,93.00003341222715,90.34149293193902,5,5.0,True,1.7498760223388672
,2024-07-11 10:19:21,sub_108,3,distance,cathedral,spatial_unmasking,3,142,0,0,_eight_,talker-p284_sex-f_text-_eight_.wav,p284,f,5,60,12.0,7.0,RX81,6,0.0,0.0,7.0,72.341492931939,babble-reversed_n13_p229-one-p318-eight-p256-three-p268-nine-p248-five-p284-four.wav,10,RX81,11,0.0,0.0,12.0,93.00003341222715,mgb_normalisation,93.00003341222715,90.34149293193902,8,8.0,True,1.1874792575836182
,2024-07-11 10:21:49,sub_108,3,distance,cathedral,spatial_unmasking,4,143,0,0,_nine_,talker-p284_sex-f_text-_nine_.wav,p284,f,5,1,2.0,7.0,RX81,6,0.0,0.0,7.0,92.34149293193902,babble-reversed_n13_p318-nine-p307-eight-p229-two-p284-one-p248-three-p245-five.wav,0,RX81,1,0.0,0.0,2.0,84.40078082039426,mgb_normalisation,84.40078082039426,90.34149293193902,9,9.0,True,1.0624847412109375
,2024-07-11 10:21:52,sub_108,3,distance,cathedral,spatial_unmasking,4,144,0,0,_eight_,talker-p284_sex-f_text-_eight_.wav,p284,f,5,2,2.0,7.0,RX81,6,0.0,0.0,7.0,88.34149293193902,babble-reversed_n13_p229-five-p318-three-p307-two-p245-four-p284-nine-p248-eight.wav,0,RX81,1,0.0,0.0,2.0,84.40078082039426,mgb_normalisation,84.40078082039426,90.34149293193902,8,8.0,True,0.937434196472168
,2024-07-11 10:21:55,sub_108,3,distance,cathedral,spatial_unmasking,4,145,0,0,_five_,talker-p284_sex-f_text-_five_.wav,p284,f,5,3,2.0,7.0,RX81,6,0.0,0.0,7.0,84.341492931939,babble-reversed_n13_p307-nine-p229-one-p256-eight-p248-four-p284-two-p268-three.wav,0,RX81,1,0.0,0.0,2.0,84.40078082039426,mgb_normalisation,84.40078082039426,90.34149293193902,5,5.0,True,0.8749392032623291
,2024-07-11 10:21:59,sub_108,3,distance,cathedral,spatial_unmasking,4,146,0,0,_five_,talker-p284_sex-f_text-_five_.wav,p284,f,5,4,2.0,7.0,RX81,6,0.0,0.0,7.0,80.34149293193903,babble-reversed_n13_p318-five-p229-three-p256-four-p268-eight-p248-one-p245-nine.wav,0,RX81,1,0.0,0.0,2.0,84.40078082039426,mgb_normalisation,84.40078082039426,90.34149293193902,5,9.0,False,0.8749377727508545
,2024-07-11 10:22:02,sub_108,3,distance,cathedral,spatial_unmasking,4,147,0,0,_six_,talker-p284_sex-f_text-_six_.wav,p284,f,5,5,2.0,7.0,RX81,6,0.0,0.0,7.0,82.34149293193902,babble-reversed_n13_p229-three-p256-nine-p318-five-p248-one-p245-eight-p284-two.wav,0,RX81,1,0.0,0.0,2.0,84.40078082039426,mgb_normalisation,84.40078082039426,90.34149293193902,6,6.0,True,0.9373700618743896
,2024-07-11 10:22:06,sub_108,3,distance,cathedral,spatial_unmasking,4,148,0,0,_eight_,talker-p284_sex-f_text-_eight_.wav,p284,f,5,6,2.0,7.0,RX81,6,0.0,0.0,7.0,82.341492931939,babble-reversed_n13_p318-five-p229-four-p256-eight-p284-one-p245-three-p248-two.wav,0,RX81,1,0.0,0.0,2.0,84.40078082039426,mgb_normalisation,84.40078082039426,90.34149293193902,8,8.0,True,1.0624253749847412
,2024-07-11 10:22:10,sub_108,3,distance,cathedral,spatial_unmasking,4,149,0,0,_two_,talker-p284_sex-f_text-_two_.wav,p284,f,5,7,2.0,7.0,RX81,6,0.0,0.0,7.0,80.34149293193903,babble-reversed_n13_p229-two-p307-five-p318-four-p284-one-p248-nine-p268-eight.wav,0,RX81,1,0.0,0.0,2.0,84.40078082039426,mgb_normalisation,84.40078082039426,90.34149293193902,2,9.0,False,2.062354803085327
,2024-07-11 10:22:13,sub_108,3,distance,cathedral,spatial_unmasking,4,150,0,0,_eight_,talker-p284_sex-f_text-_eight_.wav,p284,f,5,8,2.0,7.0,RX81,6,0.0,0.0,7.0,81.341492931939,babble-reversed_n13_p229-five-p256-three-p318-nine-p248-two-p284-four-p268-one.wav,0,RX81,1,0.0,0.0,2.0,84.40078082039427,mgb_normalisation,84.40078082039426,90.34149293193902,8,8.0,True,1.0624253749847412
,2024-07-11 10:22:17,sub_108,3,distance,cathedral,spatial_unmasking,4,151,0,0,_four_,talker-p284_sex-f_text-_four_.wav,p284,f,5,9,2.0,7.0,RX81,6,0.0,0.0,7.0,81.341492931939,babble-reversed_n13_p318-five-p229-four-p256-eight-p284-one-p245-three-p248-two.wav,0,RX81,1,0.0,0.0,2.0,84.40078082039426,mgb_normalisation,84.40078082039426,90.34149293193902,4,2.0,False,1.5623891353607178
,2024-07-11 10:22:21,sub_108,3,distance,cathedral,spatial_unmasking,4,152,0,0,_one_,talker-p284_sex-f_text-_one_.wav,p284,f,5,10,2.0,7.0,RX81,6,0.0,0.0,7.0,82.34149293193902,babble-reversed_n13_p307-two-p229-one-p256-five-p248-nine-p284-three-p268-eight.wav,0,RX81,1,0.0,0.0,2.0,84.40078082039427,mgb_normalisation,84.40078082039426,90.34149293193902,1,1.0,True,1.6248865127563477
,2024-07-11 10:22:25,sub_108,3,distance,cathedral,spatial_unmasking,4,153,0,0,_eight_,talker-p284_sex-f_text-_eight_.wav,p284,f,5,11,2.0,7.0,RX81,6,0.0,0.0,7.0,82.341492931939,babble-reversed_n13_p229-one-p318-eight-p256-three-p268-two-p245-five-p248-nine.wav,0,RX81,1,0.0,0.0,2.0,84.40078082039426,mgb_normalisation,84.40078082039426,90.34149293193902,8,8.0,True,1.3749041557312012
,2024-07-11 10:22:29,sub_108,3,distance,cathedral,spatial_unmasking,4,154,0,0,_nine_,talker-p284_sex-f_text-_nine_.wav,p284,f,5,12,2.0,7.0,RX81,6,0.0,0.0,7.0,81.341492931939,babble-reversed_n13_p256-eight-p229-three-p307-nine-p245-five-p248-four-p268-two.wav,0,RX81,1,0.0,0.0,2.0,84.40078082039426,mgb_normalisation,84.40078082039426,90.34149293193902,9,9.0,True,1.0624256134033203
,2024-07-11 10:22:32,sub_108,3,distance,cathedral,spatial_unmasking,4,155,0,0,_four_,talker-p284_sex-f_text-_four_.wav,p284,f,5,13,2.0,7.0,RX81,6,0.0,0.0,7.0,81.341492931939,babble-reversed_n13_p229-nine-p318-one-p307-two-p248-eight-p245-five-p284-four.wav,0,RX81,1,0.0,0.0,2.0,84.40078082039426,mgb_normalisation,84.40078082039426,90.34149293193902,4,2.0,False,1.0624253749847412
,2024-07-11 10:22:36,sub_108,3,distance,cathedral,spatial_unmasking,4,156,0,0,_eight_,talker-p284_sex-f_text-_eight_.wav,p284,f,5,14,2.0,7.0,RX81,6,0.0,0.0,7.0,82.341492931939,babble-reversed_n13_p229-one-p318-eight-p256-three-p268-nine-p248-five-p284-four.wav,0,RX81,1,0.0,0.0,2.0,84.40078082039426,mgb_normalisation,84.40078082039426,90.34149293193902,8,8.0,True,1.062424659729004
,2024-07-11 10:22:39,sub_108,3,distance,cathedral,spatial_unmasking,4,157,0,0,_one_,talker-p284_sex-f_text-_one_.wav,p284,f,5,15,2.0,7.0,RX81,6,0.0,0.0,7.0,82.34149293193902,babble-reversed_n13_p229-five-p318-two-p307-eight-p268-three-p248-four-p245-one.wav,0,RX81,1,0.0,0.0,2.0,84.40078082039427,mgb_normalisation,84.40078082039426,90.34149293193902,1,1.0,True,0.9374339580535888
,2024-07-11 10:22:43,sub_108,3,distance,cathedral,spatial_unmasking,4,158,0,0,_three_,talker-p284_sex-f_text-_three_.wav,p284,f,5,16,2.0,7.0,RX81,6,0.0,0.0,7.0,81.34149293193902,babble-reversed_n13_p229-five-p318-three-p307-two-p245-four-p284-nine-p248-eight.wav,0,RX81,1,0.0,0.0,2.0,84.40078082039426,mgb_normalisation,84.40078082039426,90.34149293193902,3,2.0,False,1.4998936653137207
,2024-07-11 10:22:47,sub_108,3,distance,cathedral,spatial_unmasking,4,159,0,0,_eight_,talker-p284_sex-f_text-_eight_.wav,p284,f,5,17,2.0,7.0,RX81,6,0.0,0.0,7.0,82.341492931939,babble-reversed_n13_p307-nine-p229-one-p256-eight-p248-four-p284-two-p268-three.wav,0,RX81,1,0.0,0.0,2.0,84.40078082039426,mgb_normalisation,84.40078082039426,90.34149293193902,8,8.0,True,1.4998939037322998
,2024-07-11 10:22:50,sub_108,3,distance,cathedral,spatial_unmasking,4,160,0,0,_five_,talker-p284_sex-f_text-_five_.wav,p284,f,5,18,2.0,7.0,RX81,6,0.0,0.0,7.0,82.34149293193902,babble-reversed_n13_p256-two-p307-five-p318-nine-p248-eight-p245-four-p284-one.wav,0,RX81,1,0.0,0.0,2.0,84.40078082039426,mgb_normalisation,84.40078082039426,90.34149293193902,5,5.0,True,1.2499117851257324
,2024-07-11 10:22:55,sub_108,3,distance,cathedral,spatial_unmasking,4,161,0,0,_four_,talker-p284_sex-f_text-_four_.wav,p284,f,5,19,2.0,7.0,RX81,6,0.0,0.0,7.0,81.341492931939,babble-reversed_n13_p229-five-p256-one-p318-three-p248-nine-p268-four-p284-eight.wav,0,RX81,1,0.0,0.0,2.0,84.40078082039426,mgb_normalisation,84.40078082039426,90.34149293193902,4,2.0,False,2.1873457431793213
,2024-07-11 10:22:59,sub_108,3,distance,cathedral,spatial_unmasking,4,162,0,0,_two_,talker-p284_sex-f_text-_two_.wav,p284,f,5,20,2.0,7.0,RX81,6,0.0,0.0,7.0,82.34149293193902,babble-reversed_n13_p229-nine-p256-four-p318-three-p268-eight-p248-two-p284-five.wav,0,RX81,1,0.0,0.0,2.0,84.40078082039426,mgb_normalisation,84.40078082039426,90.34149293193902,2,2.0,True,1.3749029636383057
,2024-07-11 10:23:02,sub_108,3,distance,cathedral,spatial_unmasking,4,163,0,0,_three_,talker-p284_sex-f_text-_three_.wav,p284,f,5,21,2.0,7.0,RX81,6,0.0,0.0,7.0,82.34149293193902,babble-reversed_n13_p318-three-p229-one-p256-eight-p245-five-p248-four-p284-nine.wav,0,RX81,1,0.0,0.0,2.0,84.40078082039427,mgb_normalisation,84.40078082039426,90.34149293193902,3,3.0,True,1.062424659729004
,2024-07-11 10:23:06,sub_108,3,distance,cathedral,spatial_unmasking,4,164,0,0,_one_,talker-p284_sex-f_text-_one_.wav,p284,f,5,22,2.0,7.0,RX81,6,0.0,0.0,7.0,81.34149293193902,babble-reversed_n13_p229-eight-p256-nine-p318-four-p245-three-p268-five-p284-two.wav,0,RX81,1,0.0,0.0,2.0,84.40078082039426,mgb_normalisation,84.40078082039426,90.34149293193902,1,1.0,True,1.1874172687530518
,2024-07-11 10:23:10,sub_108,3,distance,cathedral,spatial_unmasking,4,165,0,0,_eight_,talker-p284_sex-f_text-_eight_.wav,p284,f,5,23,2.0,7.0,RX81,6,0.0,0.0,7.0,81.341492931939,babble-reversed_n13_p318-three-p307-one-p256-five-p248-nine-p245-two-p284-eight.wav,0,RX81,1,0.0,0.0,2.0,84.40078082039426,mgb_normalisation,84.40078082039426,90.34149293193902,8,8.0,True,2.3123364448547363
,2024-07-11 10:23:15,sub_108,3,distance,cathedral,spatial_unmasking,4,166,0,0,_eight_,talker-p284_sex-f_text-_eight_.wav,p284,f,5,24,2.0,7.0,RX81,6,0.0,0.0,7.0,80.341492931939,babble-reversed_n13_p256-nine-p307-four-p229-one-p284-three-p248-two-p245-five.wav,0,RX81,1,0.0,0.0,2.0,84.40078082039427,mgb_normalisation,84.40078082039426,90.34149293193902,8,8.0,True,2.124850511550904
,2024-07-11 10:23:19,sub_108,3,distance,cathedral,spatial_unmasking,4,167,0,0,_eight_,talker-p284_sex-f_text-_eight_.wav,p284,f,5,25,2.0,7.0,RX81,6,0.0,0.0,7.0,80.341492931939,babble-reversed_n13_p229-three-p256-one-p307-two-p284-eight-p268-five-p248-nine.wav,0,RX81,1,0.0,0.0,2.0,84.40078082039426,mgb_normalisation,84.40078082039426,90.34149293193902,8,8.0,True,1.8748681545257568
,2024-07-11 10:23:23,sub_108,3,distance,cathedral,spatial_unmasking,4,168,0,0,_four_,talker-p284_sex-f_text-_four_.wav,p284,f,5,26,2.0,7.0,RX81,6,0.0,0.0,7.0,79.341492931939,babble-reversed_n13_p229-two-p307-five-p318-four-p284-one-p248-nine-p268-eight.wav,0,RX81,1,0.0,0.0,2.0,84.40078082039426,mgb_normalisation,84.40078082039426,90.34149293193902,4,1.0,False,1.1874163150787354
,2024-07-11 10:23:27,sub_108,3,distance,cathedral,spatial_unmasking,4,169,0,0,_one_,talker-p284_sex-f_text-_one_.wav,p284,f,5,27,2.0,7.0,RX81,6,0.0,0.0,7.0,80.34149293193903,babble-reversed_n13_p229-eight-p256-nine-p318-four-p245-three-p268-five-p284-two.wav,0,RX81,1,0.0,0.0,2.0,84.40078082039426,mgb_normalisation,84.40078082039426,90.34149293193902,1,1.0,True,1.562389612197876
,2024-07-11 10:23:30,sub_108,3,distance,cathedral,spatial_unmasking,4,170,0,0,_two_,talker-p284_sex-f_text-_two_.wav,p284,f,5,28,2.0,7.0,RX81,6,0.0,0.0,7.0,80.34149293193903,babble-reversed_n13_p229-three-p307-one-p318-two-p245-eight-p268-five-p284-four.wav,0,RX81,1,0.0,0.0,2.0,84.40078082039426,mgb_normalisation,84.40078082039426,90.34149293193902,2,2.0,True,1.0624253749847412
,2024-07-11 10:24:53,sub_108,3,distance,cathedral,spatial_unmasking,5,171,0,0,_two_,talker-p284_sex-f_text-_two_.wav,p284,f,5,1,8.0,7.0,RX81,6,0.0,0.0,7.0,92.34149293193902,babble-reversed_n13_p229-nine-p256-four-p318-three-p268-eight-p248-two-p284-five.wav,6,RX81,7,0.0,0.0,8.0,91.58892582949888,mgb_normalisation,91.58892582949886,90.34149293193902,2,2.0,True,1.2499122619628906
,2024-07-11 10:24:57,sub_108,3,distance,cathedral,spatial_unmasking,5,172,0,0,_three_,talker-p284_sex-f_text-_three_.wav,p284,f,5,2,8.0,7.0,RX81,6,0.0,0.0,7.0,88.34149293193903,babble-reversed_n13_p307-nine-p318-two-p256-one-p245-three-p268-four-p248-eight.wav,6,RX81,7,0.0,0.0,8.0,91.58892582949886,mgb_normalisation,91.58892582949886,90.34149293193902,3,3.0,True,0.9374089241027832
,2024-07-11 10:25:00,sub_108,3,distance,cathedral,spatial_unmasking,5,173,0,0,_three_,talker-p284_sex-f_text-_three_.wav,p284,f,5,3,8.0,7.0,RX81,6,0.0,0.0,7.0,84.34149293193903,babble-reversed_n13_p229-five-p318-three-p307-two-p245-four-p284-nine-p248-eight.wav,6,RX81,7,0.0,0.0,8.0,91.58892582949886,mgb_normalisation,91.58892582949886,90.34149293193902,3,3.0,True,1.1874167919158936
,2024-07-11 10:25:05,sub_108,3,distance,cathedral,spatial_unmasking,5,174,0,0,_eight_,talker-p284_sex-f_text-_eight_.wav,p284,f,5,4,8.0,7.0,RX81,6,0.0,0.0,7.0,80.341492931939,babble-reversed_n13_p256-eight-p229-three-p307-nine-p245-five-p248-four-p268-two.wav,6,RX81,7,0.0,0.0,8.0,91.58892582949886,mgb_normalisation,91.58892582949886,90.34149293193902,8,8.0,True,2.249841928482056
,2024-07-11 10:25:09,sub_108,3,distance,cathedral,spatial_unmasking,5,175,0,0,_three_,talker-p284_sex-f_text-_three_.wav,p284,f,5,5,8.0,7.0,RX81,6,0.0,0.0,7.0,76.34149293193902,babble-reversed_n13_p307-one-p318-five-p229-four-p268-eight-p284-two-p245-three.wav,6,RX81,7,0.0,0.0,8.0,91.58892582949886,mgb_normalisation,91.58892582949886,90.34149293193902,3,3.0,True,1.6873807907104492
,2024-07-11 10:25:13,sub_108,3,distance,cathedral,spatial_unmasking,5,176,0,0,_three_,talker-p284_sex-f_text-_three_.wav,p284,f,5,6,8.0,7.0,RX81,6,0.0,0.0,7.0,72.34149293193903,babble-reversed_n13_p229-eight-p256-nine-p318-four-p245-three-p268-five-p284-two.wav,6,RX81,7,0.0,0.0,8.0,91.58892582949886,mgb_normalisation,91.58892582949886,90.34149293193902,3,3.0,True,1.7498760223388672
,2024-07-11 10:25:18,sub_108,3,distance,cathedral,spatial_unmasking,5,177,0,0,_nine_,talker-p284_sex-f_text-_nine_.wav,p284,f,5,7,8.0,7.0,RX81,6,0.0,0.0,7.0,68.34149293193902,babble-reversed_n13_p307-one-p318-five-p229-four-p268-eight-p284-two-p245-three.wav,6,RX81,7,0.0,0.0,8.0,91.58892582949886,mgb_normalisation,91.58892582949886,90.34149293193902,9,1.0,False,2.124821424484253
,2024-07-11 10:25:24,sub_108,3,distance,cathedral,spatial_unmasking,5,178,0,0,_five_,talker-p284_sex-f_text-_five_.wav,p284,f,5,8,8.0,7.0,RX81,6,0.0,0.0,7.0,70.34149293193902,babble-reversed_n13_p307-two-p256-four-p318-three-p284-eight-p248-five-p245-nine.wav,6,RX81,7,0.0,0.0,8.0,91.58892582949888,mgb_normalisation,91.58892582949886,90.34149293193902,5,3.0,False,4.249699115753174
,2024-07-11 10:25:30,sub_108,3,distance,cathedral,spatial_unmasking,5,179,0,0,_six_,talker-p284_sex-f_text-_six_.wav,p284,f,5,9,8.0,7.0,RX81,6,0.0,0.0,7.0,72.341492931939,babble-reversed_n13_p229-one-p318-eight-p256-three-p268-two-p245-five-p248-nine.wav,6,RX81,7,0.0,0.0,8.0,91.58892582949886,mgb_normalisation,91.58892582949886,90.34149293193902,6,6.0,True,3.499754905700684
,2024-07-11 10:25:34,sub_108,3,distance,cathedral,spatial_unmasking,5,180,0,0,_six_,talker-p284_sex-f_text-_six_.wav,p284,f,5,10,8.0,7.0,RX81,6,0.0,0.0,7.0,72.341492931939,babble-reversed_n13_p256-five-p307-nine-p318-three-p284-eight-p268-one-p248-two.wav,6,RX81,7,0.0,0.0,8.0,91.58892582949886,mgb_normalisation,91.58892582949886,90.34149293193902,6,1.0,False,1.874922752380371
,2024-07-11 10:25:38,sub_108,3,distance,cathedral,spatial_unmasking,5,181,0,0,_one_,talker-p284_sex-f_text-_one_.wav,p284,f,5,11,8.0,7.0,RX81,6,0.0,0.0,7.0,74.34149293193902,babble-reversed_n13_p256-two-p307-five-p318-nine-p248-eight-p245-four-p284-one.wav,6,RX81,7,0.0,0.0,8.0,91.58892582949888,mgb_normalisation,91.58892582949886,90.34149293193902,1,1.0,True,1.499891996383667
,2024-07-11 10:25:42,sub_108,3,distance,cathedral,spatial_unmasking,5,182,0,0,_two_,talker-p284_sex-f_text-_two_.wav,p284,f,5,12,8.0,7.0,RX81,6,0.0,0.0,7.0,74.34149293193902,babble-reversed_n13_p318-five-p229-three-p256-four-p268-eight-p248-one-p245-nine.wav,6,RX81,7,0.0,0.0,8.0,91.58892582949888,mgb_normalisation,91.58892582949886,90.34149293193902,2,2.0,True,1.2499120235443115
,2024-07-11 10:25:46,sub_108,3,distance,cathedral,spatial_unmasking,5,183,0,0,_nine_,talker-p284_sex-f_text-_nine_.wav,p284,f,5,13,8.0,7.0,RX81,6,0.0,0.0,7.0,72.341492931939,babble-reversed_n13_p256-four-p229-eight-p307-five-p248-three-p245-one-p284-two.wav,6,RX81,7,0.0,0.0,8.0,91.58892582949886,mgb_normalisation,91.58892582949886,90.34149293193902,9,1.0,False,2.0624170303344727
,2024-07-11 10:25:51,sub_108,3,distance,cathedral,spatial_unmasking,5,184,0,0,_nine_,talker-p284_sex-f_text-_nine_.wav,p284,f,5,14,8.0,7.0,RX81,6,0.0,0.0,7.0,73.34149293193902,babble-reversed_n13_p307-four-p318-three-p256-eight-p284-two-p245-nine-p248-five.wav,6,RX81,7,0.0,0.0,8.0,91.58892582949886,mgb_normalisation,91.58892582949886,90.34149293193902,9,1.0,False,2.624814987182617
,2024-07-11 10:25:56,sub_108,3,distance,cathedral,spatial_unmasking,5,185,0,0,_one_,talker-p284_sex-f_text-_one_.wav,p284,f,5,15,8.0,7.0,RX81,6,0.0,0.0,7.0,74.34149293193902,babble-reversed_n13_p229-nine-p318-one-p307-two-p248-eight-p245-five-p284-four.wav,6,RX81,7,0.0,0.0,8.0,91.58892582949886,mgb_normalisation,91.58892582949886,90.34149293193902,1,1.0,True,2.312400579452514
,2024-07-11 10:26:00,sub_108,3,distance,cathedral,spatial_unmasking,5,186,0,0,_one_,talker-p284_sex-f_text-_one_.wav,p284,f,5,16,8.0,7.0,RX81,6,0.0,0.0,7.0,74.34149293193902,babble-reversed_n13_p229-one-p318-eight-p256-three-p268-nine-p248-five-p284-four.wav,6,RX81,7,0.0,0.0,8.0,91.58892582949886,mgb_normalisation,91.58892582949886,90.34149293193902,1,1.0,True,1.562325954437256
,2024-07-11 10:26:04,sub_108,3,distance,cathedral,spatial_unmasking,5,187,0,0,_one_,talker-p284_sex-f_text-_one_.wav,p284,f,5,17,8.0,7.0,RX81,6,0.0,0.0,7.0,73.34149293193902,babble-reversed_n13_p318-five-p256-nine-p307-eight-p248-two-p245-four-p284-three.wav,6,RX81,7,0.0,0.0,8.0,91.58892582949886,mgb_normalisation,91.58892582949886,90.34149293193902,1,2.0,False,1.5624120235443115
,2024-07-11 10:26:09,sub_108,3,distance,cathedral,spatial_unmasking,5,188,0,0,_eight_,talker-p284_sex-f_text-_eight_.wav,p284,f,5,18,8.0,7.0,RX81,6,0.0,0.0,7.0,74.341492931939,babble-reversed_n13_p318-one-p307-two-p256-eight-p284-three-p248-five-p245-four.wav,6,RX81,7,0.0,0.0,8.0,91.58892582949888,mgb_normalisation,91.58892582949886,90.34149293193902,8,2.0,False,2.113269090652466
,2024-07-11 10:26:12,sub_108,3,distance,cathedral,spatial_unmasking,5,189,0,0,_two_,talker-p284_sex-f_text-_two_.wav,p284,f,5,19,8.0,7.0,RX81,6,0.0,0.0,7.0,75.34149293193903,babble-reversed_n13_p307-five-p229-two-p318-four-p248-three-p245-nine-p268-eight.wav,6,RX81,7,0.0,0.0,8.0,91.58892582949886,mgb_normalisation,91.58892582949886,90.34149293193902,2,6.0,False,1.499894142150879
,2024-07-11 10:26:16,sub_108,3,distance,cathedral,spatial_unmasking,5,190,0,0,_nine_,talker-p284_sex-f_text-_nine_.wav,p284,f,5,20,8.0,7.0,RX81,6,0.0,0.0,7.0,76.34149293193902,babble-reversed_n13_p229-five-p318-three-p307-two-p245-four-p284-nine-p248-eight.wav,6,RX81,7,0.0,0.0,8.0,91.58892582949886,mgb_normalisation,91.58892582949886,90.34149293193902,9,2.0,False,1.6248819828033447
,2024-07-11 10:26:21,sub_108,3,distance,cathedral,spatial_unmasking,5,191,0,0,_one_,talker-p284_sex-f_text-_one_.wav,p284,f,5,21,8.0,7.0,RX81,6,0.0,0.0,7.0,77.34149293193902,babble-reversed_n13_p229-two-p318-eight-p256-three-p268-one-p248-nine-p284-five.wav,6,RX81,7,0.0,0.0,8.0,91.58892582949886,mgb_normalisation,91.58892582949886,90.34149293193902,1,1.0,True,2.1873457431793213
,2024-07-11 10:26:29,sub_108,3,distance,cathedral,spatial_unmasking,5,192,0,0,_one_,talker-p284_sex-f_text-_one_.wav,p284,f,5,22,8.0,7.0,RX81,6,0.0,0.0,7.0,77.34149293193902,babble-reversed_n13_p256-three-p318-two-p229-nine-p248-four-p284-one-p268-eight.wav,6,RX81,7,0.0,0.0,8.0,91.58892582949886,mgb_normalisation,91.58892582949886,90.34149293193902,1,6.0,False,5.874584913253784
,2024-07-11 10:26:33,sub_108,3,distance,cathedral,spatial_unmasking,5,193,0,0,_two_,talker-p284_sex-f_text-_two_.wav,p284,f,5,23,8.0,7.0,RX81,6,0.0,0.0,7.0,78.34149293193902,babble-reversed_n13_p318-five-p229-four-p256-eight-p284-one-p245-three-p248-two.wav,6,RX81,7,0.0,0.0,8.0,91.58892582949888,mgb_normalisation,91.58892582949886,90.34149293193902,2,2.0,True,1.624884843826294
,2024-07-11 10:26:37,sub_108,3,distance,cathedral,spatial_unmasking,5,194,0,0,_one_,talker-p284_sex-f_text-_one_.wav,p284,f,5,24,8.0,7.0,RX81,6,0.0,0.0,7.0,78.34149293193902,babble-reversed_n13_p318-three-p229-one-p256-eight-p245-five-p248-four-p284-nine.wav,6,RX81,7,0.0,0.0,8.0,91.58892582949888,mgb_normalisation,91.58892582949886,90.34149293193902,1,1.0,True,1.374903440475464
,2024-07-11 10:26:41,sub_108,3,distance,cathedral,spatial_unmasking,5,195,0,0,_six_,talker-p284_sex-f_text-_six_.wav,p284,f,5,25,8.0,7.0,RX81,6,0.0,0.0,7.0,77.341492931939,babble-reversed_n13_p229-two-p307-five-p318-four-p284-one-p248-nine-p268-eight.wav,6,RX81,7,0.0,0.0,8.0,91.58892582949888,mgb_normalisation,91.58892582949886,90.34149293193902,6,5.0,False,1.437398910522461
,2024-07-11 10:26:45,sub_108,3,distance,cathedral,spatial_unmasking,5,196,0,0,_two_,talker-p284_sex-f_text-_two_.wav,p284,f,5,26,8.0,7.0,RX81,6,0.0,0.0,7.0,78.34149293193902,babble-reversed_n13_p256-eight-p318-five-p307-four-p245-three-p268-one-p284-nine.wav,6,RX81,7,0.0,0.0,8.0,91.58892582949886,mgb_normalisation,91.58892582949886,90.34149293193902,2,2.0,True,1.874892234802246
,2024-07-11 10:26:49,sub_108,3,distance,cathedral,spatial_unmasking,5,197,0,0,_one_,talker-p284_sex-f_text-_one_.wav,p284,f,5,27,8.0,7.0,RX81,6,0.0,0.0,7.0,78.34149293193902,babble-reversed_n13_p229-five-p256-three-p318-nine-p248-two-p284-four-p268-one.wav,6,RX81,7,0.0,0.0,8.0,91.58892582949888,mgb_normalisation,91.58892582949886,90.34149293193902,1,1.0,True,1.4999186992645264
,2024-07-11 10:26:53,sub_108,3,distance,cathedral,spatial_unmasking,5,198,0,0,_three_,talker-p284_sex-f_text-_three_.wav,p284,f,5,28,8.0,7.0,RX81,6,0.0,0.0,7.0,77.34149293193903,babble-reversed_n13_p318-four-p256-five-p229-three-p284-one-p245-eight-p248-nine.wav,6,RX81,7,0.0,0.0,8.0,91.58892582949888,mgb_normalisation,91.58892582949886,90.34149293193902,3,3.0,True,1.3749029636383057
,2024-07-11 10:26:59,sub_108,3,distance,cathedral,spatial_unmasking,5,199,0,0,_eight_,talker-p284_sex-f_text-_eight_.wav,p284,f,5,29,8.0,7.0,RX81,6,0.0,0.0,7.0,77.341492931939,babble-reversed_n13_p307-five-p229-three-p318-nine-p245-four-p268-eight-p284-two.wav,6,RX81,7,0.0,0.0,8.0,91.58892582949886,mgb_normalisation,91.58892582949886,90.34149293193902,8,5.0,False,4.124711513519287
,2024-07-11 10:27:04,sub_108,3,distance,cathedral,spatial_unmasking,5,200,0,0,_two_,talker-p284_sex-f_text-_two_.wav,p284,f,5,30,8.0,7.0,RX81,6,0.0,0.0,7.0,78.34149293193902,babble-reversed_n13_p229-nine-p307-five-p256-two-p248-three-p245-one-p268-eight.wav,6,RX81,7,0.0,0.0,8.0,91.58892582949886,mgb_normalisation,91.58892582949886,90.34149293193902,2,2.0,True,1.8123722076416016
,2024-07-11 10:27:07,sub_108,3,distance,cathedral,spatial_unmasking,5,201,0,0,_six_,talker-p284_sex-f_text-_six_.wav,p284,f,5,31,8.0,7.0,RX81,6,0.0,0.0,7.0,78.34149293193902,babble-reversed_n13_p229-nine-p307-five-p256-two-p248-three-p245-one-p268-eight.wav,6,RX81,7,0.0,0.0,8.0,91.58892582949886,mgb_normalisation,91.58892582949886,90.34149293193902,6,6.0,True,1.499894380569458
,2024-07-11 10:27:11,sub_108,3,distance,cathedral,spatial_unmasking,5,202,0,0,_two_,talker-p284_sex-f_text-_two_.wav,p284,f,5,32,8.0,7.0,RX81,6,0.0,0.0,7.0,77.34149293193902,babble-reversed_n13_p229-nine-p256-four-p318-three-p268-eight-p248-two-p284-five.wav,6,RX81,7,0.0,0.0,8.0,91.58892582949888,mgb_normalisation,91.58892582949886,90.34149293193902,2,2.0,True,1.1874167919158936
,2024-07-11 10:27:15,sub_108,3,distance,cathedral,spatial_unmasking,5,203,0,0,_three_,talker-p284_sex-f_text-_three_.wav,p284,f,5,33,8.0,7.0,RX81,6,0.0,0.0,7.0,77.34149293193903,babble-reversed_n13_p229-one-p318-eight-p256-three-p268-nine-p248-five-p284-four.wav,6,RX81,7,0.0,0.0,8.0,91.58892582949886,mgb_normalisation,91.58892582949886,90.34149293193902,3,3.0,True,1.374903678894043
,2024-07-11 10:27:18,sub_108,3,distance,cathedral,spatial_unmasking,5,204,0,0,_five_,talker-p284_sex-f_text-_five_.wav,p284,f,5,34,8.0,7.0,RX81,6,0.0,0.0,7.0,76.34149293193902,babble-reversed_n13_p229-two-p256-three-p318-eight-p284-five-p268-four-p245-one.wav,6,RX81,7,0.0,0.0,8.0,91.58892582949888,mgb_normalisation,91.58892582949886,90.34149293193902,5,5.0,True,1.1873528957366943
,2024-07-11 10:27:23,sub_108,3,distance,cathedral,spatial_unmasking,5,205,0,0,_four_,talker-p284_sex-f_text-_four_.wav,p284,f,5,35,8.0,7.0,RX81,6,0.0,0.0,7.0,76.34149293193902,babble-reversed_n13_p318-five-p256-nine-p307-two-p245-eight-p248-one-p284-four.wav,6,RX81,7,0.0,0.0,8.0,91.58892582949888,mgb_normalisation,91.58892582949886,90.34149293193902,4,2.0,False,2.4373278617858887
,2024-07-11 10:27:27,sub_108,3,distance,cathedral,spatial_unmasking,5,206,0,0,_five_,talker-p284_sex-f_text-_five_.wav,p284,f,5,36,8.0,7.0,RX81,6,0.0,0.0,7.0,77.34149293193902,babble-reversed_n13_p307-nine-p229-one-p256-eight-p248-four-p284-two-p268-three.wav,6,RX81,7,0.0,0.0,8.0,91.58892582949888,mgb_normalisation,91.58892582949886,90.34149293193902,5,5.0,True,1.6873810291290283
,2024-07-11 10:27:31,sub_108,3,distance,cathedral,spatial_unmasking,5,207,0,0,_four_,talker-p284_sex-f_text-_four_.wav,p284,f,5,37,8.0,7.0,RX81,6,0.0,0.0,7.0,77.341492931939,babble-reversed_n13_p229-five-p318-three-p307-two-p245-four-p284-nine-p248-eight.wav,6,RX81,7,0.0,0.0,8.0,91.58892582949886,mgb_normalisation,91.58892582949886,90.34149293193902,4,2.0,False,1.5623908042907717
,2024-07-11 10:27:36,sub_108,3,distance,cathedral,spatial_unmasking,5,208,0,0,_five_,talker-p284_sex-f_text-_five_.wav,p284,f,5,38,8.0,7.0,RX81,6,0.0,0.0,7.0,78.34149293193902,babble-reversed_n13_p229-one-p318-eight-p256-three-p268-two-p245-five-p248-nine.wav,6,RX81,7,0.0,0.0,8.0,91.58892582949886,mgb_normalisation,91.58892582949886,90.34149293193902,5,9.0,False,2.187347412109375
,2024-07-11 10:27:40,sub_108,3,distance,cathedral,spatial_unmasking,5,209,0,0,_six_,talker-p284_sex-f_text-_six_.wav,p284,f,5,39,8.0,7.0,RX81,6,0.0,0.0,7.0,79.341492931939,babble-reversed_n13_p256-three-p318-one-p307-two-p284-nine-p268-four-p245-eight.wav,6,RX81,7,0.0,0.0,8.0,91.58892582949888,mgb_normalisation,91.58892582949886,90.34149293193902,6,6.0,True,1.562389612197876
,2024-07-11 10:27:43,sub_108,3,distance,cathedral,spatial_unmasking,5,210,0,0,_three_,talker-p284_sex-f_text-_three_.wav,p284,f,5,40,8.0,7.0,RX81,6,0.0,0.0,7.0,79.34149293193903,babble-reversed_n13_p307-five-p229-three-p318-nine-p245-four-p268-eight-p284-two.wav,6,RX81,7,0.0,0.0,8.0,91.58892582949886,mgb_normalisation,91.58892582949886,90.34149293193902,3,3.0,True,1.2499122619628906
,2024-07-11 10:29:34,sub_108,3,distance,cathedral,spatial_unmasking,6,211,0,0,_four_,talker-p284_sex-f_text-_four_.wav,p284,f,5,1,6.0,7.0,RX81,6,0.0,0.0,7.0,92.34149293193902,babble-reversed_n13_p256-three-p318-one-p307-two-p284-nine-p268-four-p245-eight.wav,4,RX81,5,0.0,0.0,6.0,89.31368318402099,mgb_normalisation,89.31368318402099,90.34149293193902,4,2.0,False,1.5623891353607178
,2024-07-11 10:29:37,sub_108,3,distance,cathedral,spatial_unmasking,6,212,0,0,_three_,talker-p284_sex-f_text-_three_.wav,p284,f,5,2,6.0,7.0,RX81,6,0.0,0.0,7.0,94.34149293193904,babble-reversed_n13_p307-one-p318-five-p229-four-p268-eight-p284-two-p245-three.wav,4,RX81,5,0.0,0.0,6.0,89.31368318402099,mgb_normalisation,89.31368318402099,90.34149293193902,3,3.0,True,1.1874165534973145
,2024-07-11 10:29:41,sub_108,3,distance,cathedral,spatial_unmasking,6,213,0,0,_four_,talker-p284_sex-f_text-_four_.wav,p284,f,5,3,6.0,7.0,RX81,6,0.0,0.0,7.0,94.341492931939,babble-reversed_n13_p307-five-p229-two-p318-four-p248-three-p245-nine-p268-eight.wav,4,RX81,5,0.0,0.0,6.0,89.31368318402099,mgb_normalisation,89.31368318402099,90.34149293193902,4,2.0,False,1.437398910522461
,2024-07-11 10:29:45,sub_108,3,distance,cathedral,spatial_unmasking,6,214,0,0,_eight_,talker-p284_sex-f_text-_eight_.wav,p284,f,5,4,6.0,7.0,RX81,6,0.0,0.0,7.0,96.341492931939,babble-reversed_n13_p229-one-p318-eight-p256-three-p268-two-p245-five-p248-nine.wav,4,RX81,5,0.0,0.0,6.0,89.31368318402099,mgb_normalisation,89.31368318402099,90.34149293193902,8,8.0,True,1.437398910522461
,2024-07-11 10:29:49,sub_108,3,distance,cathedral,spatial_unmasking,6,215,0,0,_one_,talker-p284_sex-f_text-_one_.wav,p284,f,5,5,6.0,7.0,RX81,6,0.0,0.0,7.0,96.34149293193902,babble-reversed_n13_p318-nine-p256-five-p307-eight-p268-three-p248-one-p245-four.wav,4,RX81,5,0.0,0.0,6.0,89.31368318402099,mgb_normalisation,89.31368318402099,90.34149293193902,1,1.0,True,1.2499120235443115
,2024-07-11 10:29:53,sub_108,3,distance,cathedral,spatial_unmasking,6,216,0,0,_one_,talker-p284_sex-f_text-_one_.wav,p284,f,5,6,6.0,7.0,RX81,6,0.0,0.0,7.0,94.341492931939,babble-reversed_n13_p229-nine-p256-four-p318-three-p268-eight-p248-two-p284-five.wav,4,RX81,5,0.0,0.0,6.0,89.31368318402099,mgb_normalisation,89.31368318402099,90.34149293193902,1,1.0,True,1.562388896942139
,2024-07-11 10:29:57,sub_108,3,distance,cathedral,spatial_unmasking,6,217,0,0,_three_,talker-p284_sex-f_text-_three_.wav,p284,f,5,7,6.0,7.0,RX81,6,0.0,0.0,7.0,94.34149293193904,babble-reversed_n13_p307-nine-p229-one-p256-eight-p248-four-p284-two-p268-three.wav,4,RX81,5,0.0,0.0,6.0,89.31368318402099,mgb_normalisation,89.31368318402099,90.34149293193902,3,3.0,True,1.3749032020568848
,2024-07-11 10:30:00,sub_108,3,distance,cathedral,spatial_unmasking,6,218,0,0,_eight_,talker-p284_sex-f_text-_eight_.wav,p284,f,5,8,6.0,7.0,RX81,6,0.0,0.0,7.0,92.341492931939,babble-reversed_n13_p256-three-p318-one-p307-two-p284-nine-p268-four-p245-eight.wav,4,RX81,5,0.0,0.0,6.0,89.31368318402099,mgb_normalisation,89.31368318402099,90.34149293193902,8,8.0,True,1.499894142150879
,2024-07-11 10:30:04,sub_108,3,distance,cathedral,spatial_unmasking,6,219,0,0,_five_,talker-p284_sex-f_text-_five_.wav,p284,f,5,9,6.0,7.0,RX81,6,0.0,0.0,7.0,92.34149293193902,babble-reversed_n13_p318-nine-p307-eight-p229-two-p284-one-p248-three-p245-five.wav,4,RX81,5,0.0,0.0,6.0,89.31368318402099,mgb_normalisation,89.31368318402099,90.34149293193902,5,5.0,True,1.3749661445617676
,2024-07-11 10:30:08,sub_108,3,distance,cathedral,spatial_unmasking,6,220,0,0,_three_,talker-p284_sex-f_text-_three_.wav,p284,f,5,10,6.0,7.0,RX81,6,0.0,0.0,7.0,90.34149293193904,babble-reversed_n13_p229-three-p256-one-p307-two-p284-eight-p268-five-p248-nine.wav,4,RX81,5,0.0,0.0,6.0,89.31368318402099,mgb_normalisation,89.31368318402099,90.34149293193902,3,3.0,True,1.4374642372131348
,2024-07-11 10:30:12,sub_108,3,distance,cathedral,spatial_unmasking,6,221,0,0,_five_,talker-p284_sex-f_text-_five_.wav,p284,f,5,11,6.0,7.0,RX81,6,0.0,0.0,7.0,90.34149293193904,babble-reversed_n13_p229-two-p318-eight-p256-three-p268-one-p248-nine-p284-five.wav,4,RX81,5,0.0,0.0,6.0,89.31368318402099,mgb_normalisation,89.31368318402099,90.34149293193902,5,5.0,True,1.4373338222503662
,2024-07-11 10:30:16,sub_108,3,distance,cathedral,spatial_unmasking,6,222,0,0,_six_,talker-p284_sex-f_text-_six_.wav,p284,f,5,12,6.0,7.0,RX81,6,0.0,0.0,7.0,88.34149293193902,babble-reversed_n13_p307-one-p318-five-p229-four-p268-eight-p284-two-p245-three.wav,4,RX81,5,0.0,0.0,6.0,89.31368318402099,mgb_normalisation,89.31368318402099,90.34149293193902,6,6.0,True,1.6873807907104492
,2024-07-11 10:30:20,sub_108,3,distance,cathedral,spatial_unmasking,6,223,0,0,_six_,talker-p284_sex-f_text-_six_.wav,p284,f,5,13,6.0,7.0,RX81,6,0.0,0.0,7.0,88.34149293193902,babble-reversed_n13_p229-nine-p256-four-p318-three-p268-eight-p248-two-p284-five.wav,4,RX81,5,0.0,0.0,6.0,89.31368318402099,mgb_normalisation,89.31368318402099,90.34149293193902,6,6.0,True,1.624884843826294
,2024-07-11 10:30:24,sub_108,3,distance,cathedral,spatial_unmasking,6,224,0,0,_five_,talker-p284_sex-f_text-_five_.wav,p284,f,5,14,6.0,7.0,RX81,6,0.0,0.0,7.0,86.34149293193902,babble-reversed_n13_p229-three-p256-nine-p318-five-p248-one-p245-eight-p284-two.wav,4,RX81,5,0.0,0.0,6.0,89.31368318402099,mgb_normalisation,89.31368318402099,90.34149293193902,5,5.0,True,1.7498762607574463
,2024-07-11 10:30:28,sub_108,3,distance,cathedral,spatial_unmasking,6,225,0,0,_eight_,talker-p284_sex-f_text-_eight_.wav,p284,f,5,15,6.0,7.0,RX81,6,0.0,0.0,7.0,86.341492931939,babble-reversed_n13_p307-five-p229-three-p318-nine-p245-four-p268-eight-p284-two.wav,4,RX81,5,0.0,0.0,6.0,89.31368318402099,mgb_normalisation,89.31368318402099,90.34149293193902,8,8.0,True,1.6873795986175537
,2024-07-11 10:30:32,sub_108,3,distance,cathedral,spatial_unmasking,6,226,0,0,_five_,talker-p284_sex-f_text-_five_.wav,p284,f,5,16,6.0,7.0,RX81,6,0.0,0.0,7.0,84.341492931939,babble-reversed_n13_p256-eight-p229-three-p307-nine-p245-five-p248-four-p268-two.wav,4,RX81,5,0.0,0.0,6.0,89.31368318402099,mgb_normalisation,89.31368318402099,90.34149293193902,5,5.0,True,1.4998934268951416
,2024-07-11 10:30:36,sub_108,3,distance,cathedral,spatial_unmasking,6,227,0,0,_nine_,talker-p284_sex-f_text-_nine_.wav,p284,f,5,17,6.0,7.0,RX81,6,0.0,0.0,7.0,84.341492931939,babble-reversed_n13_p229-three-p307-one-p318-two-p245-eight-p268-five-p284-four.wav,4,RX81,5,0.0,0.0,6.0,89.31368318402099,mgb_normalisation,89.31368318402099,90.34149293193902,9,9.0,True,1.5623877048492432
,2024-07-11 10:30:40,sub_108,3,distance,cathedral,spatial_unmasking,6,228,0,0,_two_,talker-p284_sex-f_text-_two_.wav,p284,f,5,18,6.0,7.0,RX81,6,0.0,0.0,7.0,82.34149293193902,babble-reversed_n13_p256-nine-p307-four-p229-one-p284-three-p248-two-p245-five.wav,4,RX81,5,0.0,0.0,6.0,89.31368318402099,mgb_normalisation,89.31368318402099,90.34149293193902,2,2.0,True,1.499894380569458
,2024-07-11 10:30:44,sub_108,3,distance,cathedral,spatial_unmasking,6,229,0,0,_nine_,talker-p284_sex-f_text-_nine_.wav,p284,f,5,19,6.0,7.0,RX81,6,0.0,0.0,7.0,82.34149293193902,babble-reversed_n13_p256-five-p229-one-p318-three-p248-nine-p284-eight-p268-two.wav,4,RX81,5,0.0,0.0,6.0,89.31368318402099,mgb_normalisation,89.31368318402099,90.34149293193902,9,9.0,True,1.4998939037322998
,2024-07-11 10:30:48,sub_108,3,distance,cathedral,spatial_unmasking,6,230,0,0,_nine_,talker-p284_sex-f_text-_nine_.wav,p284,f,5,20,6.0,7.0,RX81,6,0.0,0.0,7.0,80.341492931939,babble-reversed_n13_p256-four-p229-eight-p307-five-p248-three-p245-one-p284-two.wav,4,RX81,5,0.0,0.0,6.0,89.31368318402099,mgb_normalisation,89.31368318402099,90.34149293193902,9,9.0,True,1.6873831748962402
,2024-07-11 10:30:52,sub_108,3,distance,cathedral,spatial_unmasking,6,231,0,0,_four_,talker-p284_sex-f_text-_four_.wav,p284,f,5,21,6.0,7.0,RX81,6,0.0,0.0,7.0,80.341492931939,babble-reversed_n13_p229-two-p256-three-p318-eight-p284-five-p268-four-p245-one.wav,4,RX81,5,0.0,0.0,6.0,89.31368318402099,mgb_normalisation,89.31368318402099,90.34149293193902,4,2.0,False,1.7498769760131836
,2024-07-11 10:30:56,sub_108,3,distance,cathedral,spatial_unmasking,6,232,0,0,_two_,talker-p284_sex-f_text-_two_.wav,p284,f,5,22,6.0,7.0,RX81,6,0.0,0.0,7.0,81.34149293193902,babble-reversed_n13_p318-four-p256-five-p229-three-p284-one-p245-eight-p248-nine.wav,4,RX81,5,0.0,0.0,6.0,89.31368318402099,mgb_normalisation,89.31368318402099,90.34149293193902,2,2.0,True,1.4998958110809326
,2024-07-11 10:31:00,sub_108,3,distance,cathedral,spatial_unmasking,6,233,0,0,_nine_,talker-p284_sex-f_text-_nine_.wav,p284,f,5,23,6.0,7.0,RX81,6,0.0,0.0,7.0,81.341492931939,babble-reversed_n13_p229-two-p318-eight-p256-three-p268-one-p248-nine-p284-five.wav,4,RX81,5,0.0,0.0,6.0,89.31368318402099,mgb_normalisation,89.31368318402099,90.34149293193902,9,9.0,True,1.437373161315918
,2024-07-11 10:31:04,sub_108,3,distance,cathedral,spatial_unmasking,6,234,0,0,_one_,talker-p284_sex-f_text-_one_.wav,p284,f,5,24,6.0,7.0,RX81,6,0.0,0.0,7.0,80.34149293193903,babble-reversed_n13_p256-eight-p229-three-p307-nine-p245-five-p248-four-p268-two.wav,4,RX81,5,0.0,0.0,6.0,89.31368318402099,mgb_normalisation,89.31368318402099,90.34149293193902,1,1.0,True,1.3124072551727295
,2024-07-11 10:31:07,sub_108,3,distance,cathedral,spatial_unmasking,6,235,0,0,_eight_,talker-p284_sex-f_text-_eight_.wav,p284,f,5,25,6.0,7.0,RX81,6,0.0,0.0,7.0,80.341492931939,babble-reversed_n13_p229-five-p318-three-p307-two-p245-four-p284-nine-p248-eight.wav,4,RX81,5,0.0,0.0,6.0,89.31368318402099,mgb_normalisation,89.31368318402099,90.34149293193902,8,8.0,True,1.4373986721038818
,2024-07-11 10:31:11,sub_108,3,distance,cathedral,spatial_unmasking,6,236,0,0,_three_,talker-p284_sex-f_text-_three_.wav,p284,f,5,26,6.0,7.0,RX81,6,0.0,0.0,7.0,79.34149293193903,babble-reversed_n13_p256-two-p307-five-p318-nine-p248-eight-p245-four-p284-one.wav,4,RX81,5,0.0,0.0,6.0,89.31368318402099,mgb_normalisation,89.31368318402099,90.34149293193902,3,3.0,True,1.374903678894043
,2024-07-11 10:31:15,sub_108,3,distance,cathedral,spatial_unmasking,6,237,0,0,_nine_,talker-p284_sex-f_text-_nine_.wav,p284,f,5,27,6.0,7.0,RX81,6,0.0,0.0,7.0,79.341492931939,babble-reversed_n13_p229-two-p307-five-p318-four-p284-one-p248-nine-p268-eight.wav,4,RX81,5,0.0,0.0,6.0,89.31368318402099,mgb_normalisation,89.31368318402099,90.34149293193902,9,9.0,True,1.5624520778656006
,2024-07-11 10:31:19,sub_108,3,distance,cathedral,spatial_unmasking,6,238,0,0,_nine_,talker-p284_sex-f_text-_nine_.wav,p284,f,5,28,6.0,7.0,RX81,6,0.0,0.0,7.0,78.34149293193902,babble-reversed_n13_p229-two-p256-three-p318-eight-p284-five-p268-four-p245-one.wav,4,RX81,5,0.0,0.0,6.0,89.31368318402099,mgb_normalisation,89.31368318402099,90.34149293193902,9,9.0,True,1.7498762607574463
,2024-07-11 10:31:23,sub_108,3,distance,cathedral,spatial_unmasking,6,239,0,0,_six_,talker-p284_sex-f_text-_six_.wav,p284,f,5,29,6.0,7.0,RX81,6,0.0,0.0,7.0,78.34149293193902,babble-reversed_n13_p256-nine-p307-four-p229-one-p284-three-p248-two-p245-five.wav,4,RX81,5,0.0,0.0,6.0,89.31368318402099,mgb_normalisation,89.31368318402099,90.34149293193902,6,6.0,True,1.4998936653137207
,2024-07-11 10:31:27,sub_108,3,distance,cathedral,spatial_unmasking,6,240,0,0,_two_,talker-p284_sex-f_text-_two_.wav,p284,f,5,30,6.0,7.0,RX81,6,0.0,0.0,7.0,77.34149293193902,babble-reversed_n13_p256-two-p307-five-p318-nine-p248-eight-p245-four-p284-one.wav,4,RX81,5,0.0,0.0,6.0,89.31368318402099,mgb_normalisation,89.31368318402099,90.34149293193902,2,2.0,True,1.499894142150879
,2024-07-11 10:31:31,sub_108,3,distance,cathedral,spatial_unmasking,6,241,0,0,_five_,talker-p284_sex-f_text-_five_.wav,p284,f,5,31,6.0,7.0,RX81,6,0.0,0.0,7.0,77.34149293193902,babble-reversed_n13_p256-five-p229-one-p318-three-p248-nine-p284-eight-p268-two.wav,4,RX81,5,0.0,0.0,6.0,89.31368318402099,mgb_normalisation,89.31368318402099,90.34149293193902,5,5.0,True,1.5623900890350342
,2024-07-11 10:31:35,sub_108,3,distance,cathedral,spatial_unmasking,6,242,0,0,_nine_,talker-p284_sex-f_text-_nine_.wav,p284,f,5,32,6.0,7.0,RX81,6,0.0,0.0,7.0,76.34149293193902,babble-reversed_n13_p256-five-p307-nine-p318-three-p284-eight-p268-one-p248-two.wav,4,RX81,5,0.0,0.0,6.0,89.31368318402099,mgb_normalisation,89.31368318402099,90.34149293193902,9,9.0,True,1.8123724460601809
,2024-07-11 10:31:39,sub_108,3,distance,cathedral,spatial_unmasking,6,243,0,0,_nine_,talker-p284_sex-f_text-_nine_.wav,p284,f,5,33,6.0,7.0,RX81,6,0.0,0.0,7.0,76.34149293193902,babble-reversed_n13_p318-four-p256-five-p229-three-p284-one-p245-eight-p248-nine.wav,4,RX81,5,0.0,0.0,6.0,89.31368318402099,mgb_normalisation,89.31368318402099,90.34149293193902,9,9.0,True,1.3124020099639893
,2024-07-11 10:31:43,sub_108,3,distance,cathedral,spatial_unmasking,6,244,0,0,_two_,talker-p284_sex-f_text-_two_.wav,p284,f,5,34,6.0,7.0,RX81,6,0.0,0.0,7.0,75.34149293193903,babble-reversed_n13_p229-two-p307-five-p318-four-p284-one-p248-nine-p268-eight.wav,4,RX81,5,0.0,0.0,6.0,89.31368318402099,mgb_normalisation,89.31368318402099,90.34149293193902,2,2.0,True,1.937363147735596
,2024-07-11 10:31:47,sub_108,3,distance,cathedral,spatial_unmasking,6,245,0,0,_one_,talker-p284_sex-f_text-_one_.wav,p284,f,5,35,6.0,7.0,RX81,6,0.0,0.0,7.0,75.34149293193902,babble-reversed_n13_p229-two-p256-three-p318-eight-p284-five-p268-four-p245-one.wav,4,RX81,5,0.0,0.0,6.0,89.31368318402099,mgb_normalisation,89.31368318402099,90.34149293193902,1,1.0,True,1.374903440475464
,2024-07-11 10:31:51,sub_108,3,distance,cathedral,spatial_unmasking,6,246,0,0,_three_,talker-p284_sex-f_text-_three_.wav,p284,f,5,36,6.0,7.0,RX81,6,0.0,0.0,7.0,74.34149293193903,babble-reversed_n13_p318-five-p256-nine-p307-eight-p248-two-p245-four-p284-three.wav,4,RX81,5,0.0,0.0,6.0,89.31368318402099,mgb_normalisation,89.31368318402099,90.34149293193902,3,2.0,False,1.3749024868011477
,2024-07-11 10:31:55,sub_108,3,distance,cathedral,spatial_unmasking,6,247,0,0,_eight_,talker-p284_sex-f_text-_eight_.wav,p284,f,5,37,6.0,7.0,RX81,6,0.0,0.0,7.0,75.341492931939,babble-reversed_n13_p229-two-p318-eight-p256-three-p268-one-p248-nine-p284-five.wav,4,RX81,5,0.0,0.0,6.0,89.31368318402099,mgb_normalisation,89.31368318402099,90.34149293193902,8,8.0,True,1.3124072551727295
,2024-07-11 10:31:59,sub_108,3,distance,cathedral,spatial_unmasking,6,248,0,0,_three_,talker-p284_sex-f_text-_three_.wav,p284,f,5,38,6.0,7.0,RX81,6,0.0,0.0,7.0,75.34149293193903,babble-reversed_n13_p307-four-p318-three-p256-eight-p284-two-p245-nine-p248-five.wav,4,RX81,5,0.0,0.0,6.0,89.31368318402099,mgb_normalisation,89.31368318402099,90.34149293193902,3,3.0,True,1.499895095825195
,2024-07-11 10:32:02,sub_108,3,distance,cathedral,spatial_unmasking,6,249,0,0,_two_,talker-p284_sex-f_text-_two_.wav,p284,f,5,39,6.0,7.0,RX81,6,0.0,0.0,7.0,74.34149293193902,babble-reversed_n13_p229-three-p307-one-p318-two-p245-eight-p268-five-p284-four.wav,4,RX81,5,0.0,0.0,6.0,89.31368318402099,mgb_normalisation,89.31368318402099,90.34149293193902,2,2.0,True,1.4374125003814695
,2024-07-11 10:32:06,sub_108,3,distance,cathedral,spatial_unmasking,6,250,0,0,_two_,talker-p284_sex-f_text-_two_.wav,p284,f,5,40,6.0,7.0,RX81,6,0.0,0.0,7.0,74.34149293193902,babble-reversed_n13_p229-nine-p256-four-p318-three-p268-eight-p248-two-p284-five.wav,4,RX81,5,0.0,0.0,6.0,89.31368318402099,mgb_normalisation,89.31368318402099,90.34149293193902,2,2.0,True,1.374903440475464
,2024-07-11 10:32:10,sub_108,3,distance,cathedral,spatial_unmasking,6,251,0,0,_two_,talker-p284_sex-f_text-_two_.wav,p284,f,5,41,6.0,7.0,RX81,6,0.0,0.0,7.0,73.34149293193902,babble-reversed_n13_p256-five-p229-one-p318-three-p248-nine-p284-eight-p268-two.wav,4,RX81,5,0.0,0.0,6.0,89.31368318402099,mgb_normalisation,89.31368318402099,90.34149293193902,2,3.0,False,1.624885082244873
,2024-07-11 10:32:14,sub_108,3,distance,cathedral,spatial_unmasking,6,252,0,0,_four_,talker-p284_sex-f_text-_four_.wav,p284,f,5,42,6.0,7.0,RX81,6,0.0,0.0,7.0,74.341492931939,babble-reversed_n13_p229-five-p256-three-p318-nine-p248-two-p284-four-p268-one.wav,4,RX81,5,0.0,0.0,6.0,89.313683184021,mgb_normalisation,89.31368318402099,90.34149293193902,4,2.0,False,1.3749027252197266
,2024-07-11 10:32:19,sub_108,3,distance,cathedral,spatial_unmasking,6,253,0,0,_four_,talker-p284_sex-f_text-_four_.wav,p284,f,5,43,6.0,7.0,RX81,6,0.0,0.0,7.0,75.341492931939,babble-reversed_n13_p229-five-p256-three-p318-nine-p248-two-p284-four-p268-one.wav,4,RX81,5,0.0,0.0,6.0,89.313683184021,mgb_normalisation,89.31368318402099,90.34149293193902,4,4.0,True,2.437328577041626
,2024-07-11 10:32:23,sub_108,3,distance,cathedral,spatial_unmasking,6,254,0,0,_nine_,talker-p284_sex-f_text-_nine_.wav,p284,f,5,44,6.0,7.0,RX81,6,0.0,0.0,7.0,75.34149293193902,babble-reversed_n13_p229-nine-p307-five-p256-two-p248-three-p245-one-p268-eight.wav,4,RX81,5,0.0,0.0,6.0,89.31368318402099,mgb_normalisation,89.31368318402099,90.34149293193902,9,5.0,False,2.187344551086426
,2024-07-11 10:32:27,sub_108,3,distance,cathedral,spatial_unmasking,6,255,0,0,_eight_,talker-p284_sex-f_text-_eight_.wav,p284,f,5,45,6.0,7.0,RX81,6,0.0,0.0,7.0,76.34149293193902,babble-reversed_n13_p307-two-p256-four-p318-three-p284-eight-p248-five-p245-nine.wav,4,RX81,5,0.0,0.0,6.0,89.313683184021,mgb_normalisation,89.31368318402099,90.34149293193902,8,8.0,True,1.499896764755249
,2024-07-11 10:32:31,sub_108,3,distance,cathedral,spatial_unmasking,6,256,0,0,_one_,talker-p284_sex-f_text-_one_.wav,p284,f,5,46,6.0,7.0,RX81,6,0.0,0.0,7.0,76.34149293193902,babble-reversed_n13_p256-eight-p318-two-p307-five-p245-four-p268-nine-p284-one.wav,4,RX81,5,0.0,0.0,6.0,89.31368318402099,mgb_normalisation,89.31368318402099,90.34149293193902,1,1.0,True,1.2499110698699951
,2024-07-11 10:32:35,sub_108,3,distance,cathedral,spatial_unmasking,6,257,0,0,_one_,talker-p284_sex-f_text-_one_.wav,p284,f,5,47,6.0,7.0,RX81,6,0.0,0.0,7.0,75.34149293193902,babble-reversed_n13_p318-five-p256-nine-p307-eight-p248-two-p245-four-p284-three.wav,4,RX81,5,0.0,0.0,6.0,89.31368318402099,mgb_normalisation,89.31368318402099,90.34149293193902,1,2.0,False,1.2499120235443115
,2024-07-11 10:32:38,sub_108,3,distance,cathedral,spatial_unmasking,6,258,0,0,_nine_,talker-p284_sex-f_text-_nine_.wav,p284,f,5,48,6.0,7.0,RX81,6,0.0,0.0,7.0,76.34149293193902,babble-reversed_n13_p229-three-p256-nine-p318-five-p248-one-p245-eight-p284-two.wav,4,RX81,5,0.0,0.0,6.0,89.31368318402099,mgb_normalisation,89.31368318402099,90.34149293193902,9,9.0,True,1.3748469352722168
