,event_id,timestamp,subject_id,session_index,plane,setup,task,block,trial_index,stim_type,headpose_offset_azi,headpose_offset_ele,stim_filename,stim_level,mgb_level,fluctuation,speaker_id,speaker_proc,speaker_chan,stim_azi,stim_ele,stim_dist,resp_azi,resp_ele,resp_dist,reaction_time
0,,2024-08-02 14:51:11,sub_121,3,distance,cathedral,localisation_accuracy,1,0,pinknoise,,,pinknoise_6.wav,93.30026112113144,30,0.4250580425359958,10,RX81,11,0.0,0.0,12.0,0,0,9.744868035190617,5.968318700790405
0,,2024-08-02 14:51:15,sub_121,3,distance,cathedral,localisation_accuracy,1,1,pinknoise,,,pinknoise_5.wav,87.76929815214736,30,0.28922755795442756,2,RX81,3,0.0,0.0,4.0,0,0,6.988269794721408,3.468491315841675
0,,2024-08-02 14:51:20,sub_121,3,distance,cathedral,localisation_accuracy,1,2,pinknoise,,,pinknoise_2.wav,88.98430981730058,30,-0.4365998282212099,4,RX81,5,0.0,0.0,6.0,0,0,8.322580645161292,3.1716346740722656
0,,2024-08-02 14:51:24,sub_121,3,distance,cathedral,localisation_accuracy,1,3,pinknoise,,,pinknoise_9.wav,91.58469109632833,30,-0.00603538084408517,6,RX81,7,0.0,0.0,8.0,0,0,9.818181818181818,2.765413761138916
0,,2024-08-02 14:51:29,sub_121,3,distance,cathedral,localisation_accuracy,1,4,pinknoise,,,pinknoise_4.wav,89.42879490745774,30,0.401026065825588,3,RX81,4,0.0,0.0,5.0,0,0,3.1759530791788864,3.655978202819824
0,,2024-08-02 14:51:32,sub_121,3,distance,cathedral,localisation_accuracy,1,5,pinknoise,,,pinknoise_4.wav,84.71973663971889,30,0.4779049307569698,0,RX81,1,0.0,0.0,2.0,0,0,3.909090909090909,2.3592121601104736
0,,2024-08-02 14:51:37,sub_121,3,distance,cathedral,localisation_accuracy,1,6,pinknoise,,,pinknoise_6.wav,91.83847874511687,30,-0.23473427723306628,9,RX81,10,0.0,0.0,11.0,0,0,11.005865102639296,3.984100341796875
0,,2024-08-02 14:51:42,sub_121,3,distance,cathedral,localisation_accuracy,1,7,pinknoise,,,pinknoise_1.wav,91.6210534996418,30,-0.16140174780378025,7,RX81,8,0.0,0.0,9.0,0,0,11.988269794721408,3.1560323238372803
0,,2024-08-02 14:51:45,sub_121,3,distance,cathedral,localisation_accuracy,1,8,pinknoise,,,pinknoise_8.wav,92.05167215085639,30,0.05144415529437385,8,RX81,9,0.0,0.0,10.0,0,0,12.530791788856305,2.6404428482055664
0,,2024-08-02 14:51:51,sub_121,3,distance,cathedral,localisation_accuracy,1,9,pinknoise,,,pinknoise_8.wav,85.93589184483815,30,-0.38953266475073034,1,RX81,2,0.0,0.0,3.0,0,0,3.351906158357772,3.9997246265411377
0,,2024-08-02 14:51:57,sub_121,3,distance,cathedral,localisation_accuracy,1,10,pinknoise,,,pinknoise_6.wav,90.16640027575934,30,-0.24929166585350893,5,RX81,6,0.0,0.0,7.0,0,0,7.5014662756598245,5.43710732460022
0,,2024-08-02 14:52:02,sub_121,3,distance,cathedral,localisation_accuracy,1,11,pinknoise,,,pinknoise_0.wav,89.22816353219895,30,-0.11397622178256217,4,RX81,5,0.0,0.0,6.0,0,0,9.598240469208212,3.281024932861328
0,,2024-08-02 14:52:06,sub_121,3,distance,cathedral,localisation_accuracy,1,12,pinknoise,,,pinknoise_9.wav,93.1113729304038,30,0.15693565019818345,10,RX81,11,0.0,0.0,12.0,0,0,12.149560117302054,2.968566417694092
0,,2024-08-02 14:52:11,sub_121,3,distance,cathedral,localisation_accuracy,1,13,pinknoise,,,pinknoise_7.wav,89.32015385045632,30,0.24461540222528266,3,RX81,4,0.0,0.0,5.0,0,0,6.563049853372435,3.9216043949127197
0,,2024-08-02 14:52:16,sub_121,3,distance,cathedral,localisation_accuracy,1,14,pinknoise,,,pinknoise_1.wav,85.90790426216802,30,-0.4299243921544572,1,RX81,2,0.0,0.0,3.0,0,0,5.4046920821114375,3.7809929847717285
0,,2024-08-02 14:52:20,sub_121,3,distance,cathedral,localisation_accuracy,1,15,pinknoise,,,pinknoise_8.wav,84.40368255547227,30,0.004313834862945787,0,RX81,1,0.0,0.0,2.0,0,0,3.777126099706745,3.21852707862854
0,,2024-08-02 14:52:24,sub_121,3,distance,cathedral,localisation_accuracy,1,16,pinknoise,,,pinknoise_4.wav,87.31271192254019,30,-0.37092009967795647,2,RX81,3,0.0,0.0,4.0,0,0,8.571847507331379,2.7029199600219727
0,,2024-08-02 14:52:27,sub_121,3,distance,cathedral,localisation_accuracy,1,17,pinknoise,,,pinknoise_1.wav,91.75813733294584,30,-0.3610389581767328,8,RX81,9,0.0,0.0,10.0,0,0,10.565982404692082,2.031111240386963
0,,2024-08-02 14:52:31,sub_121,3,distance,cathedral,localisation_accuracy,1,18,pinknoise,,,pinknoise_2.wav,90.35309816820418,30,0.016596810349046698,5,RX81,6,0.0,0.0,7.0,0,0,7.340175953079179,2.4373323917388916
0,,2024-08-02 14:52:37,sub_121,3,distance,cathedral,localisation_accuracy,1,19,pinknoise,,,pinknoise_8.wav,91.92378387667866,30,-0.11551021778524906,9,RX81,10,0.0,0.0,11.0,0,0,11.73900293255132,4.812147855758667
0,,2024-08-02 14:52:42,sub_121,3,distance,cathedral,localisation_accuracy,1,20,pinknoise,,,pinknoise_1.wav,91.44927997682183,30,-0.3964984148008187,7,RX81,8,0.0,0.0,9.0,0,0,11.093841642228739,4.0465967655181885
0,,2024-08-02 14:52:48,sub_121,3,distance,cathedral,localisation_accuracy,1,21,pinknoise,,,pinknoise_6.wav,91.61430432793537,30,0.036195126495342955,6,RX81,7,0.0,0.0,8.0,0,0,8.777126099706745,5.155875205993652
0,,2024-08-02 14:52:52,sub_121,3,distance,cathedral,localisation_accuracy,1,22,pinknoise,,,pinknoise_4.wav,92.75512500295414,30,-0.34233612199833074,10,RX81,11,0.0,0.0,12.0,0,0,12.193548387096776,2.624797821044922
0,,2024-08-02 14:52:57,sub_121,3,distance,cathedral,localisation_accuracy,1,23,pinknoise,,,pinknoise_8.wav,89.05038643323732,30,-0.34952465553560186,4,RX81,5,0.0,0.0,6.0,0,0,6.680351906158359,3.4685113430023193
0,,2024-08-02 14:53:00,sub_121,3,distance,cathedral,localisation_accuracy,1,24,pinknoise,,,pinknoise_3.wav,92.0041947682722,30,0.36973042604135575,7,RX81,8,0.0,0.0,9.0,0,0,10.243401759530792,2.4842240810394287
0,,2024-08-02 14:53:05,sub_121,3,distance,cathedral,localisation_accuracy,1,25,pinknoise,,,pinknoise_2.wav,86.45163709492401,30,0.3647468362352988,1,RX81,2,0.0,0.0,3.0,0,0,5.258064516129033,3.3591256141662598
0,,2024-08-02 14:53:09,sub_121,3,distance,cathedral,localisation_accuracy,1,26,pinknoise,,,pinknoise_6.wav,89.08798387614637,30,-0.08694784944106881,3,RX81,4,0.0,0.0,5.0,0,0,7.98533724340176,2.4217278957366943
0,,2024-08-02 14:53:13,sub_121,3,distance,cathedral,localisation_accuracy,1,27,pinknoise,,,pinknoise_9.wav,84.08642678814067,30,-0.4636769920775138,0,RX81,1,0.0,0.0,2.0,0,0,3.835777126099707,2.8748011589050293
0,,2024-08-02 14:53:18,sub_121,3,distance,cathedral,localisation_accuracy,1,28,pinknoise,,,pinknoise_5.wav,91.8101952862909,30,-0.28830095695015345,8,RX81,9,0.0,0.0,10.0,0,0,9.759530791788857,4.296597480773926
0,,2024-08-02 14:53:22,sub_121,3,distance,cathedral,localisation_accuracy,1,29,pinknoise,,,pinknoise_0.wav,90.17560258873337,30,-0.23624141586276348,5,RX81,6,0.0,0.0,7.0,0,0,11.137829912023461,2.452977418899536
0,,2024-08-02 14:53:26,sub_121,3,distance,cathedral,localisation_accuracy,1,30,pinknoise,,,pinknoise_5.wav,92.2799556633125,30,0.387463576402579,9,RX81,10,0.0,0.0,11.0,0,0,11.460410557184751,3.484135150909424
0,,2024-08-02 14:53:31,sub_121,3,distance,cathedral,localisation_accuracy,1,31,pinknoise,,,pinknoise_4.wav,87.62075795004371,30,0.07286468052368922,2,RX81,3,0.0,0.0,4.0,0,0,5.9178885630498534,3.171657085418701
0,,2024-08-02 14:53:34,sub_121,3,distance,cathedral,localisation_accuracy,1,32,pinknoise,,,pinknoise_3.wav,91.85065702636179,30,0.3753884454843639,6,RX81,7,0.0,0.0,8.0,0,0,8.894428152492669,2.640423536300659
0,,2024-08-02 14:53:38,sub_121,3,distance,cathedral,localisation_accuracy,1,33,pinknoise,,,pinknoise_0.wav,90.57645892108825,30,0.3378231395470026,5,RX81,6,0.0,0.0,7.0,0,0,10.551319648093843,2.0623385906219482
0,,2024-08-02 14:53:43,sub_121,3,distance,cathedral,localisation_accuracy,1,34,pinknoise,,,pinknoise_7.wav,84.22615909764087,30,-0.25846113506129476,0,RX81,1,0.0,0.0,2.0,0,0,3.5278592375366573,3.655979871749878
0,,2024-08-02 14:53:48,sub_121,3,distance,cathedral,localisation_accuracy,1,35,pinknoise,,,pinknoise_0.wav,91.4540461389098,30,-0.39000029193002317,7,RX81,8,0.0,0.0,9.0,0,0,9.920821114369502,4.234082221984863
0,,2024-08-02 14:53:52,sub_121,3,distance,cathedral,localisation_accuracy,1,36,pinknoise,,,pinknoise_3.wav,89.12214281310631,30,-0.03839429356622859,3,RX81,4,0.0,0.0,5.0,0,0,5.551319648093842,3.343519687652588
0,,2024-08-02 14:53:57,sub_121,3,distance,cathedral,localisation_accuracy,1,37,pinknoise,,,pinknoise_7.wav,86.1711636491311,30,-0.047799270136096084,1,RX81,2,0.0,0.0,3.0,0,0,4.656891495601173,2.9373202323913574
0,,2024-08-02 14:54:03,sub_121,3,distance,cathedral,localisation_accuracy,1,38,pinknoise,,,pinknoise_1.wav,91.48419573587663,30,-0.14890653338217652,6,RX81,7,0.0,0.0,8.0,0,0,10.815249266862171,4.9996562004089355
0,,2024-08-02 14:54:07,sub_121,3,distance,cathedral,localisation_accuracy,1,39,pinknoise,,,pinknoise_8.wav,87.30663874098441,30,-0.3796032454756749,2,RX81,3,0.0,0.0,4.0,0,0,7.692082111436951,2.7498114109039307
0,,2024-08-02 14:54:11,sub_121,3,distance,cathedral,localisation_accuracy,1,40,pinknoise,,,pinknoise_8.wav,92.87122102171212,30,-0.18054535679315098,10,RX81,11,0.0,0.0,12.0,0,0,11.841642228739003,3.468492031097412
0,,2024-08-02 14:54:14,sub_121,3,distance,cathedral,localisation_accuracy,1,41,pinknoise,,,pinknoise_8.wav,92.23720415980475,30,0.32664705948964434,9,RX81,10,0.0,0.0,11.0,0,0,12.530791788856305,1.7342371940612793
0,,2024-08-02 14:54:17,sub_121,3,distance,cathedral,localisation_accuracy,1,42,pinknoise,,,pinknoise_9.wav,89.36122087081769,30,0.06354365806324425,4,RX81,5,0.0,0.0,6.0,0,0,9.744868035190617,1.734255075454712
0,,2024-08-02 14:54:21,sub_121,3,distance,cathedral,localisation_accuracy,1,43,pinknoise,,,pinknoise_4.wav,92.30094564492961,30,0.4062342766987376,8,RX81,9,0.0,0.0,10.0,0,0,11.445747800586512,2.593571186065674
0,,2024-08-02 14:54:25,sub_121,3,distance,cathedral,localisation_accuracy,1,44,pinknoise,,,pinknoise_5.wav,89.17618212573048,30,-0.18304268666492518,4,RX81,5,0.0,0.0,6.0,0,0,9.87683284457478,3.187281608581543
0,,2024-08-02 14:54:31,sub_121,3,distance,cathedral,localisation_accuracy,1,45,pinknoise,,,pinknoise_7.wav,91.8583424364563,30,0.16643620566324258,7,RX81,8,0.0,0.0,9.0,0,0,12.149560117302054,4.14034104347229
0,,2024-08-02 14:54:33,sub_121,3,distance,cathedral,localisation_accuracy,1,46,pinknoise,,,pinknoise_0.wav,92.25571048252499,30,0.3415415720273509,8,RX81,9,0.0,0.0,10.0,0,0,12.413489736070382,1.3124120235443115
0,,2024-08-02 14:54:37,sub_121,3,distance,cathedral,localisation_accuracy,1,47,pinknoise,,,pinknoise_7.wav,87.86262507296043,30,0.4259626149305279,2,RX81,3,0.0,0.0,4.0,0,0,8.439882697947215,3.0778937339782715
0,,2024-08-02 14:54:41,sub_121,3,distance,cathedral,localisation_accuracy,1,48,pinknoise,,,pinknoise_8.wav,90.41865699148411,30,0.11052598569491268,5,RX81,6,0.0,0.0,7.0,0,0,10.15542521994135,2.0936062335968018
0,,2024-08-02 14:54:44,sub_121,3,distance,cathedral,localisation_accuracy,1,49,pinknoise,,,pinknoise_1.wav,91.49198962610635,30,-0.137850584924755,6,RX81,7,0.0,0.0,8.0,0,0,11.328445747800588,1.843644380569458
0,,2024-08-02 14:54:47,sub_121,3,distance,cathedral,localisation_accuracy,1,50,pinknoise,,,pinknoise_4.wav,86.22171078168827,30,0.026133821241168476,1,RX81,2,0.0,0.0,3.0,0,0,5.551319648093842,2.499847173690796
0,,2024-08-02 14:54:51,sub_121,3,distance,cathedral,localisation_accuracy,1,51,pinknoise,,,pinknoise_1.wav,93.02601789841151,30,0.03655252467067671,10,RX81,11,0.0,0.0,12.0,0,0,10.859237536656892,2.7810797691345215
0,,2024-08-02 14:54:55,sub_121,3,distance,cathedral,localisation_accuracy,1,52,pinknoise,,,pinknoise_8.wav,84.5691388208421,30,0.25131653567582235,0,RX81,1,0.0,0.0,2.0,0,0,3.513196480938417,3.0310399532318115
0,,2024-08-02 14:54:59,sub_121,3,distance,cathedral,localisation_accuracy,1,53,pinknoise,,,pinknoise_0.wav,89.09226671924384,30,-0.08086452765142504,3,RX81,4,0.0,0.0,5.0,0,0,8.982404692082111,2.5935513973236084
0,,2024-08-02 14:55:03,sub_121,3,distance,cathedral,localisation_accuracy,1,54,pinknoise,,,pinknoise_7.wav,92.00414666352845,30,-0.0027568574088894238,9,RX81,10,0.0,0.0,11.0,0,0,11.548387096774194,2.1717233657836914
0,,2024-08-02 14:55:44,sub_121,3,distance,cathedral,localisation_accuracy,2,0,pinknoise,,,pinknoise_5.wav,91.72291786534302,30,-0.021104849229019784,7,RX81,8,0.0,0.0,9.0,0,0,10.243401759530792,2.7341861724853516
0,,2024-08-02 14:55:47,sub_121,3,distance,cathedral,localisation_accuracy,2,1,pinknoise,,,pinknoise_8.wav,91.58217772236077,30,-0.009616890454799965,6,RX81,7,0.0,0.0,8.0,0,0,10.873900293255133,1.4530253410339355
0,,2024-08-02 14:55:51,sub_121,3,distance,cathedral,localisation_accuracy,2,2,pinknoise,,,pinknoise_2.wav,86.1458342885889,30,-0.08477892774544715,1,RX81,2,0.0,0.0,3.0,0,0,6.621700879765397,3.1247847080230713
0,,2024-08-02 14:55:55,sub_121,3,distance,cathedral,localisation_accuracy,2,3,pinknoise,,,pinknoise_3.wav,84.17057652438444,30,-0.34026191390604277,0,RX81,1,0.0,0.0,2.0,0,0,5.419354838709678,2.109233856201172
0,,2024-08-02 14:55:58,sub_121,3,distance,cathedral,localisation_accuracy,2,4,pinknoise,,,pinknoise_4.wav,89.01243175539881,30,-0.39957229037792086,4,RX81,5,0.0,0.0,6.0,0,0,8.835777126099707,2.515432119369507
0,,2024-08-02 14:56:01,sub_121,3,distance,cathedral,localisation_accuracy,2,5,pinknoise,,,pinknoise_7.wav,91.81874105107433,30,-0.26225222239705637,9,RX81,10,0.0,0.0,11.0,0,0,11.269794721407626,1.7342560291290283
0,,2024-08-02 14:56:05,sub_121,3,distance,cathedral,localisation_accuracy,2,6,pinknoise,,,pinknoise_0.wav,87.41904668124951,30,-0.21847460733570234,2,RX81,3,0.0,0.0,4.0,0,0,6.460410557184751,2.546719789505005
0,,2024-08-02 14:56:08,sub_121,3,distance,cathedral,localisation_accuracy,2,7,pinknoise,,,pinknoise_8.wav,90.44206135477796,30,0.1441296536754273,5,RX81,6,0.0,0.0,7.0,0,0,9.612903225806452,1.890493631362915
0,,2024-08-02 14:56:11,sub_121,3,distance,cathedral,localisation_accuracy,2,8,pinknoise,,,pinknoise_3.wav,88.91384146907178,30,-0.3332537655533375,3,RX81,4,0.0,0.0,5.0,0,0,7.692082111436951,2.296717405319214
0,,2024-08-02 14:56:17,sub_121,3,distance,cathedral,localisation_accuracy,2,9,pinknoise,,,pinknoise_3.wav,91.66627309654815,30,-0.4889622038307868,8,RX81,9,0.0,0.0,10.0,0,0,11.211143695014664,4.546541213989258
0,,2024-08-02 14:56:20,sub_121,3,distance,cathedral,localisation_accuracy,2,10,pinknoise,,,pinknoise_9.wav,93.07855395396675,30,0.1105913988200401,10,RX81,11,0.0,0.0,12.0,0,0,12.134897360703814,1.6435606479644775
0,,2024-08-02 14:56:26,sub_121,3,distance,cathedral,localisation_accuracy,2,11,pinknoise,,,pinknoise_9.wav,86.02438707455923,30,-0.2614528005763247,1,RX81,2,0.0,0.0,3.0,0,0,6.137829912023461,4.968386650085449
0,,2024-08-02 14:56:35,sub_121,3,distance,cathedral,localisation_accuracy,2,12,pinknoise,,,pinknoise_8.wav,92.02653319464417,30,0.4009872807824528,7,RX81,8,0.0,0.0,9.0,0,0,11.40175953079179,7.8588361740112305
0,,2024-08-02 14:56:39,sub_121,3,distance,cathedral,localisation_accuracy,2,13,pinknoise,,,pinknoise_9.wav,92.33770893417996,30,0.4698146953052853,9,RX81,10,0.0,0.0,11.0,0,0,11.75366568914956,2.8279080390930176
0,,2024-08-02 14:56:44,sub_121,3,distance,cathedral,localisation_accuracy,2,14,pinknoise,,,pinknoise_0.wav,89.01459874248229,30,-0.1909916429567533,3,RX81,4,0.0,0.0,5.0,0,0,7.090909090909092,3.8591091632843018
0,,2024-08-02 14:56:48,sub_121,3,distance,cathedral,localisation_accuracy,2,15,pinknoise,,,pinknoise_6.wav,87.7653173519161,30,0.28340889538277136,2,RX81,3,0.0,0.0,4.0,0,0,8.014662756598241,2.5466980934143066
0,,2024-08-02 14:56:52,sub_121,3,distance,cathedral,localisation_accuracy,2,16,pinknoise,,,pinknoise_7.wav,89.60996501404901,30,0.3982413912062811,4,RX81,5,0.0,0.0,6.0,0,0,9.583577712609971,3.374769687652588
0,,2024-08-02 14:56:57,sub_121,3,distance,cathedral,localisation_accuracy,2,17,pinknoise,,,pinknoise_3.wav,93.22051776799893,30,0.3115746653047873,10,RX81,11,0.0,0.0,12.0,0,0,11.020527859237538,2.9529428482055664
0,,2024-08-02 14:57:00,sub_121,3,distance,cathedral,localisation_accuracy,2,18,pinknoise,,,pinknoise_6.wav,90.03726723551867,30,-0.4318191658069519,5,RX81,6,0.0,0.0,7.0,0,0,11.75366568914956,2.4373533725738525
0,,2024-08-02 14:57:06,sub_121,3,distance,cathedral,localisation_accuracy,2,19,pinknoise,,,pinknoise_3.wav,91.8583900876468,30,0.38655075706593656,6,RX81,7,0.0,0.0,8.0,0,0,10.697947214076247,4.859019041061401
0,,2024-08-02 14:57:10,sub_121,3,distance,cathedral,localisation_accuracy,2,20,pinknoise,,,pinknoise_2.wav,84.50489225427154,30,0.1551649657370866,0,RX81,1,0.0,0.0,2.0,0,0,4.129032258064517,2.4998090267181396
0,,2024-08-02 14:57:16,sub_121,3,distance,cathedral,localisation_accuracy,2,21,pinknoise,,,pinknoise_1.wav,92.26908953321642,30,0.3606611663288889,8,RX81,9,0.0,0.0,10.0,0,0,11.152492668621703,4.7965264320373535
0,,2024-08-02 14:57:19,sub_121,3,distance,cathedral,localisation_accuracy,2,22,pinknoise,,,pinknoise_9.wav,87.75987770557911,30,0.27545967151167194,2,RX81,3,0.0,0.0,4.0,0,0,5.302052785923754,2.4217066764831543
0,,2024-08-02 14:57:23,sub_121,3,distance,cathedral,localisation_accuracy,2,23,pinknoise,,,pinknoise_2.wav,91.83114817332378,30,0.3472465475698915,6,RX81,7,0.0,0.0,8.0,0,0,10.609970674486805,2.374835252761841
0,,2024-08-02 14:57:26,sub_121,3,distance,cathedral,localisation_accuracy,2,24,pinknoise,,,pinknoise_2.wav,89.39882626673963,30,0.11390615125104542,4,RX81,5,0.0,0.0,6.0,0,0,11.40175953079179,1.3592627048492432
0,,2024-08-02 14:57:33,sub_121,3,distance,cathedral,localisation_accuracy,2,25,pinknoise,,,pinknoise_0.wav,93.11391716852594,30,0.16053139121353877,10,RX81,11,0.0,0.0,12.0,0,0,11.489736070381232,6.4526591300964355
0,,2024-08-02 14:57:36,sub_121,3,distance,cathedral,localisation_accuracy,2,26,pinknoise,,,pinknoise_4.wav,89.08757837163405,30,-0.08752376124427719,3,RX81,4,0.0,0.0,5.0,0,0,5.8885630498533725,2.015505790710449
0,,2024-08-02 14:57:40,sub_121,3,distance,cathedral,localisation_accuracy,2,27,pinknoise,,,pinknoise_9.wav,84.34302358042467,30,-0.08573529608081332,0,RX81,1,0.0,0.0,2.0,0,0,4.363636363636364,1.9998443126678467
0,,2024-08-02 14:57:47,sub_121,3,distance,cathedral,localisation_accuracy,2,28,pinknoise,,,pinknoise_5.wav,92.03622667984943,30,0.41456081496738095,7,RX81,8,0.0,0.0,9.0,0,0,8.219941348973608,5.84332799911499
0,,2024-08-02 14:57:49,sub_121,3,distance,cathedral,localisation_accuracy,2,29,pinknoise,,,pinknoise_2.wav,92.17139665293458,30,0.22132796548131883,8,RX81,9,0.0,0.0,10.0,0,0,9.994134897360704,1.5467467308044434
0,,2024-08-02 14:57:54,sub_121,3,distance,cathedral,localisation_accuracy,2,30,pinknoise,,,pinknoise_6.wav,90.50020560144671,30,0.2277747790665522,5,RX81,6,0.0,0.0,7.0,0,0,8.938416422287391,3.4060165882110596
0,,2024-08-02 14:57:57,sub_121,3,distance,cathedral,localisation_accuracy,2,31,pinknoise,,,pinknoise_5.wav,85.95915518251286,30,-0.3559169891205112,1,RX81,2,0.0,0.0,3.0,0,0,4.9208211143695015,2.156100034713745
0,,2024-08-02 14:58:01,sub_121,3,distance,cathedral,localisation_accuracy,2,32,pinknoise,,,pinknoise_9.wav,92.05483718533068,30,0.06858340024985454,9,RX81,10,0.0,0.0,11.0,0,0,10.75659824046921,2.7029378414154053
0,,2024-08-02 14:58:05,sub_121,3,distance,cathedral,localisation_accuracy,2,33,pinknoise,,,pinknoise_3.wav,89.36814337471374,30,0.07280819382260917,4,RX81,5,0.0,0.0,6.0,0,0,8.60117302052786,2.8904240131378174
0,,2024-08-02 14:58:09,sub_121,3,distance,cathedral,localisation_accuracy,2,34,pinknoise,,,pinknoise_9.wav,84.30171389294136,30,-0.14690538458529367,0,RX81,1,0.0,0.0,2.0,0,0,3.1759530791788864,3.062288522720337
0,,2024-08-02 14:58:13,sub_121,3,distance,cathedral,localisation_accuracy,2,35,pinknoise,,,pinknoise_1.wav,91.80605295603397,30,0.09388511743039873,7,RX81,8,0.0,0.0,9.0,0,0,10.947214076246334,2.421708345413208
0,,2024-08-02 14:58:17,sub_121,3,distance,cathedral,localisation_accuracy,2,36,pinknoise,,,pinknoise_9.wav,90.47794368782233,30,0.19572185926646946,5,RX81,6,0.0,0.0,7.0,0,0,7.164222873900293,2.531076431274414
0,,2024-08-02 14:58:22,sub_121,3,distance,cathedral,localisation_accuracy,2,37,pinknoise,,,pinknoise_1.wav,92.18604835854379,30,0.24218393927651016,8,RX81,9,0.0,0.0,10.0,0,0,11.504398826979473,4.265312671661377
0,,2024-08-02 14:58:26,sub_121,3,distance,cathedral,localisation_accuracy,2,38,pinknoise,,,pinknoise_9.wav,88.89303304123045,30,-0.36254909655517886,3,RX81,4,0.0,0.0,5.0,0,0,6.196480938416423,2.6404454708099365
0,,2024-08-02 14:58:29,sub_121,3,distance,cathedral,localisation_accuracy,2,39,pinknoise,,,pinknoise_5.wav,86.11153413026639,30,-0.134782758652225,1,RX81,2,0.0,0.0,3.0,0,0,4.466275659824047,2.2029945850372314
0,,2024-08-02 14:58:32,sub_121,3,distance,cathedral,localisation_accuracy,2,40,pinknoise,,,pinknoise_7.wav,92.04689421326749,30,0.0573935098170294,9,RX81,10,0.0,0.0,11.0,0,0,10.19941348973607,1.9061002731323242
0,,2024-08-02 14:58:35,sub_121,3,distance,cathedral,localisation_accuracy,2,41,pinknoise,,,pinknoise_7.wav,92.82498546739247,30,-0.24508445782555455,10,RX81,11,0.0,0.0,12.0,0,0,11.489736070381232,1.5311665534973145
0,,2024-08-02 14:58:39,sub_121,3,distance,cathedral,localisation_accuracy,2,42,pinknoise,,,pinknoise_3.wav,87.89178885459683,30,0.46881748137157,2,RX81,3,0.0,0.0,4.0,0,0,5.785923753665689,3.156036615371704
0,,2024-08-02 14:58:43,sub_121,3,distance,cathedral,localisation_accuracy,2,43,pinknoise,,,pinknoise_6.wav,91.55224548949349,30,-0.05223688768615309,6,RX81,7,0.0,0.0,8.0,0,0,8.659824046920821,2.468578338623047
0,,2024-08-02 14:58:48,sub_121,3,distance,cathedral,localisation_accuracy,2,44,pinknoise,,,pinknoise_3.wav,92.07032760271088,30,0.07785247720772237,8,RX81,9,0.0,0.0,10.0,0,0,9.83284457478006,4.249688148498535
0,,2024-08-02 14:58:52,sub_121,3,distance,cathedral,localisation_accuracy,2,45,pinknoise,,,pinknoise_0.wav,89.68127405926332,30,0.4948767021339816,4,RX81,5,0.0,0.0,6.0,0,0,8.337243401759531,2.4685816764831543
0,,2024-08-02 14:58:55,sub_121,3,distance,cathedral,localisation_accuracy,2,46,pinknoise,,,pinknoise_2.wav,92.93049009223094,30,-0.09760830058655057,10,RX81,11,0.0,0.0,12.0,0,0,11.70967741935484,1.7967503070831299
0,,2024-08-02 14:58:59,sub_121,3,distance,cathedral,localisation_accuracy,2,47,pinknoise,,,pinknoise_5.wav,87.89753132615161,30,0.47726289536047206,2,RX81,3,0.0,0.0,4.0,0,0,8.190615835777127,2.3435893058776855
0,,2024-08-02 14:59:03,sub_121,3,distance,cathedral,localisation_accuracy,2,48,pinknoise,,,pinknoise_2.wav,84.4749131085007,30,0.11040273629239572,0,RX81,1,0.0,0.0,2.0,0,0,4.290322580645162,3.749741792678833
0,,2024-08-02 14:59:07,sub_121,3,distance,cathedral,localisation_accuracy,2,49,pinknoise,,,pinknoise_1.wav,89.32807092006847,30,0.2559863822879186,3,RX81,4,0.0,0.0,5.0,0,0,5.9178885630498534,2.2498674392700195
0,,2024-08-02 14:59:11,sub_121,3,distance,cathedral,localisation_accuracy,2,50,pinknoise,,,pinknoise_3.wav,91.61825773237507,30,0.041837450411061794,6,RX81,7,0.0,0.0,8.0,0,0,8.513196480938417,3.2341737747192383
0,,2024-08-02 14:59:14,sub_121,3,distance,cathedral,localisation_accuracy,2,51,pinknoise,,,pinknoise_6.wav,91.66993617291038,30,-0.0941581980771844,7,RX81,8,0.0,0.0,9.0,0,0,9.935483870967742,1.7498576641082764
0,,2024-08-02 14:59:19,sub_121,3,distance,cathedral,localisation_accuracy,2,52,pinknoise,,,pinknoise_1.wav,92.00691612894956,30,0.001136426957816128,9,RX81,10,0.0,0.0,11.0,0,0,11.900293255131965,3.1091606616973877
0,,2024-08-02 14:59:24,sub_121,3,distance,cathedral,localisation_accuracy,2,53,pinknoise,,,pinknoise_0.wav,90.25093988867638,30,-0.1291864091410434,5,RX81,6,0.0,0.0,7.0,0,0,9.950146627565983,4.468441009521484
0,,2024-08-02 14:59:30,sub_121,3,distance,cathedral,localisation_accuracy,2,54,pinknoise,,,pinknoise_9.wav,85.86122956727907,30,-0.49716286563067735,1,RX81,2,0.0,0.0,3.0,0,0,7.6334310850439895,4.405948162078857
0,,2024-08-02 15:00:13,sub_121,3,distance,cathedral,localisation_accuracy,3,0,babble,,,babble-reversed_n13_p229-one-p318-eight-p256-three-p268-nine-p248-five-p284-four.wav,91.94469582641403,30,0.28663373767227307,7,RX81,8,0.0,0.0,9.0,0,0,10.624633431085044,3.359142303466797
0,,2024-08-02 15:00:20,sub_121,3,distance,cathedral,localisation_accuracy,3,1,babble,,,babble-reversed_n13_p229-three-p256-nine-p318-five-p248-one-p245-eight-p284-two.wav,88.79979411329056,30,-0.49346153801035075,3,RX81,4,0.0,0.0,5.0,0,0,8.718475073313783,5.8745949268341064
0,,2024-08-02 15:00:25,sub_121,3,distance,cathedral,localisation_accuracy,3,2,babble,,,babble-reversed_n13_p229-five-p318-two-p307-eight-p268-three-p248-four-p245-one.wav,91.8144349373309,30,0.32315811826770346,6,RX81,7,0.0,0.0,8.0,0,0,9.671554252199414,3.484135627746582
0,,2024-08-02 15:00:28,sub_121,3,distance,cathedral,localisation_accuracy,3,3,babble,,,babble-reversed_n13_p229-nine-p256-four-p318-three-p268-eight-p248-two-p284-five.wav,92.22270954329338,30,0.3060552602317841,9,RX81,10,0.0,0.0,11.0,0,0,10.815249266862171,1.671738624572754
0,,2024-08-02 15:00:31,sub_121,3,distance,cathedral,localisation_accuracy,3,4,babble,,,babble-reversed_n13_p229-three-p256-one-p307-two-p284-eight-p268-five-p248-nine.wav,90.08355948183095,30,-0.36651493818761216,5,RX81,6,0.0,0.0,7.0,0,0,10.448680351906159,1.9529914855957031
0,,2024-08-02 15:00:34,sub_121,3,distance,cathedral,localisation_accuracy,3,5,babble,,,babble-reversed_n13_p229-five-p256-one-p318-three-p248-nine-p268-four-p284-eight.wav,86.0400751708207,30,-0.23868954835229228,1,RX81,2,0.0,0.0,3.0,0,0,7.35483870967742,1.984238624572754
0,,2024-08-02 15:00:39,sub_121,3,distance,cathedral,localisation_accuracy,3,6,babble,,,babble-reversed_n13_p229-three-p256-one-p307-two-p284-eight-p268-five-p248-nine.wav,92.33041679992503,30,0.4484564013024718,8,RX81,9,0.0,0.0,10.0,0,0,10.008797653958945,4.452820539474487
0,,2024-08-02 15:00:43,sub_121,3,distance,cathedral,localisation_accuracy,3,7,babble,,,babble-reversed_n13_p256-five-p307-nine-p318-three-p284-eight-p268-one-p248-two.wav,89.54748486654088,30,0.3138224033740218,4,RX81,5,0.0,0.0,6.0,0,0,8.0,2.0623602867126465
0,,2024-08-02 15:00:46,sub_121,3,distance,cathedral,localisation_accuracy,3,8,babble,,,babble-reversed_n13_p256-four-p229-eight-p307-five-p248-three-p245-one-p284-two.wav,84.1386349640944,30,-0.3871684189219067,0,RX81,1,0.0,0.0,2.0,0,0,3.1759530791788864,2.640422821044922
0,,2024-08-02 15:00:50,sub_121,3,distance,cathedral,localisation_accuracy,3,9,babble,,,babble-reversed_n13_p229-one-p318-eight-p256-three-p268-two-p245-five-p248-nine.wav,92.81047915115549,30,-0.26530467451810746,10,RX81,11,0.0,0.0,12.0,0,0,9.759530791788857,2.1404809951782227
0,,2024-08-02 15:00:52,sub_121,3,distance,cathedral,localisation_accuracy,3,10,babble,,,babble-reversed_n13_p229-two-p318-eight-p256-three-p268-one-p248-nine-p284-five.wav,87.49233430208638,30,-0.11295038748304276,2,RX81,3,0.0,0.0,4.0,0,0,6.519061583577713,1.671738624572754
0,,2024-08-02 15:00:55,sub_121,3,distance,cathedral,localisation_accuracy,3,11,babble,,,babble-reversed_n13_p229-five-p256-three-p318-nine-p248-two-p284-four-p268-one.wav,91.89662892581559,30,-0.16713705718033334,8,RX81,9,0.0,0.0,10.0,0,0,9.744868035190617,1.2811386585235596
0,,2024-08-02 15:00:58,sub_121,3,distance,cathedral,localisation_accuracy,3,12,babble,,,babble-reversed_n13_p229-five-p318-three-p307-two-p245-four-p284-nine-p248-eight.wav,84.6597535262853,30,0.3874521044596777,0,RX81,1,0.0,0.0,2.0,0,0,5.551319648093842,1.7811086177825928
0,,2024-08-02 15:01:00,sub_121,3,distance,cathedral,localisation_accuracy,3,13,babble,,,babble-reversed_n13_p256-five-p307-nine-p318-three-p284-eight-p268-one-p248-two.wav,91.47535950022565,30,-0.3609244793993468,7,RX81,8,0.0,0.0,9.0,0,0,10.565982404692082,1.609266996383667
0,,2024-08-02 15:01:03,sub_121,3,distance,cathedral,localisation_accuracy,3,14,babble,,,babble-reversed_n13_p229-one-p318-eight-p256-three-p268-two-p245-five-p248-nine.wav,91.33048789230355,30,-0.3661128705530027,6,RX81,7,0.0,0.0,8.0,0,0,11.40175953079179,1.3124094009399414
0,,2024-08-02 15:01:05,sub_121,3,distance,cathedral,localisation_accuracy,3,15,babble,,,babble-reversed_n13_p256-five-p307-nine-p318-three-p284-eight-p268-one-p248-two.wav,89.9974394968103,30,-0.4878887638855718,5,RX81,6,0.0,0.0,7.0,0,0,9.129032258064516,1.4061739444732666
0,,2024-08-02 15:01:09,sub_121,3,distance,cathedral,localisation_accuracy,3,16,babble,,,babble-reversed_n13_p229-five-p318-three-p307-two-p245-four-p284-nine-p248-eight.wav,92.94695055793159,30,-0.07453375784286065,10,RX81,11,0.0,0.0,12.0,0,0,10.536656891495602,2.812307834625244
0,,2024-08-02 15:01:13,sub_121,3,distance,cathedral,localisation_accuracy,3,17,babble,,,babble-reversed_n13_p318-nine-p307-eight-p229-two-p284-one-p248-three-p245-five.wav,89.12103764204902,30,-0.039966418059176334,3,RX81,4,0.0,0.0,5.0,0,0,6.870967741935484,2.093606472015381
0,,2024-08-02 15:01:17,sub_121,3,distance,cathedral,localisation_accuracy,3,18,babble,,,babble-reversed_n13_p318-five-p256-nine-p307-eight-p248-two-p245-four-p284-three.wav,91.82656296537107,30,-0.25135009188442936,9,RX81,10,0.0,0.0,11.0,0,0,9.87683284457478,2.9060492515563965
0,,2024-08-02 15:01:20,sub_121,3,distance,cathedral,localisation_accuracy,3,19,babble,,,babble-reversed_n13_p256-five-p229-one-p318-three-p248-nine-p284-eight-p268-two.wav,87.28667200659507,30,-0.40813279977056693,2,RX81,3,0.0,0.0,4.0,0,0,6.6950146627565985,1.8592662811279297
0,,2024-08-02 15:01:22,sub_121,3,distance,cathedral,localisation_accuracy,3,20,babble,,,babble-reversed_n13_p318-five-p256-nine-p307-two-p245-eight-p248-one-p284-four.wav,89.50103576535645,30,0.2512154556420001,4,RX81,5,0.0,0.0,6.0,0,0,10.023460410557185,1.5780165195465088
0,,2024-08-02 15:01:26,sub_121,3,distance,cathedral,localisation_accuracy,3,21,babble,,,babble-reversed_n13_p318-five-p229-three-p256-four-p268-eight-p248-one-p245-nine.wav,86.17616134417233,30,-0.04049747614425281,1,RX81,2,0.0,0.0,3.0,0,0,5.47800586510264,2.2966983318328857
0,,2024-08-02 15:01:30,sub_121,3,distance,cathedral,localisation_accuracy,3,22,babble,,,babble-reversed_n13_p256-eight-p318-two-p307-five-p245-four-p268-nine-p284-one.wav,92.29389404097833,30,0.39614041414263956,8,RX81,9,0.0,0.0,10.0,0,0,9.686217008797655,2.9841697216033936
0,,2024-08-02 15:01:33,sub_121,3,distance,cathedral,localisation_accuracy,3,23,babble,,,babble-reversed_n13_p256-three-p318-one-p307-two-p284-nine-p268-four-p245-eight.wav,89.54504026040964,30,0.31052418546663807,4,RX81,5,0.0,0.0,6.0,0,0,7.340175953079179,2.2029945850372314
0,,2024-08-02 15:01:36,sub_121,3,distance,cathedral,localisation_accuracy,3,24,babble,,,babble-reversed_n13_p256-two-p307-five-p318-nine-p248-eight-p245-four-p284-one.wav,84.09557126973058,30,-0.45029048738048194,0,RX81,1,0.0,0.0,2.0,0,0,4.480938416422288,2.171722888946533
0,,2024-08-02 15:01:40,sub_121,3,distance,cathedral,localisation_accuracy,3,25,babble,,,babble-reversed_n13_p229-five-p318-three-p307-two-p245-four-p284-nine-p248-eight.wav,89.22984742264694,30,0.1152137727122734,3,RX81,4,0.0,0.0,5.0,0,0,8.395894428152493,2.0779640674591064
0,,2024-08-02 15:01:43,sub_121,3,distance,cathedral,localisation_accuracy,3,26,babble,,,babble-reversed_n13_p256-two-p307-five-p318-nine-p248-eight-p245-four-p284-one.wav,91.81884124518277,30,0.329506978869487,6,RX81,7,0.0,0.0,8.0,0,0,10.580645161290324,2.2654523849487305
0,,2024-08-02 15:01:46,sub_121,3,distance,cathedral,localisation_accuracy,3,27,babble,,,babble-reversed_n13_p256-three-p318-two-p229-nine-p248-four-p284-one-p268-eight.wav,90.22450520981229,30,-0.16679411506143527,5,RX81,6,0.0,0.0,7.0,0,0,8.777126099706745,1.859245777130127
0,,2024-08-02 15:01:49,sub_121,3,distance,cathedral,localisation_accuracy,3,28,babble,,,babble-reversed_n13_p256-four-p229-two-p318-five-p268-one-p248-eight-p245-three.wav,91.95347431031907,30,-0.07390237530260857,9,RX81,10,0.0,0.0,11.0,0,0,10.697947214076247,1.984220027923584
0,,2024-08-02 15:01:52,sub_121,3,distance,cathedral,localisation_accuracy,3,29,babble,,,babble-reversed_n13_p318-three-p229-one-p256-eight-p245-five-p248-four-p284-nine.wav,86.35098677980056,30,0.21605147566755634,1,RX81,2,0.0,0.0,3.0,0,0,5.756598240469208,2.1404778957366943
0,,2024-08-02 15:01:56,sub_121,3,distance,cathedral,localisation_accuracy,3,30,babble,,,babble-reversed_n13_p307-one-p318-five-p229-four-p268-eight-p284-two-p245-three.wav,91.73112162565413,30,-0.009777220918531726,7,RX81,8,0.0,0.0,9.0,0,0,9.099706744868035,2.0623581409454346
0,,2024-08-02 15:01:59,sub_121,3,distance,cathedral,localisation_accuracy,3,31,babble,,,babble-reversed_n13_p318-four-p256-five-p229-three-p284-one-p245-eight-p248-nine.wav,87.42882151543154,30,-0.20442173534230712,2,RX81,3,0.0,0.0,4.0,0,0,5.668621700879766,2.0779621601104736
0,,2024-08-02 15:02:02,sub_121,3,distance,cathedral,localisation_accuracy,3,32,babble,,,babble-reversed_n13_p256-three-p318-two-p229-nine-p248-four-p284-one-p268-eight.wav,92.68805898731594,30,-0.43539862235772464,10,RX81,11,0.0,0.0,12.0,0,0,10.15542521994135,1.9686131477355957
0,,2024-08-02 15:02:06,sub_121,3,distance,cathedral,localisation_accuracy,3,33,babble,,,babble-reversed_n13_p307-two-p256-four-p318-three-p284-eight-p248-five-p245-nine.wav,84.38634916420727,30,-0.021445463331332904,0,RX81,1,0.0,0.0,2.0,0,0,3.8944281524926687,3.0466859340667725
0,,2024-08-02 15:02:09,sub_121,3,distance,cathedral,localisation_accuracy,3,34,babble,,,babble-reversed_n13_p229-three-p256-nine-p318-five-p248-one-p245-eight-p284-two.wav,91.52184158919077,30,-0.29741427021927946,7,RX81,8,0.0,0.0,9.0,0,0,10.243401759530792,1.9998631477355957
0,,2024-08-02 15:02:12,sub_121,3,distance,cathedral,localisation_accuracy,3,35,babble,,,babble-reversed_n13_p256-three-p318-two-p229-nine-p248-four-p284-one-p268-eight.wav,89.00946650886878,30,-0.1982544544830731,3,RX81,4,0.0,0.0,5.0,0,0,7.486803519061585,1.7811057567596436
0,,2024-08-02 15:02:15,sub_121,3,distance,cathedral,localisation_accuracy,3,36,babble,,,babble-reversed_n13_p229-one-p318-eight-p256-three-p268-nine-p248-five-p284-four.wav,91.56058812133656,30,-0.04036404793930759,6,RX81,7,0.0,0.0,8.0,0,0,8.835777126099707,1.9061214923858643
0,,2024-08-02 15:02:18,sub_121,3,distance,cathedral,localisation_accuracy,3,37,babble,,,babble-reversed_n13_p318-five-p229-four-p256-eight-p284-one-p245-three-p248-two.wav,92.00606365697827,30,-0.013020813941421738,8,RX81,9,0.0,0.0,10.0,0,0,10.609970674486805,1.6404905319213867
0,,2024-08-02 15:02:21,sub_121,3,distance,cathedral,localisation_accuracy,3,38,babble,,,babble-reversed_n13_p229-five-p256-one-p318-three-p248-nine-p268-four-p284-eight.wav,90.58050077413043,30,0.34366748728717333,5,RX81,6,0.0,0.0,7.0,0,0,8.439882697947215,1.8748526573181152
0,,2024-08-02 15:02:24,sub_121,3,distance,cathedral,localisation_accuracy,3,39,babble,,,babble-reversed_n13_p318-five-p256-nine-p307-eight-p248-two-p245-four-p284-three.wav,86.3971300083185,30,0.28413039199309365,1,RX81,2,0.0,0.0,3.0,0,0,4.524926686217009,2.202993154525757
0,,2024-08-02 15:02:29,sub_121,3,distance,cathedral,localisation_accuracy,3,40,babble,,,babble-reversed_n13_p318-nine-p256-five-p307-eight-p268-three-p248-one-p245-four.wav,89.2591427256839,30,-0.07273884118678842,4,RX81,5,0.0,0.0,6.0,0,0,10.038123167155426,3.421640157699585
0,,2024-08-02 15:02:32,sub_121,3,distance,cathedral,localisation_accuracy,3,41,babble,,,babble-reversed_n13_p229-five-p256-three-p318-nine-p248-two-p284-four-p268-one.wav,92.84130862005945,30,-0.22231532837324186,10,RX81,11,0.0,0.0,12.0,0,0,10.873900293255133,2.187347888946533
0,,2024-08-02 15:02:36,sub_121,3,distance,cathedral,localisation_accuracy,3,42,babble,,,babble-reversed_n13_p318-three-p307-one-p256-five-p248-nine-p245-two-p284-eight.wav,87.76386382251096,30,0.2812845767482308,2,RX81,3,0.0,0.0,4.0,0,0,6.357771260997067,2.7185628414154053
0,,2024-08-02 15:02:39,sub_121,3,distance,cathedral,localisation_accuracy,3,43,babble,,,babble-reversed_n13_p307-nine-p229-one-p256-eight-p248-four-p284-two-p268-three.wav,91.92632403036218,30,-0.11195273882209256,9,RX81,10,0.0,0.0,11.0,0,0,10.991202346041057,1.6404945850372314
0,,2024-08-02 15:02:43,sub_121,3,distance,cathedral,localisation_accuracy,3,44,babble,,,babble-reversed_n13_p229-one-p318-nine-p256-four-p284-eight-p268-five-p245-two.wav,88.92343307019237,30,-0.31974039579451197,3,RX81,4,0.0,0.0,5.0,0,0,8.894428152492669,3.3278963565826416
0,,2024-08-02 15:02:47,sub_121,3,distance,cathedral,localisation_accuracy,3,45,babble,,,babble-reversed_n13_p256-eight-p318-two-p307-five-p245-four-p268-nine-p284-one.wav,92.31823220905163,30,0.44201767606733566,9,RX81,10,0.0,0.0,11.0,0,0,11.167155425219942,2.249864339828491
0,,2024-08-02 15:02:51,sub_121,3,distance,cathedral,localisation_accuracy,3,46,babble,,,babble-reversed_n13_p229-two-p256-three-p318-eight-p284-five-p268-four-p245-one.wav,84.5456079347199,30,0.21606462380908587,0,RX81,1,0.0,0.0,2.0,0,0,5.067448680351907,3.2497756481170654
0,,2024-08-02 15:02:54,sub_121,3,distance,cathedral,localisation_accuracy,3,47,babble,,,babble-reversed_n13_p229-three-p307-one-p318-two-p245-eight-p268-five-p284-four.wav,89.58585832001836,30,0.3656422232453891,4,RX81,5,0.0,0.0,6.0,0,0,7.67741935483871,1.8123555183410645
0,,2024-08-02 15:02:57,sub_121,3,distance,cathedral,localisation_accuracy,3,48,babble,,,babble-reversed_n13_p229-five-p318-three-p307-two-p245-four-p284-nine-p248-eight.wav,91.91346557896023,30,0.4661683767470278,6,RX81,7,0.0,0.0,8.0,0,0,10.419354838709678,1.5467679500579834
0,,2024-08-02 15:03:00,sub_121,3,distance,cathedral,localisation_accuracy,3,49,babble,,,babble-reversed_n13_p229-two-p307-five-p318-four-p284-one-p248-nine-p268-eight.wav,87.7298652790563,30,0.2316385313779714,2,RX81,3,0.0,0.0,4.0,0,0,8.454545454545455,1.8904941082000732
0,,2024-08-02 15:03:04,sub_121,3,distance,cathedral,localisation_accuracy,3,50,babble,,,babble-reversed_n13_p307-five-p229-three-p318-nine-p245-four-p268-eight-p284-two.wav,86.20948810227873,30,0.008239528036222299,1,RX81,2,0.0,0.0,3.0,0,0,5.140762463343109,3.218508720397949
0,,2024-08-02 15:03:07,sub_121,3,distance,cathedral,localisation_accuracy,3,51,babble,,,babble-reversed_n13_p307-five-p229-three-p318-nine-p245-four-p268-eight-p284-two.wav,91.58920756680253,30,-0.20512800966352407,7,RX81,8,0.0,0.0,9.0,0,0,10.272727272727273,2.1717047691345215
0,,2024-08-02 15:03:11,sub_121,3,distance,cathedral,localisation_accuracy,3,52,babble,,,babble-reversed_n13_p229-two-p256-three-p318-eight-p284-five-p268-four-p245-one.wav,90.6842906672039,30,0.4941295284209164,5,RX81,6,0.0,0.0,7.0,0,0,8.865102639296188,2.187349796295166
0,,2024-08-02 15:03:13,sub_121,3,distance,cathedral,localisation_accuracy,3,53,babble,,,babble-reversed_n13_p318-nine-p256-five-p307-eight-p268-three-p248-one-p245-four.wav,91.67659854902801,30,-0.4746113387307249,8,RX81,9,0.0,0.0,10.0,0,0,11.255131964809385,1.3124098777770996
0,,2024-08-02 15:03:16,sub_121,3,distance,cathedral,localisation_accuracy,3,54,babble,,,babble-reversed_n13_p229-five-p256-one-p318-three-p248-nine-p268-four-p284-eight.wav,92.88387648643916,30,-0.16285550762404644,10,RX81,11,0.0,0.0,12.0,0,0,12.149560117302054,2.0623371601104736
0,,2024-08-02 15:03:48,sub_121,3,distance,cathedral,localisation_accuracy,4,0,babble,,,babble-reversed_n13_p256-nine-p307-four-p229-one-p284-three-p248-two-p245-five.wav,92.07534538249895,30,0.4693993178699116,7,RX81,8,0.0,0.0,9.0,0,0,9.788856304985337,2.234222173690796
0,,2024-08-02 15:03:50,sub_121,3,distance,cathedral,localisation_accuracy,4,1,babble,,,babble-reversed_n13_p318-nine-p307-eight-p229-two-p284-one-p248-three-p245-five.wav,89.04401813286432,30,-0.3579279005147058,4,RX81,5,0.0,0.0,6.0,0,0,9.715542521994136,1.249934196472168
0,,2024-08-02 15:03:54,sub_121,3,distance,cathedral,localisation_accuracy,4,2,babble,,,babble-reversed_n13_p229-nine-p307-five-p256-two-p248-three-p245-one-p268-eight.wav,84.4478240338604,30,0.07001285560565718,0,RX81,1,0.0,0.0,2.0,0,0,4.319648093841643,2.468580484390259
0,,2024-08-02 15:03:59,sub_121,3,distance,cathedral,localisation_accuracy,4,3,babble,,,babble-reversed_n13_p229-one-p318-eight-p256-three-p268-nine-p248-five-p284-four.wav,91.38754615536993,30,-0.28566824417410375,6,RX81,7,0.0,0.0,8.0,0,0,8.674486803519063,4.218462228775024
0,,2024-08-02 15:04:02,sub_121,3,distance,cathedral,localisation_accuracy,4,4,babble,,,babble-reversed_n13_p229-nine-p307-five-p256-two-p248-three-p245-one-p268-eight.wav,89.46722027636415,30,0.45654054291903534,3,RX81,4,0.0,0.0,5.0,0,0,7.98533724340176,2.1873281002044678
0,,2024-08-02 15:04:06,sub_121,3,distance,cathedral,localisation_accuracy,4,5,babble,,,babble-reversed_n13_p229-three-p256-one-p307-two-p284-eight-p268-five-p248-nine.wav,93.20020275731466,30,0.28273193324323576,10,RX81,11,0.0,0.0,12.0,0,0,9.627565982404693,2.140481472015381
0,,2024-08-02 15:04:09,sub_121,3,distance,cathedral,localisation_accuracy,4,6,babble,,,babble-reversed_n13_p307-four-p318-three-p256-eight-p284-two-p245-nine-p248-five.wav,85.9284588481371,30,-0.4002653560330145,1,RX81,2,0.0,0.0,3.0,0,0,5.4046920821114375,1.921762228012085
0,,2024-08-02 15:04:12,sub_121,3,distance,cathedral,localisation_accuracy,4,7,babble,,,babble-reversed_n13_p229-nine-p307-five-p256-two-p248-three-p245-one-p268-eight.wav,91.857178210303,30,-0.22250080180726461,8,RX81,9,0.0,0.0,10.0,0,0,9.950146627565983,2.1873526573181152
0,,2024-08-02 15:04:19,sub_121,3,distance,cathedral,localisation_accuracy,4,8,babble,,,babble-reversed_n13_p307-four-p318-three-p256-eight-p284-two-p245-nine-p248-five.wav,91.8614712700848,30,-0.2026463938127291,9,RX81,10,0.0,0.0,11.0,0,0,9.964809384164223,5.468351602554321
0,,2024-08-02 15:04:25,sub_121,3,distance,cathedral,localisation_accuracy,4,9,babble,,,babble-reversed_n13_p229-nine-p318-one-p307-two-p248-eight-p245-five-p284-four.wav,90.67517485862233,30,0.4808846983413311,5,RX81,6,0.0,0.0,7.0,0,0,8.219941348973608,5.374610424041748
0,,2024-08-02 15:04:29,sub_121,3,distance,cathedral,localisation_accuracy,4,10,babble,,,babble-reversed_n13_p307-four-p318-three-p256-eight-p284-two-p245-nine-p248-five.wav,87.36410951689346,30,-0.2973322650093846,2,RX81,3,0.0,0.0,4.0,0,0,7.208211143695015,2.3904597759246826
0,,2024-08-02 15:04:32,sub_121,3,distance,cathedral,localisation_accuracy,4,11,babble,,,babble-reversed_n13_p229-one-p318-eight-p256-three-p268-two-p245-five-p248-nine.wav,91.41168058318448,30,-0.44771096080606276,7,RX81,8,0.0,0.0,9.0,0,0,8.835777126099707,2.2029736042022705
0,,2024-08-02 15:04:35,sub_121,3,distance,cathedral,localisation_accuracy,4,12,babble,,,babble-reversed_n13_p229-one-p318-eight-p256-three-p268-two-p245-five-p248-nine.wav,90.61767192805814,30,0.3974682122871124,5,RX81,6,0.0,0.0,7.0,0,0,9.656891495601174,2.484225273132324
0,,2024-08-02 15:04:38,sub_121,3,distance,cathedral,localisation_accuracy,4,13,babble,,,babble-reversed_n13_p256-five-p307-nine-p318-three-p284-eight-p268-one-p248-two.wav,91.93531754679981,30,-0.11274283894027215,8,RX81,9,0.0,0.0,10.0,0,0,10.492668621700881,1.2811615467071533
0,,2024-08-02 15:04:45,sub_121,3,distance,cathedral,localisation_accuracy,4,14,babble,,,babble-reversed_n13_p256-eight-p318-five-p307-four-p245-three-p268-one-p284-nine.wav,92.00367393107581,30,-0.003421369066360813,9,RX81,10,0.0,0.0,11.0,0,0,11.841642228739003,6.249569416046143
0,,2024-08-02 15:04:49,sub_121,3,distance,cathedral,localisation_accuracy,4,15,babble,,,babble-reversed_n13_p229-nine-p256-four-p318-three-p268-eight-p248-two-p284-five.wav,86.39271822876583,30,0.27761470306104385,1,RX81,2,0.0,0.0,3.0,0,0,5.096774193548388,2.671710729598999
0,,2024-08-02 15:04:54,sub_121,3,distance,cathedral,localisation_accuracy,4,16,babble,,,babble-reversed_n13_p229-nine-p256-four-p318-three-p268-eight-p248-two-p284-five.wav,87.23405639354084,30,-0.4831813002591375,2,RX81,3,0.0,0.0,4.0,0,0,6.255131964809385,3.4060373306274414
0,,2024-08-02 15:04:58,sub_121,3,distance,cathedral,localisation_accuracy,4,17,babble,,,babble-reversed_n13_p318-three-p229-one-p256-eight-p245-five-p248-four-p284-nine.wav,89.05004038681446,30,-0.14078853702205785,3,RX81,4,0.0,0.0,5.0,0,0,7.794721407624634,2.999772071838379
0,,2024-08-02 15:05:01,sub_121,3,distance,cathedral,localisation_accuracy,4,18,babble,,,babble-reversed_n13_p307-five-p229-two-p318-four-p248-three-p245-nine-p268-eight.wav,84.70046643278116,30,0.44881669117802536,0,RX81,1,0.0,0.0,2.0,0,0,4.55425219941349,2.156120777130127
0,,2024-08-02 15:05:05,sub_121,3,distance,cathedral,localisation_accuracy,4,19,babble,,,babble-reversed_n13_p229-three-p256-one-p307-two-p284-eight-p268-five-p248-nine.wav,92.92104147437038,30,-0.11084548488035006,10,RX81,11,0.0,0.0,12.0,0,0,8.894428152492669,3.327875852584839
0,,2024-08-02 15:05:08,sub_121,3,distance,cathedral,localisation_accuracy,4,20,babble,,,babble-reversed_n13_p256-eight-p229-three-p307-nine-p245-five-p248-four-p268-two.wav,89.13814684711852,30,-0.23347811753181602,4,RX81,5,0.0,0.0,6.0,0,0,8.87976539589443,1.7030086517333984
0,,2024-08-02 15:05:11,sub_121,3,distance,cathedral,localisation_accuracy,4,21,babble,,,babble-reversed_n13_p307-five-p229-three-p318-nine-p245-four-p268-eight-p284-two.wav,91.39987319133043,30,-0.2682600837824949,6,RX81,7,0.0,0.0,8.0,0,0,10.17008797653959,1.6405110359191895
0,,2024-08-02 15:05:14,sub_121,3,distance,cathedral,localisation_accuracy,4,22,babble,,,babble-reversed_n13_p229-three-p256-one-p307-two-p284-eight-p268-five-p248-nine.wav,91.5642477933649,30,-0.23935438951025823,7,RX81,8,0.0,0.0,9.0,0,0,10.419354838709678,1.687364101409912
0,,2024-08-02 15:05:17,sub_121,3,distance,cathedral,localisation_accuracy,4,23,babble,,,babble-reversed_n13_p318-five-p256-nine-p307-eight-p248-two-p245-four-p284-three.wav,85.9166486419779,30,-0.41731040986031975,1,RX81,2,0.0,0.0,3.0,0,0,4.451612903225807,2.4216902256011963
0,,2024-08-02 15:05:21,sub_121,3,distance,cathedral,localisation_accuracy,4,24,babble,,,babble-reversed_n13_p318-five-p256-nine-p307-eight-p248-two-p245-four-p284-three.wav,91.83541639156745,30,-0.23900542488759147,9,RX81,10,0.0,0.0,11.0,0,0,9.378299120234605,2.1560797691345215
0,,2024-08-02 15:05:24,sub_121,3,distance,cathedral,localisation_accuracy,4,25,babble,,,babble-reversed_n13_p229-one-p318-nine-p256-four-p284-eight-p268-five-p245-two.wav,91.32984602288292,30,-0.3670165819305026,6,RX81,7,0.0,0.0,8.0,0,0,9.407624633431086,1.9217252731323242
0,,2024-08-02 15:05:28,sub_121,3,distance,cathedral,localisation_accuracy,4,26,babble,,,babble-reversed_n13_p229-one-p318-eight-p256-three-p268-two-p245-five-p248-nine.wav,84.34971234243122,30,-0.07581900362075622,0,RX81,1,0.0,0.0,2.0,0,0,3.747800586510264,2.8435728549957275
0,,2024-08-02 15:05:30,sub_121,3,distance,cathedral,localisation_accuracy,4,27,babble,,,babble-reversed_n13_p307-two-p256-four-p318-three-p284-eight-p248-five-p245-nine.wav,87.31712545706785,30,-0.364608241134567,2,RX81,3,0.0,0.0,4.0,0,0,5.580645161290323,1.5467684268951416
0,,2024-08-02 15:05:34,sub_121,3,distance,cathedral,localisation_accuracy,4,28,babble,,,babble-reversed_n13_p229-three-p307-one-p318-two-p245-eight-p268-five-p284-four.wav,89.50737546459692,30,0.2597528655407364,4,RX81,5,0.0,0.0,6.0,0,0,7.1788856304985345,2.1560819149017334
0,,2024-08-02 15:05:37,sub_121,3,distance,cathedral,localisation_accuracy,4,29,babble,,,babble-reversed_n13_p229-five-p318-two-p307-eight-p268-three-p248-four-p245-one.wav,89.30134422362534,30,0.21761699932535106,3,RX81,4,0.0,0.0,5.0,0,0,8.249266862170089,2.3279647827148438
0,,2024-08-02 15:05:40,sub_121,3,distance,cathedral,localisation_accuracy,4,30,babble,,,babble-reversed_n13_p318-three-p229-one-p256-eight-p245-five-p248-four-p284-nine.wav,92.8841064918671,30,-0.1625339082224413,10,RX81,11,0.0,0.0,12.0,0,0,10.595307917888563,1.7811083793640137
0,,2024-08-02 15:05:43,sub_121,3,distance,cathedral,localisation_accuracy,4,31,babble,,,babble-reversed_n13_p229-five-p256-three-p318-nine-p248-two-p284-four-p268-one.wav,90.57401816071663,30,0.3342944488989479,5,RX81,6,0.0,0.0,7.0,0,0,9.392961876832846,2.2342021465301514
0,,2024-08-02 15:05:46,sub_121,3,distance,cathedral,localisation_accuracy,4,32,babble,,,babble-reversed_n13_p318-three-p307-one-p256-five-p248-nine-p245-two-p284-eight.wav,92.04066823816284,30,0.03587808764134892,8,RX81,9,0.0,0.0,10.0,0,0,10.390029325513197,1.5936594009399414
0,,2024-08-02 15:05:49,sub_121,3,distance,cathedral,localisation_accuracy,4,33,babble,,,babble-reversed_n13_p256-three-p318-one-p307-two-p284-nine-p268-four-p245-eight.wav,92.81762215478246,30,-0.25534982726143307,10,RX81,11,0.0,0.0,12.0,0,0,11.328445747800588,1.7498579025268555
0,,2024-08-02 15:05:53,sub_121,3,distance,cathedral,localisation_accuracy,4,34,babble,,,babble-reversed_n13_p229-eight-p256-nine-p318-four-p245-three-p268-five-p284-two.wav,91.92415178553327,30,-0.12845150017882123,8,RX81,9,0.0,0.0,10.0,0,0,12.090909090909092,2.796682119369507
0,,2024-08-02 15:05:56,sub_121,3,distance,cathedral,localisation_accuracy,4,35,babble,,,babble-reversed_n13_p307-five-p229-three-p318-nine-p245-four-p268-eight-p284-two.wav,91.8587705338252,30,-0.20641727667975684,9,RX81,10,0.0,0.0,11.0,0,0,12.105571847507333,1.6092684268951416
0,,2024-08-02 15:05:59,sub_121,3,distance,cathedral,localisation_accuracy,4,36,babble,,,babble-reversed_n13_p318-one-p307-two-p256-eight-p284-three-p248-five-p245-four.wav,89.06261516963579,30,-0.12295603751687534,3,RX81,4,0.0,0.0,5.0,0,0,7.413489736070382,2.249844789505005
0,,2024-08-02 15:06:02,sub_121,3,distance,cathedral,localisation_accuracy,4,37,babble,,,babble-reversed_n13_p256-eight-p318-five-p307-four-p245-three-p268-one-p284-nine.wav,84.61027271164062,30,0.3130385399729607,0,RX81,1,0.0,0.0,2.0,0,0,4.55425219941349,1.7342369556427002
0,,2024-08-02 15:06:04,sub_121,3,distance,cathedral,localisation_accuracy,4,38,babble,,,babble-reversed_n13_p229-three-p256-nine-p318-five-p248-one-p245-eight-p284-two.wav,90.19686003347988,30,-0.20607330448932504,5,RX81,6,0.0,0.0,7.0,0,0,8.395894428152493,1.49989652633667
0,,2024-08-02 15:06:07,sub_121,3,distance,cathedral,localisation_accuracy,4,39,babble,,,babble-reversed_n13_p256-four-p229-eight-p307-five-p248-three-p245-one-p284-two.wav,85.9241987379877,30,-0.406414882622919,1,RX81,2,0.0,0.0,3.0,0,0,5.258064516129033,1.8436245918273926
0,,2024-08-02 15:06:11,sub_121,3,distance,cathedral,localisation_accuracy,4,40,babble,,,babble-reversed_n13_p256-eight-p229-three-p307-nine-p245-five-p248-four-p268-two.wav,91.59557870352324,30,-0.19638521001544462,7,RX81,8,0.0,0.0,9.0,0,0,8.234604105571847,2.5310771465301514
0,,2024-08-02 15:06:14,sub_121,3,distance,cathedral,localisation_accuracy,4,41,babble,,,babble-reversed_n13_p307-nine-p229-one-p256-eight-p248-four-p284-two-p268-three.wav,91.70952675657028,30,0.17239227634743648,6,RX81,7,0.0,0.0,8.0,0,0,9.994134897360704,2.2498435974121094
0,,2024-08-02 15:06:20,sub_121,3,distance,cathedral,localisation_accuracy,4,42,babble,,,babble-reversed_n13_p229-two-p307-five-p318-four-p284-one-p248-nine-p268-eight.wav,89.5848234219651,30,0.36424352698959084,4,RX81,5,0.0,0.0,6.0,0,0,6.812316715542522,4.030953645706177
0,,2024-08-02 15:06:23,sub_121,3,distance,cathedral,localisation_accuracy,4,43,babble,,,babble-reversed_n13_p256-four-p307-eight-p318-two-p248-three-p284-nine-p268-one.wav,87.36255627527002,30,-0.29955877428337707,2,RX81,3,0.0,0.0,4.0,0,0,6.137829912023461,2.343567132949829
0,,2024-08-02 15:06:26,sub_121,3,distance,cathedral,localisation_accuracy,4,44,babble,,,babble-reversed_n13_p229-two-p307-five-p318-four-p284-one-p248-nine-p268-eight.wav,88.81404231429832,30,-0.4734937965568178,3,RX81,4,0.0,0.0,5.0,0,0,7.809384164222875,1.812356948852539
0,,2024-08-02 15:06:29,sub_121,3,distance,cathedral,localisation_accuracy,4,45,babble,,,babble-reversed_n13_p256-five-p307-nine-p318-three-p284-eight-p268-one-p248-two.wav,91.85271929736568,30,-0.21486453809815487,9,RX81,10,0.0,0.0,11.0,0,0,9.759530791788857,2.3123435974121094
0,,2024-08-02 15:06:33,sub_121,3,distance,cathedral,localisation_accuracy,4,46,babble,,,babble-reversed_n13_p307-nine-p229-one-p256-eight-p248-four-p284-two-p268-three.wav,86.2630218529805,30,0.08669322950042724,1,RX81,2,0.0,0.0,3.0,0,0,4.744868035190616,2.2186169624328613
0,,2024-08-02 15:06:36,sub_121,3,distance,cathedral,localisation_accuracy,4,47,babble,,,babble-reversed_n13_p307-two-p229-one-p256-five-p248-nine-p284-three-p268-eight.wav,91.58027804787622,30,-0.012323606317724334,6,RX81,7,0.0,0.0,8.0,0,0,9.744868035190617,1.921743392944336
0,,2024-08-02 15:06:39,sub_121,3,distance,cathedral,localisation_accuracy,4,48,babble,,,babble-reversed_n13_p256-three-p318-one-p307-two-p284-nine-p268-four-p245-eight.wav,90.27983583334958,30,-0.0880229083057602,5,RX81,6,0.0,0.0,7.0,0,0,11.167155425219942,1.5311253070831299
0,,2024-08-02 15:06:43,sub_121,3,distance,cathedral,localisation_accuracy,4,49,babble,,,babble-reversed_n13_p256-five-p307-nine-p318-three-p284-eight-p268-one-p248-two.wav,87.8607281826267,30,0.42317730850831614,2,RX81,3,0.0,0.0,4.0,0,0,6.284457478005866,3.390410900115967
0,,2024-08-02 15:06:46,sub_121,3,distance,cathedral,localisation_accuracy,4,50,babble,,,babble-reversed_n13_p318-one-p307-two-p256-eight-p284-three-p248-five-p245-four.wav,89.11019817829131,30,-0.270484147298343,4,RX81,5,0.0,0.0,6.0,0,0,8.146627565982405,1.4842710494995117
0,,2024-08-02 15:06:50,sub_121,3,distance,cathedral,localisation_accuracy,4,51,babble,,,babble-reversed_n13_p307-two-p256-four-p318-three-p284-eight-p248-five-p245-nine.wav,84.69439282153863,30,0.4396543736410815,0,RX81,1,0.0,0.0,2.0,0,0,4.583577712609971,2.7185442447662354
0,,2024-08-02 15:06:53,sub_121,3,distance,cathedral,localisation_accuracy,4,52,babble,,,babble-reversed_n13_p256-four-p229-eight-p307-five-p248-three-p245-one-p284-two.wav,92.66529238399889,30,-0.4669237001962777,10,RX81,11,0.0,0.0,12.0,0,0,10.595307917888563,2.4529566764831543
0,,2024-08-02 15:06:55,sub_121,3,distance,cathedral,localisation_accuracy,4,53,babble,,,babble-reversed_n13_p256-four-p229-eight-p307-five-p248-three-p245-one-p284-two.wav,91.83650736187955,30,-0.25146850947079225,8,RX81,9,0.0,0.0,10.0,0,0,11.196480938416423,0.9374568462371826
0,,2024-08-02 15:06:58,sub_121,3,distance,cathedral,localisation_accuracy,4,54,babble,,,babble-reversed_n13_p229-two-p307-five-p318-four-p284-one-p248-nine-p268-eight.wav,91.86348940877062,30,0.17358702283673122,7,RX81,8,0.0,0.0,9.0,0,0,11.621700879765397,2.0310885906219482
