,event_id,timestamp,subject_id,session_index,plane,setup,task,block,trial_index,stim_type,headpose_offset_azi,headpose_offset_ele,stim_filename,stim_level,mgb_level,fluctuation,speaker_id,speaker_proc,speaker_chan,stim_azi,stim_ele,stim_dist,resp_azi,resp_ele,resp_dist,reaction_time
0,,2024-07-03 15:11:15,sub_107,3,distance,cathedral,localisation_accuracy,1,0,pinknoise,,,pinknoise_0.wav,92.31039313359781,30,0.4308369716378948,9,RX81,10,0.0,0.0,11.0,0,0,10.727272727272728,4.952270030975342
0,,2024-07-03 15:11:20,sub_107,3,distance,cathedral,localisation_accuracy,1,1,pinknoise,,,pinknoise_8.wav,91.6206757569922,30,0.04528899287506649,6,RX81,7,0.0,0.0,8.0,0,0,11.240469208211145,3.5444672107696533
0,,2024-07-03 15:11:25,sub_107,3,distance,cathedral,localisation_accuracy,1,2,pinknoise,,,pinknoise_8.wav,84.0813966005503,30,-0.47103804204691335,0,RX81,1,0.0,0.0,2.0,0,0,5.126099706744869,4.203019618988037
0,,2024-07-03 15:11:30,sub_107,3,distance,cathedral,localisation_accuracy,1,3,pinknoise,,,pinknoise_6.wav,92.17087356465781,30,0.2205836413224831,8,RX81,9,0.0,0.0,10.0,0,0,10.697947214076247,3.9673731327056885
0,,2024-07-03 15:11:35,sub_107,3,distance,cathedral,localisation_accuracy,1,4,pinknoise,,,pinknoise_9.wav,89.37013674407629,30,0.07547649227065434,4,RX81,5,0.0,0.0,6.0,0,0,11.284457478005866,2.936469316482544
0,,2024-07-03 15:11:39,sub_107,3,distance,cathedral,localisation_accuracy,1,5,pinknoise,,,pinknoise_7.wav,90.39734156178912,30,0.07995417561657214,5,RX81,6,0.0,0.0,7.0,0,0,11.651026392961878,2.8754723072052
0,,2024-07-03 15:11:43,sub_107,3,distance,cathedral,localisation_accuracy,1,6,pinknoise,,,pinknoise_0.wav,92.68749042306465,30,-0.4361863268836046,10,RX81,11,0.0,0.0,12.0,0,0,11.43108504398827,3.0309436321258545
0,,2024-07-03 15:11:47,sub_107,3,distance,cathedral,localisation_accuracy,1,7,pinknoise,,,pinknoise_8.wav,91.85696993451046,30,0.16452964065487874,7,RX81,8,0.0,0.0,9.0,0,0,11.533724340175954,3.4696297645568848
0,,2024-07-03 15:11:51,sub_107,3,distance,cathedral,localisation_accuracy,1,8,pinknoise,,,pinknoise_8.wav,88.93132855410721,30,-0.3086120248408514,3,RX81,4,0.0,0.0,5.0,0,0,10.023460410557185,2.591303825378418
0,,2024-07-03 15:11:56,sub_107,3,distance,cathedral,localisation_accuracy,1,9,pinknoise,,,pinknoise_1.wav,86.09834362606504,30,-0.15399002409207796,1,RX81,2,0.0,0.0,3.0,0,0,4.935483870967742,3.822597026824951
0,,2024-07-03 15:12:00,sub_107,3,distance,cathedral,localisation_accuracy,1,10,pinknoise,,,pinknoise_2.wav,87.70952687948028,30,0.2019784975515898,2,RX81,3,0.0,0.0,4.0,0,0,7.061583577712611,3.0153026580810547
0,,2024-07-03 15:12:04,sub_107,3,distance,cathedral,localisation_accuracy,1,11,pinknoise,,,pinknoise_9.wav,86.18697888472045,30,-0.0246866028967353,1,RX81,2,0.0,0.0,3.0,0,0,6.211143695014663,2.717877149581909
0,,2024-07-03 15:12:09,sub_107,3,distance,cathedral,localisation_accuracy,1,12,pinknoise,,,pinknoise_0.wav,84.25529925351661,30,-0.21548551342299316,0,RX81,1,0.0,0.0,2.0,0,0,4.466275659824047,3.1256725788116455
0,,2024-07-03 15:12:13,sub_107,3,distance,cathedral,localisation_accuracy,1,13,pinknoise,,,pinknoise_1.wav,89.19709153286624,30,-0.15528006183073761,4,RX81,5,0.0,0.0,6.0,0,0,9.304985337243403,3.452761173248291
0,,2024-07-03 15:12:18,sub_107,3,distance,cathedral,localisation_accuracy,1,14,pinknoise,,,pinknoise_2.wav,92.29229150457601,30,0.40503469498209743,9,RX81,10,0.0,0.0,11.0,0,0,11.211143695014664,3.6099934577941895
0,,2024-07-03 15:12:22,sub_107,3,distance,cathedral,localisation_accuracy,1,15,pinknoise,,,pinknoise_9.wav,89.3564668158522,30,0.29680548225322634,3,RX81,4,0.0,0.0,5.0,0,0,8.938416422287391,3.2186169624328613
0,,2024-07-03 15:12:26,sub_107,3,distance,cathedral,localisation_accuracy,1,16,pinknoise,,,pinknoise_7.wav,90.54105691941561,30,0.28668143389898615,5,RX81,6,0.0,0.0,7.0,0,0,10.683284457478006,2.880795478820801
0,,2024-07-03 15:12:30,sub_107,3,distance,cathedral,localisation_accuracy,1,17,pinknoise,,,pinknoise_4.wav,93.11908255249811,30,0.16783288486384584,10,RX81,11,0.0,0.0,12.0,0,0,11.299120234604107,2.8903138637542725
0,,2024-07-03 15:12:34,sub_107,3,distance,cathedral,localisation_accuracy,1,18,pinknoise,,,pinknoise_0.wav,91.37043717993046,30,-0.3098125393792983,6,RX81,7,0.0,0.0,8.0,0,0,11.621700879765397,2.6544792652130127
0,,2024-07-03 15:12:38,sub_107,3,distance,cathedral,localisation_accuracy,1,19,pinknoise,,,pinknoise_6.wav,91.54754128276694,30,-0.26224141841443305,7,RX81,8,0.0,0.0,9.0,0,0,10.917888563049853,2.8134758472442627
0,,2024-07-03 15:12:42,sub_107,3,distance,cathedral,localisation_accuracy,1,20,pinknoise,,,pinknoise_4.wav,91.70897779531484,30,-0.4295636630145646,8,RX81,9,0.0,0.0,10.0,0,0,11.357771260997069,2.2241861820220947
0,,2024-07-03 15:12:46,sub_107,3,distance,cathedral,localisation_accuracy,1,21,pinknoise,,,pinknoise_7.wav,87.84744129009594,30,0.4036745941116803,2,RX81,3,0.0,0.0,4.0,0,0,7.3695014662756595,3.015279769897461
0,,2024-07-03 15:12:50,sub_107,3,distance,cathedral,localisation_accuracy,1,22,pinknoise,,,pinknoise_2.wav,84.43054029532811,30,0.04427107275308606,0,RX81,1,0.0,0.0,2.0,0,0,3.7624633431085046,3.2943313121795654
0,,2024-07-03 15:12:55,sub_107,3,distance,cathedral,localisation_accuracy,1,23,pinknoise,,,pinknoise_5.wav,89.4186186562459,30,0.38634103409658727,3,RX81,4,0.0,0.0,5.0,0,0,6.636363636363637,3.1425092220306396
0,,2024-07-03 15:12:59,sub_107,3,distance,cathedral,localisation_accuracy,1,24,pinknoise,,,pinknoise_6.wav,91.87955906398696,30,0.41712817055785567,6,RX81,7,0.0,0.0,8.0,0,0,9.86217008797654,2.921884059906006
0,,2024-07-03 15:13:03,sub_107,3,distance,cathedral,localisation_accuracy,1,25,pinknoise,,,pinknoise_0.wav,89.01876709876012,30,-0.39122428440056145,4,RX81,5,0.0,0.0,6.0,0,0,6.812316715542522,2.7975869178771973
0,,2024-07-03 15:13:07,sub_107,3,distance,cathedral,localisation_accuracy,1,26,pinknoise,,,pinknoise_7.wav,92.84688882867681,30,-0.21452751212750343,10,RX81,11,0.0,0.0,12.0,0,0,10.023460410557185,3.367065191268921
0,,2024-07-03 15:13:12,sub_107,3,distance,cathedral,localisation_accuracy,1,27,pinknoise,,,pinknoise_7.wav,86.37389945857969,30,0.24983729238572272,1,RX81,2,0.0,0.0,3.0,0,0,3.7331378299120237,3.4818592071533203
0,,2024-07-03 15:13:17,sub_107,3,distance,cathedral,localisation_accuracy,1,28,pinknoise,,,pinknoise_4.wav,92.31858028726548,30,0.44251422776547333,9,RX81,10,0.0,0.0,11.0,0,0,10.82991202346041,3.5845792293548584
0,,2024-07-03 15:13:20,sub_107,3,distance,cathedral,localisation_accuracy,1,29,pinknoise,,,pinknoise_5.wav,89.99954774133961,30,-0.4849234384351827,5,RX81,6,0.0,0.0,7.0,0,0,10.023460410557185,2.2653520107269287
0,,2024-07-03 15:13:24,sub_107,3,distance,cathedral,localisation_accuracy,1,30,pinknoise,,,pinknoise_9.wav,91.7364965304276,30,-0.0023533129204242886,7,RX81,8,0.0,0.0,9.0,0,0,9.129032258064516,2.99825119972229
0,,2024-07-03 15:13:29,sub_107,3,distance,cathedral,localisation_accuracy,1,31,pinknoise,,,pinknoise_3.wav,87.52492914287791,30,-0.06589819599396429,2,RX81,3,0.0,0.0,4.0,0,0,4.715542521994135,3.3911266326904297
0,,2024-07-03 15:13:34,sub_107,3,distance,cathedral,localisation_accuracy,1,32,pinknoise,,,pinknoise_8.wav,92.20974759575371,30,0.27594909691067826,8,RX81,9,0.0,0.0,10.0,0,0,9.55425219941349,4.280904054641724
0,,2024-07-03 15:13:38,sub_107,3,distance,cathedral,localisation_accuracy,1,33,pinknoise,,,pinknoise_6.wav,91.79794215539656,30,0.29940616853211255,6,RX81,7,0.0,0.0,8.0,0,0,10.991202346041057,2.625765800476074
0,,2024-07-03 15:13:42,sub_107,3,distance,cathedral,localisation_accuracy,1,34,pinknoise,,,pinknoise_4.wav,84.2105251381043,30,-0.281492383988334,0,RX81,1,0.0,0.0,2.0,0,0,3.5718475073313787,3.2495534420013428
0,,2024-07-03 15:13:46,sub_107,3,distance,cathedral,localisation_accuracy,1,35,pinknoise,,,pinknoise_6.wav,86.3756555030092,30,0.2524282200978202,1,RX81,2,0.0,0.0,3.0,0,0,3.8797653958944283,2.964162826538086
0,,2024-07-03 15:13:51,sub_107,3,distance,cathedral,localisation_accuracy,1,36,pinknoise,,,pinknoise_4.wav,91.75097899995606,30,-0.3565314305124524,9,RX81,10,0.0,0.0,11.0,0,0,9.935483870967742,3.390244483947754
0,,2024-07-03 15:13:55,sub_107,3,distance,cathedral,localisation_accuracy,1,37,pinknoise,,,pinknoise_4.wav,92.20106162450044,30,0.2635695063298851,8,RX81,9,0.0,0.0,10.0,0,0,10.82991202346041,2.5890328884124756
0,,2024-07-03 15:13:59,sub_107,3,distance,cathedral,localisation_accuracy,1,38,pinknoise,,,pinknoise_4.wav,90.52900360939496,30,0.26928891142284384,5,RX81,6,0.0,0.0,7.0,0,0,8.219941348973608,3.204181671142578
0,,2024-07-03 15:14:03,sub_107,3,distance,cathedral,localisation_accuracy,1,39,pinknoise,,,pinknoise_1.wav,89.19899606466898,30,-0.1527500210667666,4,RX81,5,0.0,0.0,6.0,0,0,8.161290322580646,3.171358585357666
0,,2024-07-03 15:14:07,sub_107,3,distance,cathedral,localisation_accuracy,1,40,pinknoise,,,pinknoise_8.wav,89.45740726379326,30,0.442353708509613,3,RX81,4,0.0,0.0,5.0,0,0,6.724340175953079,2.6143651008605957
0,,2024-07-03 15:14:11,sub_107,3,distance,cathedral,localisation_accuracy,1,41,pinknoise,,,pinknoise_1.wav,93.32355606360085,30,0.4582893688169529,10,RX81,11,0.0,0.0,12.0,0,0,10.448680351906159,2.9671733379364014
0,,2024-07-03 15:14:15,sub_107,3,distance,cathedral,localisation_accuracy,1,42,pinknoise,,,pinknoise_1.wav,92.07568918598923,30,0.46988171640323595,7,RX81,8,0.0,0.0,9.0,0,0,10.976539589442815,2.609066963195801
0,,2024-07-03 15:14:20,sub_107,3,distance,cathedral,localisation_accuracy,1,43,pinknoise,,,pinknoise_8.wav,87.89006143159051,30,0.46627742997525734,2,RX81,3,0.0,0.0,4.0,0,0,4.392961876832845,3.3115103244781494
0,,2024-07-03 15:14:24,sub_107,3,distance,cathedral,localisation_accuracy,1,44,pinknoise,,,pinknoise_7.wav,91.86848363245315,30,-0.19285320659705096,9,RX81,10,0.0,0.0,11.0,0,0,8.058651026392962,3.5631351470947266
0,,2024-07-03 15:14:28,sub_107,3,distance,cathedral,localisation_accuracy,1,45,pinknoise,,,pinknoise_3.wav,89.0791499513511,30,-0.09949159084361259,3,RX81,4,0.0,0.0,5.0,0,0,5.624633431085044,2.9381706714630127
0,,2024-07-03 15:14:33,sub_107,3,distance,cathedral,localisation_accuracy,1,46,pinknoise,,,pinknoise_3.wav,93.13818267525582,30,0.19484709016078572,10,RX81,11,0.0,0.0,12.0,0,0,10.947214076246334,3.62499737739563
0,,2024-07-03 15:14:37,sub_107,3,distance,cathedral,localisation_accuracy,1,47,pinknoise,,,pinknoise_5.wav,87.7976551167122,30,0.3307087723253691,2,RX81,3,0.0,0.0,4.0,0,0,4.392961876832845,2.806002616882324
0,,2024-07-03 15:14:41,sub_107,3,distance,cathedral,localisation_accuracy,1,48,pinknoise,,,pinknoise_7.wav,91.89297085518938,30,0.4365166804551488,6,RX81,7,0.0,0.0,8.0,0,0,10.008797653958945,2.9059152603149414
0,,2024-07-03 15:14:45,sub_107,3,distance,cathedral,localisation_accuracy,1,49,pinknoise,,,pinknoise_6.wav,91.42310439452223,30,-0.4321604466294976,7,RX81,8,0.0,0.0,9.0,0,0,11.196480938416423,2.046619176864624
0,,2024-07-03 15:14:48,sub_107,3,distance,cathedral,localisation_accuracy,1,50,pinknoise,,,pinknoise_7.wav,90.20328482591972,30,-0.19694936024856502,5,RX81,6,0.0,0.0,7.0,0,0,10.082111436950147,2.4212827682495117
0,,2024-07-03 15:14:52,sub_107,3,distance,cathedral,localisation_accuracy,1,51,pinknoise,,,pinknoise_4.wav,84.29372924277595,30,-0.1587143708654276,0,RX81,1,0.0,0.0,2.0,0,0,3.161290322580646,2.8282077312469482
0,,2024-07-03 15:14:56,sub_107,3,distance,cathedral,localisation_accuracy,1,52,pinknoise,,,pinknoise_6.wav,88.99508075290603,30,-0.422423449981574,4,RX81,5,0.0,0.0,6.0,0,0,5.258064516129033,2.874687910079956
0,,2024-07-03 15:15:00,sub_107,3,distance,cathedral,localisation_accuracy,1,53,pinknoise,,,pinknoise_1.wav,86.25168463645525,30,0.07006143966215617,1,RX81,2,0.0,0.0,3.0,0,0,3.29325513196481,2.4207944869995117
0,,2024-07-03 15:15:05,sub_107,3,distance,cathedral,localisation_accuracy,1,54,pinknoise,,,pinknoise_2.wav,92.33004588187883,30,0.447924637973538,8,RX81,9,0.0,0.0,10.0,0,0,8.645161290322582,3.5788326263427734
0,,2024-07-03 15:15:52,sub_107,3,distance,cathedral,localisation_accuracy,2,0,pinknoise,,,pinknoise_4.wav,84.37058489870365,30,-0.04485366754665154,0,RX81,1,0.0,0.0,2.0,0,0,3.263929618768329,4.5949201583862305
0,,2024-07-03 15:15:57,sub_107,3,distance,cathedral,localisation_accuracy,2,1,pinknoise,,,pinknoise_9.wav,89.43045547658123,30,0.4034230549385882,3,RX81,4,0.0,0.0,5.0,0,0,6.284457478005866,3.6678194999694824
0,,2024-07-03 15:16:02,sub_107,3,distance,cathedral,localisation_accuracy,2,2,pinknoise,,,pinknoise_6.wav,91.77449341351794,30,-0.3382046220367402,8,RX81,9,0.0,0.0,10.0,0,0,10.536656891495602,3.5169906616210938
0,,2024-07-03 15:16:06,sub_107,3,distance,cathedral,localisation_accuracy,2,3,pinknoise,,,pinknoise_1.wav,85.87811299535863,30,-0.4728586621819535,1,RX81,2,0.0,0.0,3.0,0,0,2.9853372434017595,3.0934197902679443
0,,2024-07-03 15:16:10,sub_107,3,distance,cathedral,localisation_accuracy,2,4,pinknoise,,,pinknoise_6.wav,87.2971173820394,30,-0.393211309330332,2,RX81,3,0.0,0.0,4.0,0,0,5.9178885630498534,3.072758436203003
0,,2024-07-03 15:16:15,sub_107,3,distance,cathedral,localisation_accuracy,2,5,pinknoise,,,pinknoise_8.wav,92.76236863302971,30,-0.332267165527689,10,RX81,11,0.0,0.0,12.0,0,0,11.093841642228739,3.188217878341675
0,,2024-07-03 15:16:19,sub_107,3,distance,cathedral,localisation_accuracy,2,6,pinknoise,,,pinknoise_1.wav,91.41156666704265,30,-0.2517372073644666,6,RX81,7,0.0,0.0,8.0,0,0,10.287390029325515,2.8745546340942383
0,,2024-07-03 15:16:23,sub_107,3,distance,cathedral,localisation_accuracy,2,7,pinknoise,,,pinknoise_8.wav,90.38750638863009,30,0.06585847424711866,5,RX81,6,0.0,0.0,7.0,0,0,11.460410557184751,2.491727590560913
0,,2024-07-03 15:16:27,sub_107,3,distance,cathedral,localisation_accuracy,2,8,pinknoise,,,pinknoise_3.wav,92.0421711543939,30,0.050741739104073647,9,RX81,10,0.0,0.0,11.0,0,0,11.020527859237538,3.3377904891967773
0,,2024-07-03 15:16:31,sub_107,3,distance,cathedral,localisation_accuracy,2,9,pinknoise,,,pinknoise_3.wav,89.46679419400644,30,0.205145374010005,4,RX81,5,0.0,0.0,6.0,0,0,8.762463343108505,3.077794313430786
0,,2024-07-03 15:16:35,sub_107,3,distance,cathedral,localisation_accuracy,2,10,pinknoise,,,pinknoise_9.wav,91.59057095584475,30,-0.20325731320764817,7,RX81,8,0.0,0.0,9.0,0,0,7.516129032258066,2.6205005645751953
0,,2024-07-03 15:16:39,sub_107,3,distance,cathedral,localisation_accuracy,2,11,pinknoise,,,pinknoise_5.wav,84.45095120910645,30,0.0746727144428917,0,RX81,1,0.0,0.0,2.0,0,0,2.8533724340175954,2.4536170959472656
0,,2024-07-03 15:16:43,sub_107,3,distance,cathedral,localisation_accuracy,2,12,pinknoise,,,pinknoise_9.wav,91.24555168341514,30,-0.4854585118772474,6,RX81,7,0.0,0.0,8.0,0,0,8.381231671554254,2.6883111000061035
0,,2024-07-03 15:16:46,sub_107,3,distance,cathedral,localisation_accuracy,2,13,pinknoise,,,pinknoise_3.wav,89.33760227841758,30,0.26968157433250073,3,RX81,4,0.0,0.0,5.0,0,0,5.712609970674487,2.5934622287750244
0,,2024-07-03 15:16:50,sub_107,3,distance,cathedral,localisation_accuracy,2,14,pinknoise,,,pinknoise_6.wav,89.18913828506359,30,-0.16584309221537408,4,RX81,5,0.0,0.0,6.0,0,0,4.832844574780059,2.3432462215423584
0,,2024-07-03 15:16:53,sub_107,3,distance,cathedral,localisation_accuracy,2,15,pinknoise,,,pinknoise_3.wav,86.2799804307758,30,0.1115887757538333,1,RX81,2,0.0,0.0,3.0,0,0,2.970674486803519,2.328784465789795
0,,2024-07-03 15:16:58,sub_107,3,distance,cathedral,localisation_accuracy,2,16,pinknoise,,,pinknoise_7.wav,87.64527111078087,30,0.10846364334472791,2,RX81,3,0.0,0.0,4.0,0,0,4.686217008797654,3.1213979721069336
0,,2024-07-03 15:17:02,sub_107,3,distance,cathedral,localisation_accuracy,2,17,pinknoise,,,pinknoise_9.wav,91.6254369677863,30,-0.15537797653689034,7,RX81,8,0.0,0.0,9.0,0,0,10.375366568914957,3.4053127765655518
0,,2024-07-03 15:17:06,sub_107,3,distance,cathedral,localisation_accuracy,2,18,pinknoise,,,pinknoise_7.wav,93.33953332141368,30,0.48110265734198854,10,RX81,11,0.0,0.0,12.0,0,0,11.445747800586512,2.7340922355651855
0,,2024-07-03 15:17:10,sub_107,3,distance,cathedral,localisation_accuracy,2,19,pinknoise,,,pinknoise_2.wav,92.07909518839838,30,0.10278335524273763,9,RX81,10,0.0,0.0,11.0,0,0,12.03225806451613,2.3857643604278564
0,,2024-07-03 15:17:13,sub_107,3,distance,cathedral,localisation_accuracy,2,20,pinknoise,,,pinknoise_7.wav,90.25206784416221,30,-0.1275806515956185,5,RX81,6,0.0,0.0,7.0,0,0,9.950146627565983,2.53193998336792
0,,2024-07-03 15:17:17,sub_107,3,distance,cathedral,localisation_accuracy,2,21,pinknoise,,,pinknoise_6.wav,91.70486313004054,30,-0.4352920072480231,8,RX81,9,0.0,0.0,10.0,0,0,10.580645161290324,2.6021080017089844
0,,2024-07-03 15:17:20,sub_107,3,distance,cathedral,localisation_accuracy,2,22,pinknoise,,,pinknoise_5.wav,92.2114199076664,30,0.2900263087250212,9,RX81,10,0.0,0.0,11.0,0,0,11.284457478005866,2.265392303466797
0,,2024-07-03 15:17:25,sub_107,3,distance,cathedral,localisation_accuracy,2,23,pinknoise,,,pinknoise_8.wav,86.47706040309026,30,0.402421480894641,1,RX81,2,0.0,0.0,3.0,0,0,3.4692082111436955,3.1234145164489746
0,,2024-07-03 15:17:28,sub_107,3,distance,cathedral,localisation_accuracy,2,24,pinknoise,,,pinknoise_9.wav,88.98242701113136,30,-0.4390772227332801,4,RX81,5,0.0,0.0,6.0,0,0,6.5043988269794735,2.2974607944488525
0,,2024-07-03 15:17:32,sub_107,3,distance,cathedral,localisation_accuracy,2,25,pinknoise,,,pinknoise_0.wav,84.20498629796667,30,-0.28964767588475226,0,RX81,1,0.0,0.0,2.0,0,0,2.9120234604105573,2.452638626098633
0,,2024-07-03 15:17:36,sub_107,3,distance,cathedral,localisation_accuracy,2,26,pinknoise,,,pinknoise_5.wav,89.31004839806675,30,0.23010754127499855,3,RX81,4,0.0,0.0,5.0,0,0,5.683284457478006,2.7028467655181885
0,,2024-07-03 15:17:40,sub_107,3,distance,cathedral,localisation_accuracy,2,27,pinknoise,,,pinknoise_2.wav,92.66127411460644,30,-0.4724843352974897,10,RX81,11,0.0,0.0,12.0,0,0,11.020527859237538,3.072544574737549
0,,2024-07-03 15:17:44,sub_107,3,distance,cathedral,localisation_accuracy,2,28,pinknoise,,,pinknoise_4.wav,91.874981334949,30,0.4105132881760144,6,RX81,7,0.0,0.0,8.0,0,0,10.316715542521996,3.1411292552948
0,,2024-07-03 15:17:48,sub_107,3,distance,cathedral,localisation_accuracy,2,29,pinknoise,,,pinknoise_9.wav,92.310991192818,30,0.42061954316721606,8,RX81,9,0.0,0.0,10.0,0,0,9.803519061583579,2.7036759853363037
0,,2024-07-03 15:17:52,sub_107,3,distance,cathedral,localisation_accuracy,2,30,pinknoise,,,pinknoise_2.wav,91.41602793196998,30,-0.44179415316899306,7,RX81,8,0.0,0.0,9.0,0,0,11.973607038123168,2.604530096054077
0,,2024-07-03 15:17:55,sub_107,3,distance,cathedral,localisation_accuracy,2,31,pinknoise,,,pinknoise_1.wav,90.12031788293277,30,-0.3145573379976414,5,RX81,6,0.0,0.0,7.0,0,0,11.167155425219942,2.265361785888672
0,,2024-07-03 15:18:01,sub_107,3,distance,cathedral,localisation_accuracy,2,32,pinknoise,,,pinknoise_0.wav,87.64191025305342,30,0.10358038376032619,2,RX81,3,0.0,0.0,4.0,0,0,4.392961876832845,4.0447351932525635
0,,2024-07-03 15:18:06,sub_107,3,distance,cathedral,localisation_accuracy,2,33,pinknoise,,,pinknoise_8.wav,92.8527266851102,30,-0.20637793902592305,10,RX81,11,0.0,0.0,12.0,0,0,9.348973607038124,3.844297409057617
0,,2024-07-03 15:18:10,sub_107,3,distance,cathedral,localisation_accuracy,2,34,pinknoise,,,pinknoise_2.wav,91.54605257040508,30,-0.2642800206991779,7,RX81,8,0.0,0.0,9.0,0,0,7.589442815249267,2.7338528633117676
0,,2024-07-03 15:18:14,sub_107,3,distance,cathedral,localisation_accuracy,2,35,pinknoise,,,pinknoise_8.wav,84.22578451015158,30,-0.25901316922076223,0,RX81,1,0.0,0.0,2.0,0,0,3.3665689149560123,3.0010735988616943
0,,2024-07-03 15:18:18,sub_107,3,distance,cathedral,localisation_accuracy,2,36,pinknoise,,,pinknoise_2.wav,86.03182364986964,30,-0.25066458425201865,1,RX81,2,0.0,0.0,3.0,0,0,4.671554252199414,3.3743345737457275
0,,2024-07-03 15:18:23,sub_107,3,distance,cathedral,localisation_accuracy,2,37,pinknoise,,,pinknoise_5.wav,91.76624629246177,30,-0.34972043011836484,8,RX81,9,0.0,0.0,10.0,0,0,8.747800586510264,3.0916850566864014
0,,2024-07-03 15:18:26,sub_107,3,distance,cathedral,localisation_accuracy,2,38,pinknoise,,,pinknoise_4.wav,91.26534351555927,30,-0.4576916172024229,6,RX81,7,0.0,0.0,8.0,0,0,9.935483870967742,2.4840939044952393
0,,2024-07-03 15:18:31,sub_107,3,distance,cathedral,localisation_accuracy,2,39,pinknoise,,,pinknoise_2.wav,87.39540314368153,30,-0.25243853784221004,2,RX81,3,0.0,0.0,4.0,0,0,4.847507331378299,3.2783474922180176
0,,2024-07-03 15:18:34,sub_107,3,distance,cathedral,localisation_accuracy,2,40,pinknoise,,,pinknoise_3.wav,89.35527452413866,30,0.05558781332600993,4,RX81,5,0.0,0.0,6.0,0,0,7.1788856304985345,2.5472702980041504
0,,2024-07-03 15:18:38,sub_107,3,distance,cathedral,localisation_accuracy,2,41,pinknoise,,,pinknoise_7.wav,91.69372718736254,30,-0.4359544631655139,9,RX81,10,0.0,0.0,11.0,0,0,10.43401759530792,3.0152499675750732
0,,2024-07-03 15:18:42,sub_107,3,distance,cathedral,localisation_accuracy,2,42,pinknoise,,,pinknoise_2.wav,89.18526225425254,30,0.051531213063557235,3,RX81,4,0.0,0.0,5.0,0,0,5.47800586510264,2.062256097793579
0,,2024-07-03 15:18:45,sub_107,3,distance,cathedral,localisation_accuracy,2,43,pinknoise,,,pinknoise_7.wav,90.60696092912679,30,0.38195556794844177,5,RX81,6,0.0,0.0,7.0,0,0,7.926686217008799,2.2028706073760986
0,,2024-07-03 15:18:49,sub_107,3,distance,cathedral,localisation_accuracy,2,44,pinknoise,,,pinknoise_7.wav,84.72955363923035,30,0.492734303865359,0,RX81,1,0.0,0.0,2.0,0,0,4.070381231671554,2.373415470123291
0,,2024-07-03 15:18:53,sub_107,3,distance,cathedral,localisation_accuracy,2,45,pinknoise,,,pinknoise_0.wav,92.09501685997184,30,0.4970131042684758,7,RX81,8,0.0,0.0,9.0,0,0,9.114369501466276,3.2973201274871826
0,,2024-07-03 15:18:57,sub_107,3,distance,cathedral,localisation_accuracy,2,46,pinknoise,,,pinknoise_9.wav,90.39470806059457,30,0.07617921240831405,5,RX81,6,0.0,0.0,7.0,0,0,7.061583577712611,2.6606338024139404
0,,2024-07-03 15:19:01,sub_107,3,distance,cathedral,localisation_accuracy,2,47,pinknoise,,,pinknoise_5.wav,89.10352401762454,30,-0.06486883590590309,3,RX81,4,0.0,0.0,5.0,0,0,5.140762463343109,2.5779061317443848
0,,2024-07-03 15:19:05,sub_107,3,distance,cathedral,localisation_accuracy,2,48,pinknoise,,,pinknoise_4.wav,92.2790149287775,30,0.38612401501631854,9,RX81,10,0.0,0.0,11.0,0,0,10.038123167155426,3.2951338291168213
0,,2024-07-03 15:19:10,sub_107,3,distance,cathedral,localisation_accuracy,2,49,pinknoise,,,pinknoise_0.wav,86.00759195399002,30,-0.2858030361065341,1,RX81,2,0.0,0.0,3.0,0,0,2.868035190615836,3.2660510540008545
0,,2024-07-03 15:19:14,sub_107,3,distance,cathedral,localisation_accuracy,2,50,pinknoise,,,pinknoise_7.wav,91.9352470709419,30,-0.11284201449625142,8,RX81,9,0.0,0.0,10.0,0,0,8.777126099706745,2.8135006427764893
0,,2024-07-03 15:19:17,sub_107,3,distance,cathedral,localisation_accuracy,2,51,pinknoise,,,pinknoise_6.wav,87.28161696361566,30,-0.41535135951211244,2,RX81,3,0.0,0.0,4.0,0,0,4.319648093841643,2.6635665893554688
0,,2024-07-03 15:19:21,sub_107,3,distance,cathedral,localisation_accuracy,2,52,pinknoise,,,pinknoise_4.wav,89.6037244152374,30,0.3897989550982812,4,RX81,5,0.0,0.0,6.0,0,0,7.765395894428153,2.8903303146362305
0,,2024-07-03 15:19:25,sub_107,3,distance,cathedral,localisation_accuracy,2,53,pinknoise,,,pinknoise_1.wav,91.49243228483363,30,-0.1372225327469142,6,RX81,7,0.0,0.0,8.0,0,0,9.612903225806452,2.4139487743377686
0,,2024-07-03 15:19:29,sub_107,3,distance,cathedral,localisation_accuracy,2,54,pinknoise,,,pinknoise_7.wav,93.05502859529659,30,0.07741465810384707,10,RX81,11,0.0,0.0,12.0,0,0,10.932551319648095,2.671679973602295
0,,2024-07-03 15:21:18,sub_107,3,distance,cathedral,localisation_accuracy,3,0,babble,,,babble-reversed_n13_p229-two-p256-three-p318-eight-p284-five-p268-four-p245-one.wav,89.0065682359022,30,-0.4072964824310107,4,RX81,5,0.0,0.0,6.0,0,0,8.381231671554254,4.560234069824219
0,,2024-07-03 15:21:23,sub_107,3,distance,cathedral,localisation_accuracy,3,1,babble,,,babble-reversed_n13_p318-five-p229-four-p256-eight-p284-one-p245-three-p248-two.wav,89.08163114770358,30,-0.09596894462415473,3,RX81,4,0.0,0.0,5.0,0,0,7.604105571847509,3.7690298557281494
0,,2024-07-03 15:24:27,sub_107,3,distance,cathedral,localisation_accuracy,3,0,babble,,,babble-reversed_n13_p256-four-p229-eight-p307-five-p248-three-p245-one-p284-two.wav,88.93970946925637,30,-0.29679489263113,3,RX81,4,0.0,0.0,5.0,0,0,7.941348973607038,3.0778136253356934
0,,2024-07-03 15:24:31,sub_107,3,distance,cathedral,localisation_accuracy,3,1,babble,,,babble-reversed_n13_p318-four-p256-five-p229-three-p284-one-p245-eight-p248-nine.wav,91.54522642087821,30,-0.06222245001643889,6,RX81,7,0.0,0.0,8.0,0,0,9.275659824046922,2.7965872287750244
0,,2024-07-03 15:24:36,sub_107,3,distance,cathedral,localisation_accuracy,3,2,babble,,,babble-reversed_n13_p307-two-p229-one-p256-five-p248-nine-p284-three-p268-eight.wav,91.78983585277108,30,-0.30250543832383203,9,RX81,10,0.0,0.0,11.0,0,0,9.085043988269796,3.2328009605407715
0,,2024-07-03 15:24:40,sub_107,3,distance,cathedral,localisation_accuracy,3,3,babble,,,babble-reversed_n13_p256-four-p229-eight-p307-five-p248-three-p245-one-p284-two.wav,89.42417802277049,30,0.14790573220939252,4,RX81,5,0.0,0.0,6.0,0,0,6.797653958944283,3.188181161880493
0,,2024-07-03 15:24:44,sub_107,3,distance,cathedral,localisation_accuracy,3,4,babble,,,babble-reversed_n13_p307-one-p318-five-p229-four-p268-eight-p284-two-p245-three.wav,87.78150616007078,30,0.30707875136922147,2,RX81,3,0.0,0.0,4.0,0,0,7.442815249266863,3.030726909637451
0,,2024-07-03 15:24:49,sub_107,3,distance,cathedral,localisation_accuracy,3,5,babble,,,babble-reversed_n13_p307-nine-p318-two-p256-one-p245-three-p268-four-p248-eight.wav,84.23865811494068,30,-0.2400353042736627,0,RX81,1,0.0,0.0,2.0,0,0,2.8826979472140764,3.6724720001220703
0,,2024-07-03 15:24:53,sub_107,3,distance,cathedral,localisation_accuracy,3,6,babble,,,babble-reversed_n13_p229-three-p256-one-p307-two-p284-eight-p268-five-p248-nine.wav,91.47142296504146,30,-0.36629687264697586,7,RX81,8,0.0,0.0,9.0,0,0,6.328445747800586,2.669011116027832
0,,2024-07-03 15:24:57,sub_107,3,distance,cathedral,localisation_accuracy,3,7,babble,,,babble-reversed_n13_p256-three-p318-two-p229-nine-p248-four-p284-one-p268-eight.wav,92.7896068852082,30,-0.29437422159486737,10,RX81,11,0.0,0.0,12.0,0,0,8.410557184750735,2.765322685241699
0,,2024-07-03 15:25:02,sub_107,3,distance,cathedral,localisation_accuracy,3,8,babble,,,babble-reversed_n13_p307-nine-p229-one-p256-eight-p248-four-p284-two-p268-three.wav,90.35140726641777,30,0.014178056784460713,5,RX81,6,0.0,0.0,7.0,0,0,7.3695014662756595,3.7488622665405273
0,,2024-07-03 15:25:06,sub_107,3,distance,cathedral,localisation_accuracy,3,9,babble,,,babble-reversed_n13_p229-two-p318-eight-p256-three-p268-one-p248-nine-p284-five.wav,92.24374302521092,30,0.32444944510675733,8,RX81,9,0.0,0.0,10.0,0,0,8.850439882697948,3.047243118286133
0,,2024-07-03 15:25:10,sub_107,3,distance,cathedral,localisation_accuracy,3,10,babble,,,babble-reversed_n13_p229-two-p307-five-p318-four-p284-one-p248-nine-p268-eight.wav,86.3328044774621,30,0.18926767591503824,1,RX81,2,0.0,0.0,3.0,0,0,3.8504398826979473,2.765559196472168
0,,2024-07-03 15:25:14,sub_107,3,distance,cathedral,localisation_accuracy,3,11,babble,,,babble-reversed_n13_p229-one-p318-eight-p256-three-p268-nine-p248-five-p284-four.wav,87.4173713421976,30,-0.22088250708697077,2,RX81,3,0.0,0.0,4.0,0,0,6.621700879765397,3.375638008117676
0,,2024-07-03 15:25:18,sub_107,3,distance,cathedral,localisation_accuracy,3,12,babble,,,babble-reversed_n13_p318-nine-p256-five-p307-eight-p268-three-p248-one-p245-four.wav,86.16189960684832,30,-0.061329628847473616,1,RX81,2,0.0,0.0,3.0,0,0,4.451612903225807,3.14042067527771
0,,2024-07-03 15:25:22,sub_107,3,distance,cathedral,localisation_accuracy,3,13,babble,,,babble-reversed_n13_p318-five-p256-nine-p307-eight-p248-two-p245-four-p284-three.wav,89.38632301309697,30,0.3397831579000441,3,RX81,4,0.0,0.0,5.0,0,0,6.10850439882698,3.046546220779419
0,,2024-07-03 15:25:26,sub_107,3,distance,cathedral,localisation_accuracy,3,14,babble,,,babble-reversed_n13_p256-four-p229-two-p318-five-p268-one-p248-eight-p245-three.wav,84.21587255045154,30,-0.27361682318949276,0,RX81,1,0.0,0.0,2.0,0,0,3.9824046920821115,2.4059760570526123
0,,2024-07-03 15:25:30,sub_107,3,distance,cathedral,localisation_accuracy,3,15,babble,,,babble-reversed_n13_p229-eight-p256-nine-p318-four-p245-three-p268-five-p284-two.wav,92.36465990456699,30,0.49758874768646,8,RX81,9,0.0,0.0,10.0,0,0,8.395894428152493,3.280308723449707
0,,2024-07-03 15:25:35,sub_107,3,distance,cathedral,localisation_accuracy,3,16,babble,,,babble-reversed_n13_p229-two-p307-five-p318-four-p284-one-p248-nine-p268-eight.wav,90.13176013219001,30,-0.2983652581458176,5,RX81,6,0.0,0.0,7.0,0,0,9.2316715542522,3.922802209854126
0,,2024-07-03 15:25:40,sub_107,3,distance,cathedral,localisation_accuracy,3,17,babble,,,babble-reversed_n13_p307-nine-p318-two-p256-one-p245-three-p268-four-p248-eight.wav,91.37327197697944,30,-0.30581341213635116,6,RX81,7,0.0,0.0,8.0,0,0,8.175953079178885,3.311925172805786
0,,2024-07-03 15:25:44,sub_107,3,distance,cathedral,localisation_accuracy,3,18,babble,,,babble-reversed_n13_p229-three-p256-one-p307-two-p284-eight-p268-five-p248-nine.wav,92.3381425713557,30,0.47043386741678095,9,RX81,10,0.0,0.0,11.0,0,0,9.260997067448681,2.7665224075317383
0,,2024-07-03 15:25:48,sub_107,3,distance,cathedral,localisation_accuracy,3,19,babble,,,babble-reversed_n13_p256-four-p229-two-p318-five-p268-one-p248-eight-p245-three.wav,91.62705187733766,30,-0.1531584578712314,7,RX81,8,0.0,0.0,9.0,0,0,8.60117302052786,3.1559529304504395
0,,2024-07-03 15:25:52,sub_107,3,distance,cathedral,localisation_accuracy,3,20,babble,,,babble-reversed_n13_p318-three-p229-one-p256-eight-p245-five-p248-four-p284-nine.wav,93.12106812904372,30,0.17064005349233669,10,RX81,11,0.0,0.0,12.0,0,0,9.348973607038124,3.171536922454834
0,,2024-07-03 15:25:56,sub_107,3,distance,cathedral,localisation_accuracy,3,21,babble,,,babble-reversed_n13_p318-four-p256-five-p229-three-p284-one-p245-eight-p248-nine.wav,89.08169611774383,30,-0.308175525857727,4,RX81,5,0.0,0.0,6.0,0,0,6.5043988269794735,2.671304225921631
0,,2024-07-03 15:26:00,sub_107,3,distance,cathedral,localisation_accuracy,3,22,babble,,,babble-reversed_n13_p318-one-p307-two-p256-eight-p284-three-p248-five-p245-four.wav,91.82743269801216,30,0.341889858917381,6,RX81,7,0.0,0.0,8.0,0,0,7.208211143695015,2.7654354572296143
0,,2024-07-03 15:26:04,sub_107,3,distance,cathedral,localisation_accuracy,3,23,babble,,,babble-reversed_n13_p229-two-p307-five-p318-four-p284-one-p248-nine-p268-eight.wav,90.1609237861439,30,-0.2570554274670368,5,RX81,6,0.0,0.0,7.0,0,0,6.181818181818182,2.4119770526885986
0,,2024-07-03 15:26:08,sub_107,3,distance,cathedral,localisation_accuracy,3,24,babble,,,babble-reversed_n13_p229-one-p318-nine-p256-four-p284-eight-p268-five-p245-two.wav,91.99620077206646,30,0.3585527039567652,7,RX81,8,0.0,0.0,9.0,0,0,8.90909090909091,2.9215776920318604
0,,2024-07-03 15:26:12,sub_107,3,distance,cathedral,localisation_accuracy,3,25,babble,,,babble-reversed_n13_p318-five-p229-three-p256-four-p268-eight-p248-one-p245-nine.wav,84.70167068746608,30,0.4506336914847062,0,RX81,1,0.0,0.0,2.0,0,0,2.618768328445748,3.437135696411133
0,,2024-07-03 15:26:16,sub_107,3,distance,cathedral,localisation_accuracy,3,26,babble,,,babble-reversed_n13_p229-one-p318-nine-p256-four-p284-eight-p268-five-p245-two.wav,92.99045604121466,30,-0.013461320384011488,10,RX81,11,0.0,0.0,12.0,0,0,7.266862170087977,2.9201273918151855
0,,2024-07-03 15:26:21,sub_107,3,distance,cathedral,localisation_accuracy,3,27,babble,,,babble-reversed_n13_p229-five-p256-three-p318-nine-p248-two-p284-four-p268-one.wav,92.22375552386977,30,0.3075407659513272,9,RX81,10,0.0,0.0,11.0,0,0,9.348973607038124,3.4071223735809326
0,,2024-07-03 15:26:25,sub_107,3,distance,cathedral,localisation_accuracy,3,28,babble,,,babble-reversed_n13_p256-eight-p229-three-p307-nine-p245-five-p248-four-p268-two.wav,92.32317433586388,30,0.43807498719048266,8,RX81,9,0.0,0.0,10.0,0,0,8.029325513196481,3.405730962753296
0,,2024-07-03 15:26:29,sub_107,3,distance,cathedral,localisation_accuracy,3,29,babble,,,babble-reversed_n13_p229-three-p307-one-p318-two-p245-eight-p268-five-p284-four.wav,87.55779374013966,30,-0.01838160000539857,2,RX81,3,0.0,0.0,4.0,0,0,4.480938416422288,3.079007387161255
0,,2024-07-03 15:26:34,sub_107,3,distance,cathedral,localisation_accuracy,3,30,babble,,,babble-reversed_n13_p256-eight-p318-five-p307-four-p245-three-p268-one-p284-nine.wav,88.81080953327185,30,-0.47802547160908204,3,RX81,4,0.0,0.0,5.0,0,0,6.724340175953079,3.6712677478790283
0,,2024-07-03 15:26:38,sub_107,3,distance,cathedral,localisation_accuracy,3,31,babble,,,babble-reversed_n13_p318-five-p229-four-p256-eight-p284-one-p245-three-p248-two.wav,89.53739802488488,30,0.30021573524985024,4,RX81,5,0.0,0.0,6.0,0,0,4.832844574780059,2.429199457168579
0,,2024-07-03 15:26:41,sub_107,3,distance,cathedral,localisation_accuracy,3,32,babble,,,babble-reversed_n13_p229-three-p307-one-p318-two-p245-eight-p268-five-p284-four.wav,86.38141677891028,30,0.2609301610903393,1,RX81,2,0.0,0.0,3.0,0,0,3.4398826979472146,2.546609878540039
0,,2024-07-03 15:26:45,sub_107,3,distance,cathedral,localisation_accuracy,3,33,babble,,,babble-reversed_n13_p318-five-p229-three-p256-four-p268-eight-p248-one-p245-nine.wav,89.38528670649688,30,0.09576377495766752,4,RX81,5,0.0,0.0,6.0,0,0,5.976539589442815,2.2949390411376953
0,,2024-07-03 15:26:49,sub_107,3,distance,cathedral,localisation_accuracy,3,34,babble,,,babble-reversed_n13_p229-nine-p318-one-p307-two-p248-eight-p245-five-p284-four.wav,92.20576370344699,30,0.28199885461933416,9,RX81,10,0.0,0.0,11.0,0,0,8.894428152492669,3.094484567642212
0,,2024-07-03 15:26:53,sub_107,3,distance,cathedral,localisation_accuracy,3,35,babble,,,babble-reversed_n13_p256-three-p318-two-p229-nine-p248-four-p284-one-p268-eight.wav,84.37558249083565,30,-0.03743477112007765,0,RX81,1,0.0,0.0,2.0,0,0,3.2199413489736077,2.6920690536499023
0,,2024-07-03 15:26:56,sub_107,3,distance,cathedral,localisation_accuracy,3,36,babble,,,babble-reversed_n13_p318-one-p307-two-p256-eight-p284-three-p248-five-p245-four.wav,86.02508998484583,30,-0.26043325828106634,1,RX81,2,0.0,0.0,3.0,0,0,4.099706744868035,2.093524217605591
0,,2024-07-03 15:26:59,sub_107,3,distance,cathedral,localisation_accuracy,3,37,babble,,,babble-reversed_n13_p307-nine-p318-two-p256-one-p245-three-p268-four-p248-eight.wav,91.63423386494344,30,-0.14328559244825123,7,RX81,8,0.0,0.0,9.0,0,0,6.0205278592375375,2.2500228881835938
0,,2024-07-03 15:27:03,sub_107,3,distance,cathedral,localisation_accuracy,3,38,babble,,,babble-reversed_n13_p256-two-p307-five-p318-nine-p248-eight-p245-four-p284-one.wav,89.44325320042364,30,0.42190258440706585,3,RX81,4,0.0,0.0,5.0,0,0,4.86217008797654,2.3451857566833496
0,,2024-07-03 15:27:07,sub_107,3,distance,cathedral,localisation_accuracy,3,39,babble,,,babble-reversed_n13_p229-one-p318-nine-p256-four-p284-eight-p268-five-p245-two.wav,91.72384285804921,30,-0.40885960835134794,8,RX81,9,0.0,0.0,10.0,0,0,9.055718475073315,2.6715774536132812
0,,2024-07-03 15:27:11,sub_107,3,distance,cathedral,localisation_accuracy,3,40,babble,,,babble-reversed_n13_p229-nine-p307-five-p256-two-p248-three-p245-one-p268-eight.wav,87.38805559393373,30,-0.262985398658934,2,RX81,3,0.0,0.0,4.0,0,0,3.5425219941348978,2.9493141174316406
0,,2024-07-03 15:27:15,sub_107,3,distance,cathedral,localisation_accuracy,3,41,babble,,,babble-reversed_n13_p256-three-p318-one-p307-two-p284-nine-p268-four-p245-eight.wav,92.79191207916108,30,-0.29116509253118483,10,RX81,11,0.0,0.0,12.0,0,0,10.346041055718477,3.4226980209350586
0,,2024-07-03 15:27:19,sub_107,3,distance,cathedral,localisation_accuracy,3,42,babble,,,babble-reversed_n13_p229-three-p256-one-p307-two-p284-eight-p268-five-p248-nine.wav,91.35976171694463,30,-0.32486788008176204,6,RX81,7,0.0,0.0,8.0,0,0,6.6950146627565985,2.9214913845062256
0,,2024-07-03 15:27:23,sub_107,3,distance,cathedral,localisation_accuracy,3,43,babble,,,babble-reversed_n13_p229-three-p256-one-p307-two-p284-eight-p268-five-p248-nine.wav,90.6569394860835,30,0.45440684351853033,5,RX81,6,0.0,0.0,7.0,0,0,6.70967741935484,2.5608901977539062
0,,2024-07-03 15:27:26,sub_107,3,distance,cathedral,localisation_accuracy,3,44,babble,,,babble-reversed_n13_p307-one-p318-five-p229-four-p268-eight-p284-two-p245-three.wav,91.81116578318367,30,-0.286943236085738,8,RX81,9,0.0,0.0,10.0,0,0,8.190615835777127,2.0779004096984863
0,,2024-07-03 15:27:30,sub_107,3,distance,cathedral,localisation_accuracy,3,45,babble,,,babble-reversed_n13_p229-two-p256-three-p318-eight-p284-five-p268-four-p245-one.wav,89.445391195095,30,0.17638449949244117,4,RX81,5,0.0,0.0,6.0,0,0,4.422287390029326,2.342306613922119
0,,2024-07-03 15:27:34,sub_107,3,distance,cathedral,localisation_accuracy,3,46,babble,,,babble-reversed_n13_p318-nine-p256-five-p307-eight-p268-three-p248-one-p245-four.wav,92.32435681427864,30,0.4507559270034778,9,RX81,10,0.0,0.0,11.0,0,0,9.656891495601174,3.5630385875701904
0,,2024-07-03 15:27:38,sub_107,3,distance,cathedral,localisation_accuracy,3,47,babble,,,babble-reversed_n13_p229-three-p256-nine-p318-five-p248-one-p245-eight-p284-two.wav,91.67256499162265,30,-0.09053767497122545,7,RX81,8,0.0,0.0,9.0,0,0,7.530791788856305,2.7156124114990234
0,,2024-07-03 15:27:42,sub_107,3,distance,cathedral,localisation_accuracy,3,48,babble,,,babble-reversed_n13_p229-five-p318-three-p307-two-p245-four-p284-nine-p248-eight.wav,92.80912966759789,30,-0.2671850081200541,10,RX81,11,0.0,0.0,12.0,0,0,10.111436950146627,2.468470573425293
0,,2024-07-03 15:27:45,sub_107,3,distance,cathedral,localisation_accuracy,3,49,babble,,,babble-reversed_n13_p307-nine-p229-one-p256-eight-p248-four-p284-two-p268-three.wav,86.50001352852394,30,0.43647572756007114,1,RX81,2,0.0,0.0,3.0,0,0,3.5571847507331382,2.5294737815856934
0,,2024-07-03 15:27:49,sub_107,3,distance,cathedral,localisation_accuracy,3,50,babble,,,babble-reversed_n13_p229-three-p256-one-p307-two-p284-eight-p268-five-p248-nine.wav,91.86385497494177,30,0.39444153936091175,6,RX81,7,0.0,0.0,8.0,0,0,5.448680351906159,2.688141107559204
0,,2024-07-03 15:27:53,sub_107,3,distance,cathedral,localisation_accuracy,3,51,babble,,,babble-reversed_n13_p307-one-p318-five-p229-four-p268-eight-p284-two-p245-three.wav,90.24788267328714,30,-0.1335382272711173,5,RX81,6,0.0,0.0,7.0,0,0,7.296187683284458,3.0606746673583984
0,,2024-07-03 15:27:58,sub_107,3,distance,cathedral,localisation_accuracy,3,52,babble,,,babble-reversed_n13_p256-eight-p229-three-p307-nine-p245-five-p248-four-p268-two.wav,84.67784674094688,30,0.41470784568719943,0,RX81,1,0.0,0.0,2.0,0,0,2.6920821114369504,3.030921697616577
0,,2024-07-03 15:28:01,sub_107,3,distance,cathedral,localisation_accuracy,3,53,babble,,,babble-reversed_n13_p318-one-p307-two-p256-eight-p284-three-p248-five-p245-four.wav,87.75375183838102,30,0.26651013725158523,2,RX81,3,0.0,0.0,4.0,0,0,4.744868035190616,2.1832833290100098
0,,2024-07-03 15:28:05,sub_107,3,distance,cathedral,localisation_accuracy,3,54,babble,,,babble-reversed_n13_p229-three-p256-one-p307-two-p284-eight-p268-five-p248-nine.wav,88.83566897463064,30,-0.4431598965555211,3,RX81,4,0.0,0.0,5.0,0,0,5.4046920821114375,3.371727228164673
0,,2024-07-03 15:29:27,sub_107,3,distance,cathedral,localisation_accuracy,4,0,babble,,,babble-reversed_n13_p256-four-p229-eight-p307-five-p248-three-p245-one-p284-two.wav,91.71354579745176,30,0.17815429551170148,6,RX81,7,0.0,0.0,8.0,0,0,7.692082111436951,5.030581712722778
0,,2024-07-03 15:29:32,sub_107,3,distance,cathedral,localisation_accuracy,4,1,babble,,,babble-reversed_n13_p256-two-p307-five-p318-nine-p248-eight-p245-four-p284-one.wav,91.64578468346713,30,-0.12740017433238526,7,RX81,8,0.0,0.0,9.0,0,0,9.656891495601174,3.7035346031188965
0,,2024-07-03 15:29:36,sub_107,3,distance,cathedral,localisation_accuracy,4,2,babble,,,babble-reversed_n13_p307-four-p318-three-p256-eight-p284-two-p245-nine-p248-five.wav,84.11159076263422,30,-0.42682510485528,0,RX81,1,0.0,0.0,2.0,0,0,3.058651026392962,2.9381988048553467
0,,2024-07-03 15:29:40,sub_107,3,distance,cathedral,localisation_accuracy,4,3,babble,,,babble-reversed_n13_p318-five-p229-three-p256-four-p268-eight-p248-one-p245-nine.wav,87.26190347782479,30,-0.4434852354710658,2,RX81,3,0.0,0.0,4.0,0,0,5.4046920821114375,3.391334295272827
0,,2024-07-03 15:29:44,sub_107,3,distance,cathedral,localisation_accuracy,4,4,babble,,,babble-reversed_n13_p229-five-p256-one-p318-three-p248-nine-p268-four-p284-eight.wav,86.42204796570206,30,0.32095767094532557,1,RX81,2,0.0,0.0,3.0,0,0,4.319648093841643,2.6718082427978516
0,,2024-07-03 15:29:48,sub_107,3,distance,cathedral,localisation_accuracy,4,5,babble,,,babble-reversed_n13_p318-nine-p307-eight-p229-two-p284-one-p248-three-p245-five.wav,88.94947742884273,30,-0.4823986594410735,4,RX81,5,0.0,0.0,6.0,0,0,7.1495601173020535,3.1065707206726074
0,,2024-07-03 15:29:52,sub_107,3,distance,cathedral,localisation_accuracy,4,6,babble,,,babble-reversed_n13_p307-nine-p318-two-p256-one-p245-three-p268-four-p248-eight.wav,91.94026325318723,30,-0.0924233521143083,9,RX81,10,0.0,0.0,11.0,0,0,8.366568914956012,3.0934197902679443
0,,2024-07-03 15:29:56,sub_107,3,distance,cathedral,localisation_accuracy,4,7,babble,,,babble-reversed_n13_p307-one-p318-five-p229-four-p268-eight-p284-two-p245-three.wav,89.33528708508946,30,0.26635440437461066,3,RX81,4,0.0,0.0,5.0,0,0,5.096774193548388,2.524433135986328
0,,2024-07-03 15:30:01,sub_107,3,distance,cathedral,localisation_accuracy,4,8,babble,,,babble-reversed_n13_p229-nine-p256-four-p318-three-p268-eight-p248-two-p284-five.wav,92.11027860078153,30,0.13448448065936025,8,RX81,9,0.0,0.0,10.0,0,0,7.516129032258066,3.6410374641418457
0,,2024-07-03 15:30:05,sub_107,3,distance,cathedral,localisation_accuracy,4,9,babble,,,babble-reversed_n13_p307-two-p256-four-p318-three-p284-eight-p248-five-p245-nine.wav,92.73042312399227,30,-0.3766471032120795,10,RX81,11,0.0,0.0,12.0,0,0,9.260997067448681,2.718562364578247
0,,2024-07-03 15:30:09,sub_107,3,distance,cathedral,localisation_accuracy,4,10,babble,,,babble-reversed_n13_p256-three-p318-two-p229-nine-p248-four-p284-one-p268-eight.wav,90.37819327034808,30,0.05251706706466297,5,RX81,6,0.0,0.0,7.0,0,0,6.401759530791789,3.0993640422821045
0,,2024-07-03 15:30:13,sub_107,3,distance,cathedral,localisation_accuracy,4,11,babble,,,babble-reversed_n13_p307-one-p318-five-p229-four-p268-eight-p284-two-p245-three.wav,91.30119876955328,30,-0.40732204442301145,6,RX81,7,0.0,0.0,8.0,0,0,8.337243401759531,2.890308380126953
0,,2024-07-03 15:30:17,sub_107,3,distance,cathedral,localisation_accuracy,4,12,babble,,,babble-reversed_n13_p307-two-p229-one-p256-five-p248-nine-p284-three-p268-eight.wav,91.86935703780976,30,-0.19163321792240728,9,RX81,10,0.0,0.0,11.0,0,0,10.023460410557185,2.6127519607543945
0,,2024-07-03 15:30:21,sub_107,3,distance,cathedral,localisation_accuracy,4,13,babble,,,babble-reversed_n13_p318-three-p229-one-p256-eight-p245-five-p248-four-p284-nine.wav,84.69061893652365,30,0.43396268606064525,0,RX81,1,0.0,0.0,2.0,0,0,3.0146627565982405,3.248831033706665
0,,2024-07-03 15:30:24,sub_107,3,distance,cathedral,localisation_accuracy,4,14,babble,,,babble-reversed_n13_p256-eight-p318-two-p307-five-p245-four-p268-nine-p284-one.wav,88.99731890177353,30,-0.2154379274493765,3,RX81,4,0.0,0.0,5.0,0,0,4.2463343108504406,2.04742169380188
0,,2024-07-03 15:30:27,sub_107,3,distance,cathedral,localisation_accuracy,4,15,babble,,,babble-reversed_n13_p256-four-p229-two-p318-five-p268-one-p248-eight-p245-three.wav,90.51924218011263,30,0.25521081603818885,5,RX81,6,0.0,0.0,7.0,0,0,5.697947214076247,1.8904187679290771
0,,2024-07-03 15:30:31,sub_107,3,distance,cathedral,localisation_accuracy,4,16,babble,,,babble-reversed_n13_p229-nine-p256-four-p318-three-p268-eight-p248-two-p284-five.wav,92.78729936765198,30,-0.29758623824354324,10,RX81,11,0.0,0.0,12.0,0,0,8.850439882697948,2.6728532314300537
0,,2024-07-03 15:30:35,sub_107,3,distance,cathedral,localisation_accuracy,4,17,babble,,,babble-reversed_n13_p229-five-p318-three-p307-two-p245-four-p284-nine-p248-eight.wav,91.9344494742826,30,-0.1139643914056594,8,RX81,9,0.0,0.0,10.0,0,0,10.17008797653959,2.656073570251465
0,,2024-07-03 15:30:39,sub_107,3,distance,cathedral,localisation_accuracy,4,18,babble,,,babble-reversed_n13_p256-three-p318-two-p229-nine-p248-four-p284-one-p268-eight.wav,91.98076860843143,30,0.3369860910310706,7,RX81,8,0.0,0.0,9.0,0,0,8.043988269794722,3.266286849975586
0,,2024-07-03 15:30:43,sub_107,3,distance,cathedral,localisation_accuracy,4,19,babble,,,babble-reversed_n13_p229-five-p256-one-p318-three-p248-nine-p268-four-p284-eight.wav,87.28707167431664,30,-0.40756200242927465,2,RX81,3,0.0,0.0,4.0,0,0,4.612903225806452,2.7184488773345947
0,,2024-07-03 15:30:47,sub_107,3,distance,cathedral,localisation_accuracy,4,20,babble,,,babble-reversed_n13_p256-five-p307-nine-p318-three-p284-eight-p268-one-p248-two.wav,85.90411695823425,30,-0.4353860015734653,1,RX81,2,0.0,0.0,3.0,0,0,3.1759530791788864,2.481531858444214
0,,2024-07-03 15:30:51,sub_107,3,distance,cathedral,localisation_accuracy,4,21,babble,,,babble-reversed_n13_p229-one-p318-nine-p256-four-p284-eight-p268-five-p245-two.wav,89.37126259488738,30,0.07698364622448928,4,RX81,5,0.0,0.0,6.0,0,0,7.0175953079178885,3.1247200965881348
0,,2024-07-03 15:30:54,sub_107,3,distance,cathedral,localisation_accuracy,4,22,babble,,,babble-reversed_n13_p229-two-p318-eight-p256-three-p268-one-p248-nine-p284-five.wav,87.56480610141125,30,-0.008233163115768716,2,RX81,3,0.0,0.0,4.0,0,0,4.568914956011731,2.594637393951416
0,,2024-07-03 15:30:57,sub_107,3,distance,cathedral,localisation_accuracy,4,23,babble,,,babble-reversed_n13_p229-nine-p256-four-p318-three-p268-eight-p248-two-p284-five.wav,86.3270870169176,30,0.18085036521776454,1,RX81,2,0.0,0.0,3.0,0,0,3.0,1.8903977870941162
0,,2024-07-03 15:31:01,sub_107,3,distance,cathedral,localisation_accuracy,4,24,babble,,,babble-reversed_n13_p256-four-p307-eight-p318-two-p248-three-p284-nine-p268-one.wav,88.86590032926895,30,-0.40070467877702765,3,RX81,4,0.0,0.0,5.0,0,0,4.847507331378299,2.6732609272003174
0,,2024-07-03 15:31:06,sub_107,3,distance,cathedral,localisation_accuracy,4,25,babble,,,babble-reversed_n13_p307-one-p318-five-p229-four-p268-eight-p284-two-p245-three.wav,92.28286443984042,30,0.3916059099069312,9,RX81,10,0.0,0.0,11.0,0,0,8.542521994134898,3.5005016326904297
0,,2024-07-03 15:31:10,sub_107,3,distance,cathedral,localisation_accuracy,4,26,babble,,,babble-reversed_n13_p318-five-p256-nine-p307-two-p245-eight-p248-one-p284-four.wav,91.79184145821165,30,0.2906250121810545,6,RX81,7,0.0,0.0,8.0,0,0,9.378299120234605,3.0155770778656006
0,,2024-07-03 15:31:14,sub_107,3,distance,cathedral,localisation_accuracy,4,27,babble,,,babble-reversed_n13_p256-five-p229-one-p318-three-p248-nine-p284-eight-p268-two.wav,92.9969667591147,30,-0.004310942708304677,10,RX81,11,0.0,0.0,12.0,0,0,10.19941348973607,2.7963805198669434
0,,2024-07-03 15:31:18,sub_107,3,distance,cathedral,localisation_accuracy,4,28,babble,,,babble-reversed_n13_p318-five-p229-three-p256-four-p268-eight-p248-one-p245-nine.wav,90.18610035691184,30,-0.22134702729208877,5,RX81,6,0.0,0.0,7.0,0,0,7.853372434017595,3.1040618419647217
0,,2024-07-03 15:31:22,sub_107,3,distance,cathedral,localisation_accuracy,4,29,babble,,,babble-reversed_n13_p229-two-p318-eight-p256-three-p268-one-p248-nine-p284-five.wav,89.36337699714252,30,0.06642894218625106,4,RX81,5,0.0,0.0,6.0,0,0,5.47800586510264,2.687222957611084
0,,2024-07-03 15:31:26,sub_107,3,distance,cathedral,localisation_accuracy,4,30,babble,,,babble-reversed_n13_p256-four-p307-eight-p318-two-p248-three-p284-nine-p268-one.wav,92.18334119902066,30,0.23832934872381162,8,RX81,9,0.0,0.0,10.0,0,0,7.325513196480939,2.6245713233947754
0,,2024-07-03 15:31:31,sub_107,3,distance,cathedral,localisation_accuracy,4,31,babble,,,babble-reversed_n13_p307-nine-p318-two-p256-one-p245-three-p268-four-p248-eight.wav,84.23446252878465,30,-0.24622163580990297,0,RX81,1,0.0,0.0,2.0,0,0,2.3988269794721413,3.7505056858062744
0,,2024-07-03 15:31:35,sub_107,3,distance,cathedral,localisation_accuracy,4,32,babble,,,babble-reversed_n13_p318-five-p256-nine-p307-eight-p248-two-p245-four-p284-three.wav,92.09532039303593,30,0.4974393840304566,7,RX81,8,0.0,0.0,9.0,0,0,8.322580645161292,3.140484094619751
0,,2024-07-03 15:31:39,sub_107,3,distance,cathedral,localisation_accuracy,4,33,babble,,,babble-reversed_n13_p229-nine-p318-one-p307-two-p248-eight-p245-five-p284-four.wav,89.5316084907721,30,0.2924086889240378,4,RX81,5,0.0,0.0,6.0,0,0,5.2140762463343115,2.6550581455230713
0,,2024-07-03 15:31:42,sub_107,3,distance,cathedral,localisation_accuracy,4,34,babble,,,babble-reversed_n13_p318-nine-p307-eight-p229-two-p284-one-p248-three-p245-five.wav,86.11599702267529,30,-0.12828134921600098,1,RX81,2,0.0,0.0,3.0,0,0,3.425219941348974,2.3127851486206055
0,,2024-07-03 15:31:46,sub_107,3,distance,cathedral,localisation_accuracy,4,35,babble,,,babble-reversed_n13_p229-nine-p307-five-p256-two-p248-three-p245-one-p268-eight.wav,93.15661662687634,30,0.22094203733441642,10,RX81,11,0.0,0.0,12.0,0,0,9.730205278592376,3.2158467769622803
0,,2024-07-03 15:31:51,sub_107,3,distance,cathedral,localisation_accuracy,4,36,babble,,,babble-reversed_n13_p318-five-p229-four-p256-eight-p284-one-p245-three-p248-two.wav,91.81170689049247,30,0.31922805834850054,6,RX81,7,0.0,0.0,8.0,0,0,6.944281524926687,3.1883997917175293
0,,2024-07-03 15:31:54,sub_107,3,distance,cathedral,localisation_accuracy,4,37,babble,,,babble-reversed_n13_p229-three-p256-nine-p318-five-p248-one-p245-eight-p284-two.wav,91.71823290517152,30,-0.4019847928637198,9,RX81,10,0.0,0.0,11.0,0,0,8.527859237536658,2.3903579711914062
0,,2024-07-03 15:31:57,sub_107,3,distance,cathedral,localisation_accuracy,4,38,babble,,,babble-reversed_n13_p229-one-p318-eight-p256-three-p268-nine-p248-five-p284-four.wav,87.42902464384032,30,-0.2041296357688519,2,RX81,3,0.0,0.0,4.0,0,0,3.9530791788856305,1.8904163837432861
0,,2024-07-03 15:32:01,sub_107,3,distance,cathedral,localisation_accuracy,4,39,babble,,,babble-reversed_n13_p229-one-p318-eight-p256-three-p268-nine-p248-five-p284-four.wav,91.69162336513341,30,-0.0642765457283272,7,RX81,8,0.0,0.0,9.0,0,0,6.064516129032258,2.8774662017822266
0,,2024-07-03 15:32:05,sub_107,3,distance,cathedral,localisation_accuracy,4,40,babble,,,babble-reversed_n13_p229-two-p256-three-p318-eight-p284-five-p268-four-p245-one.wav,84.5257086170396,30,0.18628527011575158,0,RX81,1,0.0,0.0,2.0,0,0,2.809384164222874,2.4528796672821045
0,,2024-07-03 15:32:09,sub_107,3,distance,cathedral,localisation_accuracy,4,41,babble,,,babble-reversed_n13_p256-four-p307-eight-p318-two-p248-three-p284-nine-p268-one.wav,90.4720106615853,30,0.18718516802470964,5,RX81,6,0.0,0.0,7.0,0,0,5.580645161290323,2.819582223892212
0,,2024-07-03 15:32:13,sub_107,3,distance,cathedral,localisation_accuracy,4,42,babble,,,babble-reversed_n13_p256-five-p307-nine-p318-three-p284-eight-p268-one-p248-two.wav,92.31070010230641,30,0.4202026046088344,8,RX81,9,0.0,0.0,10.0,0,0,8.27859237536657,3.125248670578003
0,,2024-07-03 15:32:17,sub_107,3,distance,cathedral,localisation_accuracy,4,43,babble,,,babble-reversed_n13_p318-three-p307-one-p256-five-p248-nine-p245-two-p284-eight.wav,88.89441721438104,30,-0.36060127449571167,3,RX81,4,0.0,0.0,5.0,0,0,4.4369501466275665,3.123668909072876
0,,2024-07-03 15:32:21,sub_107,3,distance,cathedral,localisation_accuracy,4,44,babble,,,babble-reversed_n13_p307-four-p318-three-p256-eight-p284-two-p245-nine-p248-five.wav,91.44300876590444,30,-0.2072639815073497,6,RX81,7,0.0,0.0,8.0,0,0,8.615835777126101,2.9859566688537598
0,,2024-07-03 15:32:25,sub_107,3,distance,cathedral,localisation_accuracy,4,45,babble,,,babble-reversed_n13_p256-three-p318-two-p229-nine-p248-four-p284-one-p268-eight.wav,91.8910190407828,30,-0.16135935141647673,9,RX81,10,0.0,0.0,11.0,0,0,10.214076246334312,2.983898639678955
0,,2024-07-03 15:32:30,sub_107,3,distance,cathedral,localisation_accuracy,4,46,babble,,,babble-reversed_n13_p229-nine-p256-four-p318-three-p268-eight-p248-two-p284-five.wav,89.44034958943388,30,0.1696136879586776,4,RX81,5,0.0,0.0,6.0,0,0,5.111436950146628,3.453685760498047
0,,2024-07-03 15:32:36,sub_107,3,distance,cathedral,localisation_accuracy,4,47,babble,,,babble-reversed_n13_p229-two-p256-three-p318-eight-p284-five-p268-four-p245-one.wav,92.09723705151704,30,0.11598589387275882,8,RX81,9,0.0,0.0,10.0,0,0,9.730205278592376,4.688312292098999
0,,2024-07-03 15:32:41,sub_107,3,distance,cathedral,localisation_accuracy,4,48,babble,,,babble-reversed_n13_p307-one-p318-five-p229-four-p268-eight-p284-two-p245-three.wav,87.51722791498761,30,-0.07702196108804649,2,RX81,3,0.0,0.0,4.0,0,0,4.334310850439883,3.90561842918396
0,,2024-07-03 15:32:45,sub_107,3,distance,cathedral,localisation_accuracy,4,49,babble,,,babble-reversed_n13_p318-five-p256-nine-p307-eight-p248-two-p245-four-p284-three.wav,85.92583729300202,30,-0.40404975752109795,1,RX81,2,0.0,0.0,3.0,0,0,3.7624633431085046,2.485217332839966
0,,2024-07-03 15:32:48,sub_107,3,distance,cathedral,localisation_accuracy,4,50,babble,,,babble-reversed_n13_p307-five-p229-two-p318-four-p248-three-p245-nine-p268-eight.wav,89.33604605100122,30,0.2674450758354736,3,RX81,4,0.0,0.0,5.0,0,0,4.979472140762463,2.7650561332702637
0,,2024-07-03 15:32:52,sub_107,3,distance,cathedral,localisation_accuracy,4,51,babble,,,babble-reversed_n13_p229-five-p318-two-p307-eight-p268-three-p248-four-p245-one.wav,84.17445479904976,30,-0.33456157228043604,0,RX81,1,0.0,0.0,2.0,0,0,2.5601173020527863,2.8903298377990723
0,,2024-07-03 15:32:57,sub_107,3,distance,cathedral,localisation_accuracy,4,52,babble,,,babble-reversed_n13_p256-eight-p318-two-p307-five-p245-four-p268-nine-p284-one.wav,92.68139660031325,30,-0.44462755845784463,10,RX81,11,0.0,0.0,12.0,0,0,9.583577712609971,3.5578088760375977
0,,2024-07-03 15:33:02,sub_107,3,distance,cathedral,localisation_accuracy,4,53,babble,,,babble-reversed_n13_p229-one-p318-eight-p256-three-p268-nine-p248-five-p284-four.wav,90.27818521067391,30,-0.09037581730652466,5,RX81,6,0.0,0.0,7.0,0,0,6.929618768328446,3.5476765632629395
0,,2024-07-03 15:33:06,sub_107,3,distance,cathedral,localisation_accuracy,4,54,babble,,,babble-reversed_n13_p229-nine-p318-one-p307-two-p248-eight-p245-five-p284-four.wav,91.39491007999641,30,-0.47052477492613587,7,RX81,8,0.0,0.0,9.0,0,0,8.102639296187684,3.265204668045044
