event_id,timestamp,subject_id,session_index,plane,setup,task,block,trial_index,headpose_offset_azi,headpose_offset_ele,target_number,target_filename,target_talker,target_sex,target_speaker_id,step_number:,distance_masker,distance_target,target_speaker_proc,target_speaker_chan,target_speaker_azi,target_speaker_ele,target_speaker_dist,target_stim_level,masker_filename,masker_speaker_id,masker_speaker_proc,masker_speaker_chan,masker_speaker_azi,masker_speaker_ele,masker_speaker_dist,masker_stim_level,normalisation_method,normalisation_level_masker,normalisation_level_target,played_number,resp_number,is_correct,reaction_time
,2024-06-25 12:28:06,2,3,distance,cathedral,spatial_unmasking,0,0,0,0,_five_,talker-p245_sex-f_text-_five_.wav,p245,f,5,1,12.0,7.0,RX81,6,0.0,0.0,7.0,92.34149293193902,babble-reversed_n13_p256-three-p318-two-p229-nine-p248-four-p284-one-p268-eight.wav,10,RX81,11,0.0,0.0,12.0,93.00003341222715,mgb_normalisation,93.00003341222715,90.34149293193902,5,5.0,True,5.687074184417725
,2024-06-25 12:28:10,2,3,distance,cathedral,spatial_unmasking,0,1,0,0,_five_,talker-p245_sex-f_text-_five_.wav,p245,f,5,2,12.0,7.0,RX81,6,0.0,0.0,7.0,85.34149293193903,babble-reversed_n13_p229-three-p256-four-p307-nine-p248-five-p284-two-p268-six.wav,10,RX81,11,0.0,0.0,12.0,93.00003341222715,mgb_normalisation,93.00003341222715,90.34149293193902,5,5.0,True,1.749868631362915
,2024-06-25 12:28:14,2,3,distance,cathedral,spatial_unmasking,0,2,0,0,_five_,talker-p245_sex-f_text-_five_.wav,p245,f,5,3,12.0,7.0,RX81,6,0.0,0.0,7.0,78.34149293193902,babble-reversed_n13_p318-three-p307-one-p256-five-p248-nine-p245-two-p284-eight.wav,10,RX81,11,0.0,0.0,12.0,93.00003341222718,mgb_normalisation,93.00003341222715,90.34149293193902,5,1.0,False,1.9374091625213623
,2024-06-25 12:28:18,2,3,distance,cathedral,spatial_unmasking,0,3,0,0,_two_,talker-p245_sex-f_text-_two_.wav,p245,f,5,4,12.0,7.0,RX81,6,0.0,0.0,7.0,83.34149293193902,babble-reversed_n13_p229-one-p318-nine-p256-four-p284-eight-p268-five-p245-two.wav,10,RX81,11,0.0,0.0,12.0,93.00003341222715,mgb_normalisation,93.00003341222715,90.34149293193902,2,2.0,True,0.937429666519165
,2024-06-25 12:28:21,2,3,distance,cathedral,spatial_unmasking,0,4,0,0,_three_,talker-p245_sex-f_text-_three_.wav,p245,f,5,5,12.0,7.0,RX81,6,0.0,0.0,7.0,80.34149293193903,babble-reversed_n13_p318-three-p307-one-p256-five-p248-nine-p245-two-p284-eight.wav,10,RX81,11,0.0,0.0,12.0,93.00003341222718,mgb_normalisation,93.00003341222715,90.34149293193902,3,3.0,True,1.187410831451416
,2024-06-25 12:28:25,2,3,distance,cathedral,spatial_unmasking,0,5,0,0,_two_,talker-p245_sex-f_text-_two_.wav,p245,f,5,6,12.0,7.0,RX81,6,0.0,0.0,7.0,77.341492931939,babble-reversed_n13_p229-five-p318-three-p307-two-p245-four-p284-nine-p248-eight.wav,10,RX81,11,0.0,0.0,12.0,93.00003341222715,mgb_normalisation,93.00003341222715,90.34149293193902,2,2.0,True,1.0624206066131592
,2024-06-25 12:28:29,2,3,distance,cathedral,spatial_unmasking,0,6,0,0,_three_,talker-p245_sex-f_text-_three_.wav,p245,f,5,7,12.0,7.0,RX81,6,0.0,0.0,7.0,74.34149293193902,babble-reversed_n13_p256-four-p229-two-p318-five-p268-one-p248-eight-p245-three.wav,10,RX81,11,0.0,0.0,12.0,93.00003341222715,mgb_normalisation,93.00003341222715,90.34149293193902,3,3.0,True,1.3748972415924072
,2024-06-25 12:28:33,2,3,distance,cathedral,spatial_unmasking,0,7,0,0,_four_,talker-p245_sex-f_text-_four_.wav,p245,f,5,8,12.0,7.0,RX81,6,0.0,0.0,7.0,71.34149293193903,babble-reversed_n13_p229-two-p318-eight-p256-three-p268-one-p248-nine-p284-five.wav,10,RX81,11,0.0,0.0,12.0,93.00003341222715,mgb_normalisation,93.00003341222715,90.34149293193902,4,1.0,False,2.0623457431793213
,2024-06-25 12:28:38,2,3,distance,cathedral,spatial_unmasking,0,8,0,0,_one_,talker-p245_sex-f_text-_one_.wav,p245,f,5,9,12.0,7.0,RX81,6,0.0,0.0,7.0,72.341492931939,babble-reversed_n13_p229-three-p307-one-p256-five-p248-four-p284-nine-p245-six.wav,10,RX81,11,0.0,0.0,12.0,93.00003341222718,mgb_normalisation,93.00003341222715,90.34149293193902,1,4.0,False,3.0622708797454834
,2024-06-25 12:28:42,2,3,distance,cathedral,spatial_unmasking,0,9,0,0,_five_,talker-p245_sex-f_text-_five_.wav,p245,f,5,10,12.0,7.0,RX81,6,0.0,0.0,7.0,73.34149293193902,babble-reversed_n13_p307-one-p318-five-p256-nine-p248-eight-p284-six-p245-three.wav,10,RX81,11,0.0,0.0,12.0,93.00003341222715,mgb_normalisation,93.00003341222715,90.34149293193902,5,5.0,True,1.1873579025268557
,2024-06-25 12:28:47,2,3,distance,cathedral,spatial_unmasking,0,10,0,0,_one_,talker-p245_sex-f_text-_one_.wav,p245,f,5,11,12.0,7.0,RX81,6,0.0,0.0,7.0,72.341492931939,babble-reversed_n13_p256-five-p229-four-p307-nine-p268-eight-p284-two-p245-six.wav,10,RX81,11,0.0,0.0,12.0,93.00003341222715,mgb_normalisation,93.00003341222715,90.34149293193902,1,3.0,False,2.312329769134521
,2024-06-25 12:28:50,2,3,distance,cathedral,spatial_unmasking,0,11,0,0,_five_,talker-p245_sex-f_text-_five_.wav,p245,f,5,12,12.0,7.0,RX81,6,0.0,0.0,7.0,73.34149293193902,babble-reversed_n13_p229-one-p318-three-p307-four-p284-nine-p268-five-p248-six.wav,10,RX81,11,0.0,0.0,12.0,93.00003341222715,mgb_normalisation,93.00003341222715,90.34149293193902,5,5.0,True,1.3124008178710938
,2024-06-25 12:28:54,2,3,distance,cathedral,spatial_unmasking,0,12,0,0,_four_,talker-p245_sex-f_text-_four_.wav,p245,f,5,13,12.0,7.0,RX81,6,0.0,0.0,7.0,72.34149293193903,babble-reversed_n13_p256-five-p307-nine-p318-three-p284-eight-p268-one-p248-two.wav,10,RX81,11,0.0,0.0,12.0,93.00003341222715,mgb_normalisation,93.00003341222715,90.34149293193902,4,2.0,False,1.2499065399169922
,2024-06-25 12:28:57,2,3,distance,cathedral,spatial_unmasking,0,13,0,0,_four_,talker-p245_sex-f_text-_four_.wav,p245,f,5,14,12.0,7.0,RX81,6,0.0,0.0,7.0,73.34149293193903,babble-reversed_n13_p229-eight-p307-four-p318-three-p245-nine-p248-five-p268-six.wav,10,RX81,11,0.0,0.0,12.0,93.00003341222715,mgb_normalisation,93.00003341222715,90.34149293193902,4,3.0,False,1.0624380111694336
,2024-06-25 12:29:02,2,3,distance,cathedral,spatial_unmasking,0,14,0,0,_two_,talker-p245_sex-f_text-_two_.wav,p245,f,5,15,12.0,7.0,RX81,6,0.0,0.0,7.0,74.341492931939,babble-reversed_n13_p256-eight-p318-five-p307-four-p245-three-p268-one-p284-nine.wav,10,RX81,11,0.0,0.0,12.0,93.00003341222715,mgb_normalisation,93.00003341222715,90.34149293193902,2,3.0,False,1.7498712539672852
,2024-06-25 12:29:06,2,3,distance,cathedral,spatial_unmasking,0,15,0,0,_three_,talker-p245_sex-f_text-_three_.wav,p245,f,5,16,12.0,7.0,RX81,6,0.0,0.0,7.0,75.34149293193903,babble-reversed_n13_p256-three-p318-one-p307-two-p284-nine-p268-four-p245-eight.wav,10,RX81,11,0.0,0.0,12.0,93.00003341222718,mgb_normalisation,93.00003341222715,90.34149293193902,3,2.0,False,1.9373571872711184
,2024-06-25 12:29:10,2,3,distance,cathedral,spatial_unmasking,0,16,0,0,_two_,talker-p245_sex-f_text-_two_.wav,p245,f,5,17,12.0,7.0,RX81,6,0.0,0.0,7.0,76.341492931939,babble-reversed_n13_p229-two-p307-five-p318-four-p284-one-p248-nine-p268-eight.wav,10,RX81,11,0.0,0.0,12.0,93.00003341222718,mgb_normalisation,93.00003341222715,90.34149293193902,2,1.0,False,1.6248819828033447
,2024-06-25 12:29:14,2,3,distance,cathedral,spatial_unmasking,0,17,0,0,_two_,talker-p245_sex-f_text-_two_.wav,p245,f,5,18,12.0,7.0,RX81,6,0.0,0.0,7.0,77.341492931939,babble-reversed_n13_p229-five-p256-three-p318-nine-p248-two-p284-four-p268-one.wav,10,RX81,11,0.0,0.0,12.0,93.00003341222718,mgb_normalisation,93.00003341222715,90.34149293193902,2,1.0,False,1.578009843826294
,2024-06-25 12:29:18,2,3,distance,cathedral,spatial_unmasking,0,18,0,0,_five_,talker-p245_sex-f_text-_five_.wav,p245,f,5,19,12.0,7.0,RX81,6,0.0,0.0,7.0,78.34149293193902,babble-reversed_n13_p256-nine-p307-four-p229-one-p284-three-p248-two-p245-five.wav,10,RX81,11,0.0,0.0,12.0,93.00003341222718,mgb_normalisation,93.00003341222715,90.34149293193902,5,5.0,True,1.4373934268951416
,2024-06-25 12:29:22,2,3,distance,cathedral,spatial_unmasking,0,19,0,0,_one_,talker-p245_sex-f_text-_one_.wav,p245,f,5,20,12.0,7.0,RX81,6,0.0,0.0,7.0,77.341492931939,babble-reversed_n13_p307-five-p229-two-p318-four-p248-three-p245-nine-p268-eight.wav,10,RX81,11,0.0,0.0,12.0,93.00003341222715,mgb_normalisation,93.00003341222715,90.34149293193902,1,3.0,False,2.249880313873291
,2024-06-25 12:29:26,2,3,distance,cathedral,spatial_unmasking,0,20,0,0,_one_,talker-p245_sex-f_text-_one_.wav,p245,f,5,21,12.0,7.0,RX81,6,0.0,0.0,7.0,78.341492931939,babble-reversed_n13_p256-nine-p307-four-p229-one-p284-three-p248-two-p245-five.wav,10,RX81,11,0.0,0.0,12.0,93.00003341222718,mgb_normalisation,93.00003341222715,90.34149293193902,1,5.0,False,1.0624401569366455
,2024-06-25 12:29:29,2,3,distance,cathedral,spatial_unmasking,0,21,0,0,_four_,talker-p245_sex-f_text-_four_.wav,p245,f,5,22,12.0,7.0,RX81,6,0.0,0.0,7.0,79.34149293193903,babble-reversed_n13_p318-five-p307-two-p256-three-p245-nine-p268-six-p248-four.wav,10,RX81,11,0.0,0.0,12.0,93.00003341222715,mgb_normalisation,93.00003341222715,90.34149293193902,4,4.0,True,1.2499089241027832
,2024-06-25 12:29:35,2,3,distance,cathedral,spatial_unmasking,0,22,0,0,_three_,talker-p245_sex-f_text-_three_.wav,p245,f,5,23,12.0,7.0,RX81,6,0.0,0.0,7.0,78.34149293193902,babble-reversed_n13_p256-four-p307-eight-p318-two-p248-three-p284-nine-p268-one.wav,10,RX81,11,0.0,0.0,12.0,93.00003341222718,mgb_normalisation,93.00003341222715,90.34149293193902,3,2.0,False,3.3122599124908447
,2024-06-25 12:29:40,2,3,distance,cathedral,spatial_unmasking,0,23,0,0,_one_,talker-p245_sex-f_text-_one_.wav,p245,f,5,24,12.0,7.0,RX81,6,0.0,0.0,7.0,79.341492931939,babble-reversed_n13_p318-three-p229-one-p256-eight-p245-five-p248-four-p284-nine.wav,10,RX81,11,0.0,0.0,12.0,93.00003341222718,mgb_normalisation,93.00003341222715,90.34149293193902,1,1.0,True,2.749798059463501
,2024-06-25 12:29:44,2,3,distance,cathedral,spatial_unmasking,0,24,0,0,_two_,talker-p245_sex-f_text-_two_.wav,p245,f,5,25,12.0,7.0,RX81,6,0.0,0.0,7.0,78.341492931939,babble-reversed_n13_p229-eight-p256-nine-p318-four-p245-three-p268-five-p284-two.wav,10,RX81,11,0.0,0.0,12.0,93.00003341222715,mgb_normalisation,93.00003341222715,90.34149293193902,2,2.0,True,1.437394618988037
,2024-06-25 12:29:48,2,3,distance,cathedral,spatial_unmasking,0,25,0,0,_two_,talker-p245_sex-f_text-_two_.wav,p245,f,5,26,12.0,7.0,RX81,6,0.0,0.0,7.0,77.341492931939,babble-reversed_n13_p318-five-p256-nine-p307-eight-p248-two-p245-four-p284-three.wav,10,RX81,11,0.0,0.0,12.0,93.00003341222718,mgb_normalisation,93.00003341222715,90.34149293193902,2,2.0,True,1.249908208847046
,2024-06-25 12:29:54,2,3,distance,cathedral,spatial_unmasking,0,26,0,0,_five_,talker-p245_sex-f_text-_five_.wav,p245,f,5,27,12.0,7.0,RX81,6,0.0,0.0,7.0,76.34149293193902,babble-reversed_n13_p307-one-p318-five-p256-nine-p248-eight-p284-six-p245-three.wav,10,RX81,11,0.0,0.0,12.0,93.00003341222715,mgb_normalisation,93.00003341222715,90.34149293193902,5,5.0,True,3.374751806259156
,2024-06-25 12:29:58,2,3,distance,cathedral,spatial_unmasking,0,27,0,0,_two_,talker-p245_sex-f_text-_two_.wav,p245,f,5,28,12.0,7.0,RX81,6,0.0,0.0,7.0,75.341492931939,babble-reversed_n13_p256-four-p229-two-p318-five-p268-one-p248-eight-p245-three.wav,10,RX81,11,0.0,0.0,12.0,93.00003341222715,mgb_normalisation,93.00003341222715,90.34149293193902,2,3.0,False,1.62488055229187
,2024-06-25 12:30:03,2,3,distance,cathedral,spatial_unmasking,0,28,0,0,_three_,talker-p245_sex-f_text-_three_.wav,p245,f,5,29,12.0,7.0,RX81,6,0.0,0.0,7.0,76.34149293193902,babble-reversed_n13_p318-two-p307-three-p256-one-p284-nine-p248-six-p268-five.wav,10,RX81,11,0.0,0.0,12.0,93.00003341222715,mgb_normalisation,93.00003341222715,90.34149293193902,3,2.0,False,2.624807596206665
,2024-06-25 12:30:06,2,3,distance,cathedral,spatial_unmasking,0,29,0,0,_four_,talker-p245_sex-f_text-_four_.wav,p245,f,5,30,12.0,7.0,RX81,6,0.0,0.0,7.0,77.34149293193903,babble-reversed_n13_p229-one-p318-eight-p256-three-p268-nine-p248-five-p284-four.wav,10,RX81,11,0.0,0.0,12.0,93.00003341222715,mgb_normalisation,93.00003341222715,90.34149293193902,4,4.0,True,0.6874492168426514
,2024-06-25 12:30:11,2,3,distance,cathedral,spatial_unmasking,0,30,0,0,_one_,talker-p245_sex-f_text-_one_.wav,p245,f,5,31,12.0,7.0,RX81,6,0.0,0.0,7.0,76.34149293193902,babble-reversed_n13_p307-nine-p318-two-p256-one-p245-three-p268-four-p248-eight.wav,10,RX81,11,0.0,0.0,12.0,93.00003341222715,mgb_normalisation,93.00003341222715,90.34149293193902,1,2.0,False,2.93727970123291
,2024-06-25 12:30:15,2,3,distance,cathedral,spatial_unmasking,0,31,0,0,_three_,talker-p245_sex-f_text-_three_.wav,p245,f,5,32,12.0,7.0,RX81,6,0.0,0.0,7.0,77.34149293193903,babble-reversed_n13_p229-one-p318-eight-p256-three-p268-two-p245-five-p248-nine.wav,10,RX81,11,0.0,0.0,12.0,93.00003341222715,mgb_normalisation,93.00003341222715,90.34149293193902,3,1.0,False,1.9998526573181152
,2024-06-25 12:30:19,2,3,distance,cathedral,spatial_unmasking,0,32,0,0,_five_,talker-p245_sex-f_text-_five_.wav,p245,f,5,33,12.0,7.0,RX81,6,0.0,0.0,7.0,78.34149293193902,babble-reversed_n13_p307-two-p229-one-p256-five-p248-nine-p284-three-p268-eight.wav,10,RX81,11,0.0,0.0,12.0,93.00003341222718,mgb_normalisation,93.00003341222715,90.34149293193902,5,5.0,True,0.999927282333374
,2024-06-25 12:30:23,2,3,distance,cathedral,spatial_unmasking,1,33,0,0,_four_,talker-p245_sex-f_text-_four_.wav,p245,f,5,1,4.0,7.0,RX81,6,0.0,0.0,7.0,92.34149293193904,babble-reversed_n13_p318-five-p307-two-p256-three-p245-nine-p268-six-p248-four.wav,2,RX81,3,0.0,0.0,4.0,87.57049330475355,mgb_normalisation,87.57049330475357,90.34149293193902,4,4.0,True,1.6248810291290283
,2024-06-25 12:30:27,2,3,distance,cathedral,spatial_unmasking,1,34,0,0,_four_,talker-p245_sex-f_text-_four_.wav,p245,f,5,2,4.0,7.0,RX81,6,0.0,0.0,7.0,85.34149293193903,babble-reversed_n13_p229-three-p307-one-p256-five-p248-four-p284-nine-p245-six.wav,2,RX81,3,0.0,0.0,4.0,87.57049330475357,mgb_normalisation,87.57049330475357,90.34149293193902,4,4.0,True,1.7498722076416016
,2024-06-25 12:30:33,2,3,distance,cathedral,spatial_unmasking,1,35,0,0,_five_,talker-p245_sex-f_text-_five_.wav,p245,f,5,3,4.0,7.0,RX81,6,0.0,0.0,7.0,78.34149293193902,babble-reversed_n13_p256-five-p307-nine-p318-three-p284-eight-p268-one-p248-two.wav,2,RX81,3,0.0,0.0,4.0,87.57049330475357,mgb_normalisation,87.57049330475357,90.34149293193902,5,3.0,False,3.4372448921203613
,2024-06-25 12:30:37,2,3,distance,cathedral,spatial_unmasking,1,36,0,0,_four_,talker-p245_sex-f_text-_four_.wav,p245,f,5,4,4.0,7.0,RX81,6,0.0,0.0,7.0,83.34149293193903,babble-reversed_n13_p307-one-p256-two-p318-four-p268-three-p284-six-p248-eight.wav,2,RX81,3,0.0,0.0,4.0,87.57049330475357,mgb_normalisation,87.57049330475357,90.34149293193902,4,4.0,True,1.7498726844787598
,2024-06-25 12:30:41,2,3,distance,cathedral,spatial_unmasking,1,37,0,0,_two_,talker-p245_sex-f_text-_two_.wav,p245,f,5,5,4.0,7.0,RX81,6,0.0,0.0,7.0,80.341492931939,babble-reversed_n13_p307-two-p229-three-p256-one-p284-five-p268-six-p248-nine.wav,2,RX81,3,0.0,0.0,4.0,87.57049330475355,mgb_normalisation,87.57049330475357,90.34149293193902,2,2.0,True,1.624880313873291
,2024-06-25 12:30:47,2,3,distance,cathedral,spatial_unmasking,1,38,0,0,_one_,talker-p245_sex-f_text-_one_.wav,p245,f,5,6,4.0,7.0,RX81,6,0.0,0.0,7.0,77.341492931939,babble-reversed_n13_p307-two-p318-four-p256-one-p248-nine-p245-six-p284-eight.wav,2,RX81,3,0.0,0.0,4.0,87.57049330475357,mgb_normalisation,87.57049330475357,90.34149293193902,1,3.0,False,3.812219858169556
,2024-06-25 12:30:51,2,3,distance,cathedral,spatial_unmasking,1,39,0,0,_two_,talker-p245_sex-f_text-_two_.wav,p245,f,5,7,4.0,7.0,RX81,6,0.0,0.0,7.0,78.341492931939,babble-reversed_n13_p229-five-p256-three-p307-one-p284-two-p268-eight-p245-six.wav,2,RX81,3,0.0,0.0,4.0,87.57049330475357,mgb_normalisation,87.57049330475357,90.34149293193902,2,2.0,True,1.2499072551727295
,2024-06-25 12:30:54,2,3,distance,cathedral,spatial_unmasking,1,40,0,0,_one_,talker-p245_sex-f_text-_one_.wav,p245,f,5,8,4.0,7.0,RX81,6,0.0,0.0,7.0,77.341492931939,babble-reversed_n13_p229-five-p256-three-p318-nine-p248-two-p284-four-p268-one.wav,2,RX81,3,0.0,0.0,4.0,87.57049330475357,mgb_normalisation,87.57049330475357,90.34149293193902,1,1.0,True,1.249908208847046
,2024-06-25 12:31:03,2,3,distance,cathedral,spatial_unmasking,1,41,0,0,_one_,talker-p245_sex-f_text-_one_.wav,p245,f,5,9,4.0,7.0,RX81,6,0.0,0.0,7.0,76.34149293193902,babble-reversed_n13_p229-nine-p318-one-p307-two-p248-eight-p245-five-p284-four.wav,2,RX81,3,0.0,0.0,4.0,87.57049330475357,mgb_normalisation,87.57049330475357,90.34149293193902,1,3.0,False,6.187050819396973
,2024-06-25 12:31:08,2,3,distance,cathedral,spatial_unmasking,1,42,0,0,_four_,talker-p245_sex-f_text-_four_.wav,p245,f,5,10,4.0,7.0,RX81,6,0.0,0.0,7.0,77.34149293193903,babble-reversed_n13_p229-two-p307-five-p318-four-p284-one-p248-nine-p268-eight.wav,2,RX81,3,0.0,0.0,4.0,87.57049330475357,mgb_normalisation,87.57049330475357,90.34149293193902,4,1.0,False,2.24983549118042
,2024-06-25 12:31:12,2,3,distance,cathedral,spatial_unmasking,1,43,0,0,_two_,talker-p245_sex-f_text-_two_.wav,p245,f,5,11,4.0,7.0,RX81,6,0.0,0.0,7.0,78.341492931939,babble-reversed_n13_p229-three-p256-nine-p318-five-p248-one-p245-eight-p284-two.wav,2,RX81,3,0.0,0.0,4.0,87.57049330475357,mgb_normalisation,87.57049330475357,90.34149293193902,2,2.0,True,1.624929666519165
,2024-06-25 12:31:16,2,3,distance,cathedral,spatial_unmasking,1,44,0,0,_one_,talker-p245_sex-f_text-_one_.wav,p245,f,5,12,4.0,7.0,RX81,6,0.0,0.0,7.0,77.341492931939,babble-reversed_n13_p307-eight-p256-one-p318-nine-p245-three-p248-four-p268-six.wav,2,RX81,3,0.0,0.0,4.0,87.57049330475357,mgb_normalisation,87.57049330475357,90.34149293193902,1,3.0,False,2.124844074249268
,2024-06-25 12:31:22,2,3,distance,cathedral,spatial_unmasking,1,45,0,0,_five_,talker-p245_sex-f_text-_five_.wav,p245,f,5,13,4.0,7.0,RX81,6,0.0,0.0,7.0,78.34149293193902,babble-reversed_n13_p256-nine-p307-one-p318-three-p248-two-p284-eight-p268-six.wav,2,RX81,3,0.0,0.0,4.0,87.57049330475357,mgb_normalisation,87.57049330475357,90.34149293193902,5,5.0,True,3.0622758865356445
,2024-06-25 12:31:25,2,3,distance,cathedral,spatial_unmasking,1,46,0,0,_four_,talker-p245_sex-f_text-_four_.wav,p245,f,5,14,4.0,7.0,RX81,6,0.0,0.0,7.0,77.34149293193903,babble-reversed_n13_p229-one-p318-eight-p256-three-p268-nine-p248-five-p284-four.wav,2,RX81,3,0.0,0.0,4.0,87.57049330475357,mgb_normalisation,87.57049330475357,90.34149293193902,4,4.0,True,1.1874127388000488
,2024-06-25 12:31:29,2,3,distance,cathedral,spatial_unmasking,1,47,0,0,_two_,talker-p245_sex-f_text-_two_.wav,p245,f,5,15,4.0,7.0,RX81,6,0.0,0.0,7.0,76.341492931939,babble-reversed_n13_p307-two-p229-three-p256-one-p284-five-p268-six-p248-nine.wav,2,RX81,3,0.0,0.0,4.0,87.57049330475355,mgb_normalisation,87.57049330475357,90.34149293193902,2,2.0,True,1.187413215637207
,2024-06-25 12:31:34,2,3,distance,cathedral,spatial_unmasking,1,48,0,0,_four_,talker-p245_sex-f_text-_four_.wav,p245,f,5,16,4.0,7.0,RX81,6,0.0,0.0,7.0,75.34149293193903,babble-reversed_n13_p307-one-p318-five-p229-four-p268-eight-p284-two-p245-three.wav,2,RX81,3,0.0,0.0,4.0,87.57049330475355,mgb_normalisation,87.57049330475357,90.34149293193902,4,4.0,True,3.062275648117065
,2024-06-25 12:31:38,2,3,distance,cathedral,spatial_unmasking,1,49,0,0,_three_,talker-p245_sex-f_text-_three_.wav,p245,f,5,17,4.0,7.0,RX81,6,0.0,0.0,7.0,74.34149293193902,babble-reversed_n13_p256-eight-p229-three-p307-nine-p245-five-p248-four-p268-two.wav,2,RX81,3,0.0,0.0,4.0,87.57049330475355,mgb_normalisation,87.57049330475357,90.34149293193902,3,3.0,True,1.3748996257781982
,2024-06-25 12:31:43,2,3,distance,cathedral,spatial_unmasking,1,50,0,0,_three_,talker-p245_sex-f_text-_three_.wav,p245,f,5,18,4.0,7.0,RX81,6,0.0,0.0,7.0,73.34149293193902,babble-reversed_n13_p318-four-p256-five-p229-three-p284-one-p245-eight-p248-nine.wav,2,RX81,3,0.0,0.0,4.0,87.57049330475357,mgb_normalisation,87.57049330475357,90.34149293193902,3,2.0,False,2.999778985977173
,2024-06-25 12:31:49,2,3,distance,cathedral,spatial_unmasking,1,51,0,0,_two_,talker-p245_sex-f_text-_two_.wav,p245,f,5,19,4.0,7.0,RX81,6,0.0,0.0,7.0,74.341492931939,babble-reversed_n13_p256-four-p229-two-p318-five-p268-one-p248-eight-p245-three.wav,2,RX81,3,0.0,0.0,4.0,87.57049330475355,mgb_normalisation,87.57049330475357,90.34149293193902,2,3.0,False,3.3122570514678955
,2024-06-25 12:31:54,2,3,distance,cathedral,spatial_unmasking,1,52,0,0,_three_,talker-p245_sex-f_text-_three_.wav,p245,f,5,20,4.0,7.0,RX81,6,0.0,0.0,7.0,75.34149293193903,babble-reversed_n13_p307-five-p229-two-p318-four-p248-three-p245-nine-p268-eight.wav,2,RX81,3,0.0,0.0,4.0,87.57049330475355,mgb_normalisation,87.57049330475357,90.34149293193902,3,2.0,False,2.374769449234009
,2024-06-25 12:31:57,2,3,distance,cathedral,spatial_unmasking,1,53,0,0,_four_,talker-p245_sex-f_text-_four_.wav,p245,f,5,21,4.0,7.0,RX81,6,0.0,0.0,7.0,76.34149293193903,babble-reversed_n13_p307-one-p318-five-p256-nine-p248-eight-p284-six-p245-three.wav,2,RX81,3,0.0,0.0,4.0,87.57049330475355,mgb_normalisation,87.57049330475357,90.34149293193902,4,3.0,False,1.1874127388000488
,2024-06-25 12:32:02,2,3,distance,cathedral,spatial_unmasking,1,54,0,0,_three_,talker-p245_sex-f_text-_three_.wav,p245,f,5,22,4.0,7.0,RX81,6,0.0,0.0,7.0,77.34149293193903,babble-reversed_n13_p229-one-p318-nine-p256-four-p284-eight-p268-five-p245-two.wav,2,RX81,3,0.0,0.0,4.0,87.57049330475357,mgb_normalisation,87.57049330475357,90.34149293193902,3,2.0,False,2.062416076660156
,2024-06-25 12:32:07,2,3,distance,cathedral,spatial_unmasking,1,55,0,0,_two_,talker-p245_sex-f_text-_two_.wav,p245,f,5,23,4.0,7.0,RX81,6,0.0,0.0,7.0,78.341492931939,babble-reversed_n13_p229-five-p318-two-p307-eight-p268-three-p248-four-p245-one.wav,2,RX81,3,0.0,0.0,4.0,87.57049330475357,mgb_normalisation,87.57049330475357,90.34149293193902,2,2.0,True,2.749797821044922
,2024-06-25 12:32:11,2,3,distance,cathedral,spatial_unmasking,1,56,0,0,_one_,talker-p245_sex-f_text-_one_.wav,p245,f,5,24,4.0,7.0,RX81,6,0.0,0.0,7.0,77.341492931939,babble-reversed_n13_p229-two-p318-eight-p256-three-p268-one-p248-nine-p284-five.wav,2,RX81,3,0.0,0.0,4.0,87.57049330475355,mgb_normalisation,87.57049330475357,90.34149293193902,1,1.0,True,1.9373574256896973
,2024-06-25 12:32:15,2,3,distance,cathedral,spatial_unmasking,1,57,0,0,_three_,talker-p245_sex-f_text-_three_.wav,p245,f,5,25,4.0,7.0,RX81,6,0.0,0.0,7.0,76.34149293193902,babble-reversed_n13_p256-eight-p318-five-p307-four-p245-three-p268-one-p284-nine.wav,2,RX81,3,0.0,0.0,4.0,87.57049330475355,mgb_normalisation,87.57049330475357,90.34149293193902,3,3.0,True,1.187412977218628
,2024-06-25 12:32:19,2,3,distance,cathedral,spatial_unmasking,1,58,0,0,_five_,talker-p245_sex-f_text-_five_.wav,p245,f,5,26,4.0,7.0,RX81,6,0.0,0.0,7.0,75.34149293193902,babble-reversed_n13_p256-four-p229-eight-p307-five-p248-three-p245-one-p284-two.wav,2,RX81,3,0.0,0.0,4.0,87.57049330475355,mgb_normalisation,87.57049330475357,90.34149293193902,5,3.0,False,1.3748993873596191
,2024-06-25 12:32:22,2,3,distance,cathedral,spatial_unmasking,1,59,0,0,_two_,talker-p245_sex-f_text-_two_.wav,p245,f,5,27,4.0,7.0,RX81,6,0.0,0.0,7.0,76.341492931939,babble-reversed_n13_p318-five-p229-four-p256-eight-p284-one-p245-three-p248-two.wav,2,RX81,3,0.0,0.0,4.0,87.57049330475357,mgb_normalisation,87.57049330475357,90.34149293193902,2,2.0,True,1.312403678894043
,2024-06-25 12:32:26,2,3,distance,cathedral,spatial_unmasking,1,60,0,0,_five_,talker-p245_sex-f_text-_five_.wav,p245,f,5,28,4.0,7.0,RX81,6,0.0,0.0,7.0,75.34149293193902,babble-reversed_n13_p318-eight-p307-five-p229-four-p268-two-p245-six-p248-three.wav,2,RX81,3,0.0,0.0,4.0,87.57049330475357,mgb_normalisation,87.57049330475357,90.34149293193902,5,2.0,False,1.6873762607574463
,2024-06-25 12:32:30,2,3,distance,cathedral,spatial_unmasking,1,61,0,0,_four_,talker-p245_sex-f_text-_four_.wav,p245,f,5,29,4.0,7.0,RX81,6,0.0,0.0,7.0,76.34149293193903,babble-reversed_n13_p229-five-p256-three-p318-nine-p248-two-p284-four-p268-one.wav,2,RX81,3,0.0,0.0,4.0,87.57049330475357,mgb_normalisation,87.57049330475357,90.34149293193902,4,4.0,True,0.9999263286590576
,2024-06-25 12:32:37,2,3,distance,cathedral,spatial_unmasking,1,62,0,0,_two_,talker-p245_sex-f_text-_two_.wav,p245,f,5,30,4.0,7.0,RX81,6,0.0,0.0,7.0,75.341492931939,babble-reversed_n13_p229-three-p256-nine-p318-five-p248-one-p245-eight-p284-two.wav,2,RX81,3,0.0,0.0,4.0,87.57049330475357,mgb_normalisation,87.57049330475357,90.34149293193902,2,2.0,True,5.187117338180542
,2024-06-25 12:32:43,2,3,distance,cathedral,spatial_unmasking,1,63,0,0,_one_,talker-p245_sex-f_text-_one_.wav,p245,f,5,31,4.0,7.0,RX81,6,0.0,0.0,7.0,74.341492931939,babble-reversed_n13_p229-nine-p307-five-p256-two-p248-three-p245-one-p268-eight.wav,2,RX81,3,0.0,0.0,4.0,87.57049330475357,mgb_normalisation,87.57049330475357,90.34149293193902,1,1.0,True,3.4372966289520264
,2024-06-25 12:32:52,2,3,distance,cathedral,spatial_unmasking,1,64,0,0,_two_,talker-p245_sex-f_text-_two_.wav,p245,f,5,32,4.0,7.0,RX81,6,0.0,0.0,7.0,73.341492931939,babble-reversed_n13_p318-three-p307-one-p256-five-p248-nine-p245-two-p284-eight.wav,2,RX81,3,0.0,0.0,4.0,87.57049330475357,mgb_normalisation,87.57049330475357,90.34149293193902,2,3.0,False,6.93693208694458
,2024-06-25 12:32:56,2,3,distance,cathedral,spatial_unmasking,1,65,0,0,_four_,talker-p245_sex-f_text-_four_.wav,p245,f,5,33,4.0,7.0,RX81,6,0.0,0.0,7.0,74.34149293193903,babble-reversed_n13_p307-one-p318-five-p256-nine-p248-eight-p284-six-p245-three.wav,2,RX81,3,0.0,0.0,4.0,87.57049330475355,mgb_normalisation,87.57049330475357,90.34149293193902,4,3.0,False,1.4373948574066162
,2024-06-25 12:33:00,2,3,distance,cathedral,spatial_unmasking,1,66,0,0,_one_,talker-p245_sex-f_text-_one_.wav,p245,f,5,34,4.0,7.0,RX81,6,0.0,0.0,7.0,75.341492931939,babble-reversed_n13_p307-five-p229-three-p318-nine-p245-four-p268-eight-p284-two.wav,2,RX81,3,0.0,0.0,4.0,87.57049330475355,mgb_normalisation,87.57049330475357,90.34149293193902,1,2.0,False,1.4999074935913086
,2024-06-25 12:33:07,2,3,distance,cathedral,spatial_unmasking,1,67,0,0,_one_,talker-p245_sex-f_text-_one_.wav,p245,f,5,35,4.0,7.0,RX81,6,0.0,0.0,7.0,76.34149293193902,babble-reversed_n13_p307-two-p229-three-p256-one-p284-five-p268-six-p248-nine.wav,2,RX81,3,0.0,0.0,4.0,87.57049330475355,mgb_normalisation,87.57049330475357,90.34149293193902,1,3.0,False,4.374679803848267
,2024-06-25 12:33:10,2,3,distance,cathedral,spatial_unmasking,1,68,0,0,_five_,talker-p245_sex-f_text-_five_.wav,p245,f,5,36,4.0,7.0,RX81,6,0.0,0.0,7.0,77.34149293193902,babble-reversed_n13_p318-five-p256-nine-p307-eight-p248-two-p245-four-p284-three.wav,2,RX81,3,0.0,0.0,4.0,87.57049330475357,mgb_normalisation,87.57049330475357,90.34149293193902,5,5.0,True,0.81243896484375
,2024-06-25 12:33:14,2,3,distance,cathedral,spatial_unmasking,2,69,0,0,_four_,talker-p245_sex-f_text-_four_.wav,p245,f,5,1,6.0,7.0,RX81,6,0.0,0.0,7.0,92.34149293193904,babble-reversed_n13_p256-five-p307-nine-p318-three-p284-eight-p268-one-p248-two.wav,4,RX81,5,0.0,0.0,6.0,89.31368318402099,mgb_normalisation,89.31368318402099,90.34149293193902,4,4.0,True,1.562385320663452
,2024-06-25 12:33:18,2,3,distance,cathedral,spatial_unmasking,2,70,0,0,_one_,talker-p245_sex-f_text-_one_.wav,p245,f,5,2,6.0,7.0,RX81,6,0.0,0.0,7.0,85.341492931939,babble-reversed_n13_p307-two-p229-three-p256-one-p284-five-p268-six-p248-nine.wav,4,RX81,5,0.0,0.0,6.0,89.31368318402099,mgb_normalisation,89.31368318402099,90.34149293193902,1,1.0,True,1.3748979568481443
,2024-06-25 12:33:23,2,3,distance,cathedral,spatial_unmasking,2,71,0,0,_one_,talker-p245_sex-f_text-_one_.wav,p245,f,5,3,6.0,7.0,RX81,6,0.0,0.0,7.0,78.341492931939,babble-reversed_n13_p256-five-p229-one-p318-three-p248-nine-p284-eight-p268-two.wav,4,RX81,5,0.0,0.0,6.0,89.31368318402099,mgb_normalisation,89.31368318402099,90.34149293193902,1,2.0,False,2.374825954437256
,2024-06-25 12:33:26,2,3,distance,cathedral,spatial_unmasking,2,72,0,0,_five_,talker-p245_sex-f_text-_five_.wav,p245,f,5,4,6.0,7.0,RX81,6,0.0,0.0,7.0,83.34149293193902,babble-reversed_n13_p229-three-p307-one-p318-two-p245-eight-p268-five-p284-four.wav,4,RX81,5,0.0,0.0,6.0,89.31368318402099,mgb_normalisation,89.31368318402099,90.34149293193902,5,5.0,True,1.2499077320098877
,2024-06-25 12:33:30,2,3,distance,cathedral,spatial_unmasking,2,73,0,0,_five_,talker-p245_sex-f_text-_five_.wav,p245,f,5,5,6.0,7.0,RX81,6,0.0,0.0,7.0,80.34149293193903,babble-reversed_n13_p307-two-p229-three-p256-one-p284-five-p268-six-p248-nine.wav,4,RX81,5,0.0,0.0,6.0,89.31368318402099,mgb_normalisation,89.31368318402099,90.34149293193902,5,5.0,True,1.1249175071716309
,2024-06-25 12:33:34,2,3,distance,cathedral,spatial_unmasking,2,74,0,0,_four_,talker-p245_sex-f_text-_four_.wav,p245,f,5,6,6.0,7.0,RX81,6,0.0,0.0,7.0,77.34149293193903,babble-reversed_n13_p256-eight-p318-two-p307-five-p245-four-p268-nine-p284-one.wav,4,RX81,5,0.0,0.0,6.0,89.31368318402099,mgb_normalisation,89.31368318402099,90.34149293193902,4,1.0,False,1.312403678894043
,2024-06-25 12:33:37,2,3,distance,cathedral,spatial_unmasking,2,75,0,0,_five_,talker-p245_sex-f_text-_five_.wav,p245,f,5,7,6.0,7.0,RX81,6,0.0,0.0,7.0,78.34149293193902,babble-reversed_n13_p318-three-p229-one-p256-eight-p245-five-p248-four-p284-nine.wav,4,RX81,5,0.0,0.0,6.0,89.313683184021,mgb_normalisation,89.31368318402099,90.34149293193902,5,5.0,True,0.9999268054962158
,2024-06-25 12:33:40,2,3,distance,cathedral,spatial_unmasking,2,76,0,0,_five_,talker-p245_sex-f_text-_five_.wav,p245,f,5,8,6.0,7.0,RX81,6,0.0,0.0,7.0,77.34149293193902,babble-reversed_n13_p229-five-p256-one-p318-three-p248-nine-p268-four-p284-eight.wav,4,RX81,5,0.0,0.0,6.0,89.31368318402099,mgb_normalisation,89.31368318402099,90.34149293193902,5,5.0,True,0.8749356269836426
,2024-06-25 12:33:44,2,3,distance,cathedral,spatial_unmasking,2,77,0,0,_one_,talker-p245_sex-f_text-_one_.wav,p245,f,5,9,6.0,7.0,RX81,6,0.0,0.0,7.0,76.34149293193902,babble-reversed_n13_p318-eight-p307-five-p229-four-p268-two-p245-six-p248-three.wav,4,RX81,5,0.0,0.0,6.0,89.31368318402099,mgb_normalisation,89.31368318402099,90.34149293193902,1,2.0,False,1.8123698234558103
,2024-06-25 12:33:51,2,3,distance,cathedral,spatial_unmasking,2,78,0,0,_two_,talker-p245_sex-f_text-_two_.wav,p245,f,5,10,6.0,7.0,RX81,6,0.0,0.0,7.0,77.341492931939,babble-reversed_n13_p318-eight-p307-five-p229-four-p268-two-p245-six-p248-three.wav,4,RX81,5,0.0,0.0,6.0,89.31368318402099,mgb_normalisation,89.31368318402099,90.34149293193902,2,2.0,True,4.249675989151001
,2024-06-25 12:33:55,2,3,distance,cathedral,spatial_unmasking,2,79,0,0,_one_,talker-p245_sex-f_text-_one_.wav,p245,f,5,11,6.0,7.0,RX81,6,0.0,0.0,7.0,76.34149293193902,babble-reversed_n13_p229-eight-p307-four-p318-three-p245-nine-p248-five-p268-six.wav,4,RX81,5,0.0,0.0,6.0,89.31368318402099,mgb_normalisation,89.31368318402099,90.34149293193902,1,1.0,True,1.812366962432861
,2024-06-25 12:33:59,2,3,distance,cathedral,spatial_unmasking,2,80,0,0,_four_,talker-p245_sex-f_text-_four_.wav,p245,f,5,12,6.0,7.0,RX81,6,0.0,0.0,7.0,75.34149293193903,babble-reversed_n13_p318-nine-p229-two-p256-eight-p268-four-p284-six-p245-three.wav,4,RX81,5,0.0,0.0,6.0,89.31368318402099,mgb_normalisation,89.31368318402099,90.34149293193902,4,4.0,True,1.3748695850372314
,2024-06-25 12:34:04,2,3,distance,cathedral,spatial_unmasking,2,81,0,0,_three_,talker-p245_sex-f_text-_three_.wav,p245,f,5,13,6.0,7.0,RX81,6,0.0,0.0,7.0,74.34149293193902,babble-reversed_n13_p229-eight-p256-nine-p318-four-p245-three-p268-five-p284-two.wav,4,RX81,5,0.0,0.0,6.0,89.31368318402099,mgb_normalisation,89.31368318402099,90.34149293193902,3,3.0,True,2.31233024597168
,2024-06-25 12:34:08,2,3,distance,cathedral,spatial_unmasking,2,82,0,0,_two_,talker-p245_sex-f_text-_two_.wav,p245,f,5,14,6.0,7.0,RX81,6,0.0,0.0,7.0,73.341492931939,babble-reversed_n13_p307-five-p229-two-p318-four-p248-three-p245-nine-p268-eight.wav,4,RX81,5,0.0,0.0,6.0,89.31368318402099,mgb_normalisation,89.31368318402099,90.34149293193902,2,1.0,False,2.1248443126678467
,2024-06-25 12:34:12,2,3,distance,cathedral,spatial_unmasking,2,83,0,0,_three_,talker-p245_sex-f_text-_three_.wav,p245,f,5,15,6.0,7.0,RX81,6,0.0,0.0,7.0,74.34149293193902,babble-reversed_n13_p318-five-p229-four-p256-eight-p284-one-p245-three-p248-two.wav,4,RX81,5,0.0,0.0,6.0,89.31368318402099,mgb_normalisation,89.31368318402099,90.34149293193902,3,2.0,False,1.312403917312622
,2024-06-25 12:34:17,2,3,distance,cathedral,spatial_unmasking,2,84,0,0,_one_,talker-p245_sex-f_text-_one_.wav,p245,f,5,16,6.0,7.0,RX81,6,0.0,0.0,7.0,75.341492931939,babble-reversed_n13_p256-three-p318-one-p307-two-p284-nine-p268-four-p245-eight.wav,4,RX81,5,0.0,0.0,6.0,89.31368318402099,mgb_normalisation,89.31368318402099,90.34149293193902,1,3.0,False,2.562312602996826
,2024-06-25 12:34:20,2,3,distance,cathedral,spatial_unmasking,2,85,0,0,_four_,talker-p245_sex-f_text-_four_.wav,p245,f,5,17,6.0,7.0,RX81,6,0.0,0.0,7.0,76.34149293193903,babble-reversed_n13_p307-one-p318-five-p229-four-p268-eight-p284-two-p245-three.wav,4,RX81,5,0.0,0.0,6.0,89.31368318402099,mgb_normalisation,89.31368318402099,90.34149293193902,4,4.0,True,1.1874113082885742
,2024-06-25 12:34:27,2,3,distance,cathedral,spatial_unmasking,2,86,0,0,_four_,talker-p245_sex-f_text-_four_.wav,p245,f,5,18,6.0,7.0,RX81,6,0.0,0.0,7.0,75.34149293193903,babble-reversed_n13_p229-three-p307-one-p318-two-p245-eight-p268-five-p284-four.wav,4,RX81,5,0.0,0.0,6.0,89.31368318402099,mgb_normalisation,89.31368318402099,90.34149293193902,4,3.0,False,3.937212467193604
,2024-06-25 12:34:31,2,3,distance,cathedral,spatial_unmasking,2,87,0,0,_four_,talker-p245_sex-f_text-_four_.wav,p245,f,5,19,6.0,7.0,RX81,6,0.0,0.0,7.0,76.34149293193903,babble-reversed_n13_p256-three-p318-two-p229-nine-p248-four-p284-one-p268-eight.wav,4,RX81,5,0.0,0.0,6.0,89.31368318402099,mgb_normalisation,89.31368318402099,90.34149293193902,4,1.0,False,1.874860763549805
,2024-06-25 12:34:34,2,3,distance,cathedral,spatial_unmasking,2,88,0,0,_three_,talker-p245_sex-f_text-_three_.wav,p245,f,5,20,6.0,7.0,RX81,6,0.0,0.0,7.0,77.34149293193903,babble-reversed_n13_p256-five-p229-four-p307-nine-p268-eight-p284-two-p245-six.wav,4,RX81,5,0.0,0.0,6.0,89.31368318402099,mgb_normalisation,89.31368318402099,90.34149293193902,3,3.0,True,0.9999265670776368
,2024-06-25 12:34:38,2,3,distance,cathedral,spatial_unmasking,2,89,0,0,_four_,talker-p245_sex-f_text-_four_.wav,p245,f,5,21,6.0,7.0,RX81,6,0.0,0.0,7.0,76.34149293193903,babble-reversed_n13_p229-two-p318-eight-p256-three-p268-one-p248-nine-p284-five.wav,4,RX81,5,0.0,0.0,6.0,89.31368318402099,mgb_normalisation,89.31368318402099,90.34149293193902,4,4.0,True,1.249908447265625
,2024-06-25 12:34:41,2,3,distance,cathedral,spatial_unmasking,2,90,0,0,_five_,talker-p245_sex-f_text-_five_.wav,p245,f,5,22,6.0,7.0,RX81,6,0.0,0.0,7.0,75.34149293193902,babble-reversed_n13_p307-two-p256-four-p318-three-p284-eight-p248-five-p245-nine.wav,4,RX81,5,0.0,0.0,6.0,89.313683184021,mgb_normalisation,89.31368318402099,90.34149293193902,5,5.0,True,0.937432050704956
,2024-06-25 12:34:45,2,3,distance,cathedral,spatial_unmasking,2,91,0,0,_three_,talker-p245_sex-f_text-_three_.wav,p245,f,5,23,6.0,7.0,RX81,6,0.0,0.0,7.0,74.34149293193902,babble-reversed_n13_p307-nine-p229-one-p256-eight-p248-four-p284-two-p268-three.wav,4,RX81,5,0.0,0.0,6.0,89.31368318402099,mgb_normalisation,89.31368318402099,90.34149293193902,3,2.0,False,1.249908447265625
,2024-06-25 12:34:49,2,3,distance,cathedral,spatial_unmasking,2,92,0,0,_two_,talker-p245_sex-f_text-_two_.wav,p245,f,5,24,6.0,7.0,RX81,6,0.0,0.0,7.0,75.341492931939,babble-reversed_n13_p229-two-p256-three-p318-eight-p284-five-p268-four-p245-one.wav,4,RX81,5,0.0,0.0,6.0,89.31368318402099,mgb_normalisation,89.31368318402099,90.34149293193902,2,1.0,False,1.812363624572754
,2024-06-25 12:34:54,2,3,distance,cathedral,spatial_unmasking,2,93,0,0,_two_,talker-p245_sex-f_text-_two_.wav,p245,f,5,25,6.0,7.0,RX81,6,0.0,0.0,7.0,76.341492931939,babble-reversed_n13_p307-two-p229-three-p256-one-p284-five-p268-six-p248-nine.wav,4,RX81,5,0.0,0.0,6.0,89.31368318402099,mgb_normalisation,89.31368318402099,90.34149293193902,2,2.0,True,2.49981689453125
,2024-06-25 12:35:00,2,3,distance,cathedral,spatial_unmasking,2,94,0,0,_one_,talker-p245_sex-f_text-_one_.wav,p245,f,5,26,6.0,7.0,RX81,6,0.0,0.0,7.0,75.341492931939,babble-reversed_n13_p229-nine-p256-four-p318-three-p268-eight-p248-two-p284-five.wav,4,RX81,5,0.0,0.0,6.0,89.31368318402099,mgb_normalisation,89.31368318402099,90.34149293193902,1,5.0,False,3.6247341632843018
,2024-06-25 12:35:04,2,3,distance,cathedral,spatial_unmasking,2,95,0,0,_three_,talker-p245_sex-f_text-_three_.wav,p245,f,5,27,6.0,7.0,RX81,6,0.0,0.0,7.0,76.34149293193902,babble-reversed_n13_p307-five-p229-three-p318-nine-p245-four-p268-eight-p284-two.wav,4,RX81,5,0.0,0.0,6.0,89.31368318402099,mgb_normalisation,89.31368318402099,90.34149293193902,3,3.0,True,1.3123540878295898
,2024-06-25 12:35:07,2,3,distance,cathedral,spatial_unmasking,2,96,0,0,_three_,talker-p245_sex-f_text-_three_.wav,p245,f,5,28,6.0,7.0,RX81,6,0.0,0.0,7.0,75.34149293193903,babble-reversed_n13_p229-five-p256-three-p318-nine-p248-two-p284-four-p268-one.wav,4,RX81,5,0.0,0.0,6.0,89.313683184021,mgb_normalisation,89.31368318402099,90.34149293193902,3,3.0,True,0.9374306201934814
,2024-06-25 12:35:13,2,3,distance,cathedral,spatial_unmasking,2,97,0,0,_three_,talker-p245_sex-f_text-_three_.wav,p245,f,5,29,6.0,7.0,RX81,6,0.0,0.0,7.0,74.34149293193902,babble-reversed_n13_p229-eight-p256-nine-p318-four-p245-three-p268-five-p284-two.wav,4,RX81,5,0.0,0.0,6.0,89.31368318402099,mgb_normalisation,89.31368318402099,90.34149293193902,3,2.0,False,3.4372477531433105
,2024-06-25 12:35:17,2,3,distance,cathedral,spatial_unmasking,2,98,0,0,_four_,talker-p245_sex-f_text-_four_.wav,p245,f,5,30,6.0,7.0,RX81,6,0.0,0.0,7.0,75.34149293193903,babble-reversed_n13_p229-nine-p256-four-p318-three-p268-eight-p248-two-p284-five.wav,4,RX81,5,0.0,0.0,6.0,89.31368318402099,mgb_normalisation,89.31368318402099,90.34149293193902,4,4.0,True,1.9373581409454343
,2024-06-25 12:35:22,2,3,distance,cathedral,spatial_unmasking,3,99,0,0,_two_,talker-p245_sex-f_text-_two_.wav,p245,f,5,1,10.0,7.0,RX81,6,0.0,0.0,7.0,92.341492931939,babble-reversed_n13_p307-one-p318-five-p229-four-p268-eight-p284-two-p245-three.wav,8,RX81,9,0.0,0.0,10.0,92.0152836843556,mgb_normalisation,92.0152836843556,90.34149293193902,2,2.0,True,2.0623490810394287
,2024-06-25 12:35:25,2,3,distance,cathedral,spatial_unmasking,3,100,0,0,_five_,talker-p245_sex-f_text-_five_.wav,p245,f,5,2,10.0,7.0,RX81,6,0.0,0.0,7.0,85.34149293193903,babble-reversed_n13_p229-nine-p318-one-p307-two-p248-eight-p245-five-p284-four.wav,8,RX81,9,0.0,0.0,10.0,92.0152836843556,mgb_normalisation,92.0152836843556,90.34149293193902,5,5.0,True,1.1873598098754885
,2024-06-25 12:35:29,2,3,distance,cathedral,spatial_unmasking,3,101,0,0,_five_,talker-p245_sex-f_text-_five_.wav,p245,f,5,3,10.0,7.0,RX81,6,0.0,0.0,7.0,78.34149293193902,babble-reversed_n13_p256-four-p229-two-p318-five-p268-one-p248-eight-p245-three.wav,8,RX81,9,0.0,0.0,10.0,92.0152836843556,mgb_normalisation,92.0152836843556,90.34149293193902,5,5.0,True,1.062422752380371
,2024-06-25 12:35:33,2,3,distance,cathedral,spatial_unmasking,3,102,0,0,_one_,talker-p245_sex-f_text-_one_.wav,p245,f,5,4,10.0,7.0,RX81,6,0.0,0.0,7.0,71.34149293193902,babble-reversed_n13_p256-eight-p318-two-p307-five-p245-four-p268-nine-p284-one.wav,8,RX81,9,0.0,0.0,10.0,92.0152836843556,mgb_normalisation,92.0152836843556,90.34149293193902,1,1.0,True,1.6873764991760254
,2024-06-25 12:35:37,2,3,distance,cathedral,spatial_unmasking,3,103,0,0,_one_,talker-p245_sex-f_text-_one_.wav,p245,f,5,5,10.0,7.0,RX81,6,0.0,0.0,7.0,64.341492931939,babble-reversed_n13_p229-three-p256-one-p307-two-p284-eight-p268-five-p248-nine.wav,8,RX81,9,0.0,0.0,10.0,92.0152836843556,mgb_normalisation,92.0152836843556,90.34149293193902,1,1.0,True,1.562384843826294
,2024-06-25 12:35:40,2,3,distance,cathedral,spatial_unmasking,3,104,0,0,_one_,talker-p245_sex-f_text-_one_.wav,p245,f,5,6,10.0,7.0,RX81,6,0.0,0.0,7.0,57.34149293193901,babble-reversed_n13_p229-five-p318-three-p307-two-p245-four-p284-nine-p248-eight.wav,8,RX81,9,0.0,0.0,10.0,92.0152836843556,mgb_normalisation,92.0152836843556,90.34149293193902,1,4.0,False,0.9999263286590576
,2024-06-25 12:35:46,2,3,distance,cathedral,spatial_unmasking,3,105,0,0,_four_,talker-p245_sex-f_text-_four_.wav,p245,f,5,7,10.0,7.0,RX81,6,0.0,0.0,7.0,62.34149293193902,babble-reversed_n13_p318-nine-p307-eight-p229-two-p284-one-p248-three-p245-five.wav,8,RX81,9,0.0,0.0,10.0,92.0152836843556,mgb_normalisation,92.0152836843556,90.34149293193902,4,1.0,False,2.999778509140014
,2024-06-25 12:35:52,2,3,distance,cathedral,spatial_unmasking,3,106,0,0,_four_,talker-p245_sex-f_text-_four_.wav,p245,f,5,8,10.0,7.0,RX81,6,0.0,0.0,7.0,67.34149293193903,babble-reversed_n13_p307-nine-p318-two-p256-one-p245-three-p268-four-p248-eight.wav,8,RX81,9,0.0,0.0,10.0,92.0152836843556,mgb_normalisation,92.0152836843556,90.34149293193902,4,3.0,False,4.124698638916016
,2024-06-25 12:35:56,2,3,distance,cathedral,spatial_unmasking,3,107,0,0,_two_,talker-p245_sex-f_text-_two_.wav,p245,f,5,9,10.0,7.0,RX81,6,0.0,0.0,7.0,72.341492931939,babble-reversed_n13_p307-five-p229-three-p318-nine-p245-four-p268-eight-p284-two.wav,8,RX81,9,0.0,0.0,10.0,92.0152836843556,mgb_normalisation,92.0152836843556,90.34149293193902,2,4.0,False,1.550783395767212
,2024-06-25 12:36:00,2,3,distance,cathedral,spatial_unmasking,3,108,0,0,_four_,talker-p245_sex-f_text-_four_.wav,p245,f,5,10,10.0,7.0,RX81,6,0.0,0.0,7.0,77.34149293193903,babble-reversed_n13_p256-nine-p307-one-p318-three-p248-two-p284-eight-p268-six.wav,8,RX81,9,0.0,0.0,10.0,92.0152836843556,mgb_normalisation,92.0152836843556,90.34149293193902,4,2.0,False,1.999853610992432
,2024-06-25 12:36:04,2,3,distance,cathedral,spatial_unmasking,3,109,0,0,_two_,talker-p245_sex-f_text-_two_.wav,p245,f,5,11,10.0,7.0,RX81,6,0.0,0.0,7.0,82.341492931939,babble-reversed_n13_p229-two-p318-eight-p256-three-p268-one-p248-nine-p284-five.wav,8,RX81,9,0.0,0.0,10.0,92.0152836843556,mgb_normalisation,92.0152836843556,90.34149293193902,2,2.0,True,1.8123672008514404
,2024-06-25 12:36:08,2,3,distance,cathedral,spatial_unmasking,3,110,0,0,_one_,talker-p245_sex-f_text-_one_.wav,p245,f,5,12,10.0,7.0,RX81,6,0.0,0.0,7.0,79.341492931939,babble-reversed_n13_p256-two-p307-five-p318-nine-p248-eight-p245-four-p284-one.wav,8,RX81,9,0.0,0.0,10.0,92.0152836843556,mgb_normalisation,92.0152836843556,90.34149293193902,1,1.0,True,1.437395095825195
,2024-06-25 12:36:12,2,3,distance,cathedral,spatial_unmasking,3,111,0,0,_three_,talker-p245_sex-f_text-_three_.wav,p245,f,5,13,10.0,7.0,RX81,6,0.0,0.0,7.0,76.34149293193902,babble-reversed_n13_p318-one-p307-two-p256-eight-p284-three-p248-five-p245-four.wav,8,RX81,9,0.0,0.0,10.0,92.0152836843556,mgb_normalisation,92.0152836843556,90.34149293193902,3,3.0,True,1.0624210834503174
,2024-06-25 12:36:16,2,3,distance,cathedral,spatial_unmasking,3,112,0,0,_two_,talker-p245_sex-f_text-_two_.wav,p245,f,5,14,10.0,7.0,RX81,6,0.0,0.0,7.0,73.341492931939,babble-reversed_n13_p229-five-p256-three-p307-one-p284-two-p268-eight-p245-six.wav,8,RX81,9,0.0,0.0,10.0,92.0152836843556,mgb_normalisation,92.0152836843556,90.34149293193902,2,2.0,True,1.499889850616455
,2024-06-25 12:36:19,2,3,distance,cathedral,spatial_unmasking,3,113,0,0,_five_,talker-p245_sex-f_text-_five_.wav,p245,f,5,15,10.0,7.0,RX81,6,0.0,0.0,7.0,70.34149293193902,babble-reversed_n13_p229-five-p318-three-p307-two-p245-four-p284-nine-p248-eight.wav,8,RX81,9,0.0,0.0,10.0,92.0152836843556,mgb_normalisation,92.0152836843556,90.34149293193902,5,4.0,False,1.062474250793457
,2024-06-25 12:36:23,2,3,distance,cathedral,spatial_unmasking,3,114,0,0,_four_,talker-p245_sex-f_text-_four_.wav,p245,f,5,16,10.0,7.0,RX81,6,0.0,0.0,7.0,71.34149293193903,babble-reversed_n13_p229-one-p318-nine-p256-four-p284-eight-p268-five-p245-two.wav,8,RX81,9,0.0,0.0,10.0,92.0152836843556,mgb_normalisation,92.0152836843556,90.34149293193902,4,1.0,False,1.7498717308044434
,2024-06-25 12:36:28,2,3,distance,cathedral,spatial_unmasking,3,115,0,0,_four_,talker-p245_sex-f_text-_four_.wav,p245,f,5,17,10.0,7.0,RX81,6,0.0,0.0,7.0,72.34149293193903,babble-reversed_n13_p256-five-p229-four-p307-nine-p268-eight-p284-two-p245-six.wav,8,RX81,9,0.0,0.0,10.0,92.0152836843556,mgb_normalisation,92.0152836843556,90.34149293193902,4,3.0,False,2.437321186065674
,2024-06-25 12:36:33,2,3,distance,cathedral,spatial_unmasking,3,116,0,0,_four_,talker-p245_sex-f_text-_four_.wav,p245,f,5,18,10.0,7.0,RX81,6,0.0,0.0,7.0,73.34149293193903,babble-reversed_n13_p318-two-p307-three-p256-one-p284-nine-p248-six-p268-five.wav,8,RX81,9,0.0,0.0,10.0,92.0152836843556,mgb_normalisation,92.0152836843556,90.34149293193902,4,1.0,False,2.187340259552002
,2024-06-25 12:36:36,2,3,distance,cathedral,spatial_unmasking,3,117,0,0,_two_,talker-p245_sex-f_text-_two_.wav,p245,f,5,19,10.0,7.0,RX81,6,0.0,0.0,7.0,74.341492931939,babble-reversed_n13_p256-nine-p307-four-p229-one-p284-three-p248-two-p245-five.wav,8,RX81,9,0.0,0.0,10.0,92.0152836843556,mgb_normalisation,92.0152836843556,90.34149293193902,2,3.0,False,1.312403917312622
,2024-06-25 12:36:40,2,3,distance,cathedral,spatial_unmasking,3,118,0,0,_four_,talker-p245_sex-f_text-_four_.wav,p245,f,5,20,10.0,7.0,RX81,6,0.0,0.0,7.0,75.34149293193903,babble-reversed_n13_p229-three-p256-one-p307-two-p284-eight-p268-five-p248-nine.wav,8,RX81,9,0.0,0.0,10.0,92.0152836843556,mgb_normalisation,92.0152836843556,90.34149293193902,4,4.0,True,0.9374313354492188
,2024-06-25 12:36:43,2,3,distance,cathedral,spatial_unmasking,3,119,0,0,_one_,talker-p245_sex-f_text-_one_.wav,p245,f,5,21,10.0,7.0,RX81,6,0.0,0.0,7.0,74.341492931939,babble-reversed_n13_p229-nine-p318-one-p307-two-p248-eight-p245-five-p284-four.wav,8,RX81,9,0.0,0.0,10.0,92.0152836843556,mgb_normalisation,92.0152836843556,90.34149293193902,1,3.0,False,1.312453269958496
,2024-06-25 12:36:47,2,3,distance,cathedral,spatial_unmasking,3,120,0,0,_five_,talker-p245_sex-f_text-_five_.wav,p245,f,5,22,10.0,7.0,RX81,6,0.0,0.0,7.0,75.34149293193902,babble-reversed_n13_p318-five-p256-nine-p307-two-p245-eight-p248-one-p284-four.wav,8,RX81,9,0.0,0.0,10.0,92.0152836843556,mgb_normalisation,92.0152836843556,90.34149293193902,5,5.0,True,0.9374306201934814
,2024-06-25 12:36:52,2,3,distance,cathedral,spatial_unmasking,3,121,0,0,_four_,talker-p245_sex-f_text-_four_.wav,p245,f,5,23,10.0,7.0,RX81,6,0.0,0.0,7.0,74.34149293193903,babble-reversed_n13_p318-four-p256-five-p229-three-p284-one-p245-eight-p248-nine.wav,8,RX81,9,0.0,0.0,10.0,92.0152836843556,mgb_normalisation,92.0152836843556,90.34149293193902,4,2.0,False,2.687302350997925
,2024-06-25 12:36:55,2,3,distance,cathedral,spatial_unmasking,3,122,0,0,_one_,talker-p245_sex-f_text-_one_.wav,p245,f,5,24,10.0,7.0,RX81,6,0.0,0.0,7.0,75.341492931939,babble-reversed_n13_p229-nine-p318-one-p307-two-p248-eight-p245-five-p284-four.wav,8,RX81,9,0.0,0.0,10.0,92.0152836843556,mgb_normalisation,92.0152836843556,90.34149293193902,1,3.0,False,1.1874127388000488
,2024-06-25 12:37:00,2,3,distance,cathedral,spatial_unmasking,3,123,0,0,_five_,talker-p245_sex-f_text-_five_.wav,p245,f,5,25,10.0,7.0,RX81,6,0.0,0.0,7.0,76.34149293193902,babble-reversed_n13_p318-nine-p256-five-p307-eight-p268-three-p248-one-p245-four.wav,8,RX81,9,0.0,0.0,10.0,92.0152836843556,mgb_normalisation,92.0152836843556,90.34149293193902,5,2.0,False,2.4372570514678955
,2024-06-25 12:37:04,2,3,distance,cathedral,spatial_unmasking,3,124,0,0,_two_,talker-p245_sex-f_text-_two_.wav,p245,f,5,26,10.0,7.0,RX81,6,0.0,0.0,7.0,77.341492931939,babble-reversed_n13_p229-five-p256-one-p318-three-p248-nine-p268-four-p284-eight.wav,8,RX81,9,0.0,0.0,10.0,92.0152836843556,mgb_normalisation,92.0152836843556,90.34149293193902,2,1.0,False,1.812427759170532
,2024-06-25 12:37:08,2,3,distance,cathedral,spatial_unmasking,3,125,0,0,_three_,talker-p245_sex-f_text-_three_.wav,p245,f,5,27,10.0,7.0,RX81,6,0.0,0.0,7.0,78.34149293193902,babble-reversed_n13_p318-five-p229-four-p256-eight-p284-one-p245-three-p248-two.wav,8,RX81,9,0.0,0.0,10.0,92.0152836843556,mgb_normalisation,92.0152836843556,90.34149293193902,3,2.0,False,1.5623865127563477
,2024-06-25 12:37:13,2,3,distance,cathedral,spatial_unmasking,3,126,0,0,_one_,talker-p245_sex-f_text-_one_.wav,p245,f,5,28,10.0,7.0,RX81,6,0.0,0.0,7.0,79.341492931939,babble-reversed_n13_p307-two-p318-four-p256-five-p268-six-p248-nine-p284-one.wav,8,RX81,9,0.0,0.0,10.0,92.0152836843556,mgb_normalisation,92.0152836843556,90.34149293193902,1,1.0,True,1.8748400211334229
,2024-06-25 12:37:16,2,3,distance,cathedral,spatial_unmasking,3,127,0,0,_two_,talker-p245_sex-f_text-_two_.wav,p245,f,5,29,10.0,7.0,RX81,6,0.0,0.0,7.0,78.341492931939,babble-reversed_n13_p229-one-p318-eight-p256-three-p268-nine-p248-five-p284-four.wav,8,RX81,9,0.0,0.0,10.0,92.0152836843556,mgb_normalisation,92.0152836843556,90.34149293193902,2,2.0,True,1.1874122619628906
,2024-06-25 12:37:20,2,3,distance,cathedral,spatial_unmasking,3,128,0,0,_three_,talker-p245_sex-f_text-_three_.wav,p245,f,5,30,10.0,7.0,RX81,6,0.0,0.0,7.0,77.34149293193903,babble-reversed_n13_p229-one-p318-eight-p256-three-p268-nine-p248-five-p284-four.wav,8,RX81,9,0.0,0.0,10.0,92.0152836843556,mgb_normalisation,92.0152836843556,90.34149293193902,3,3.0,True,1.499889850616455
,2024-06-25 12:37:24,2,3,distance,cathedral,spatial_unmasking,3,129,0,0,_five_,talker-p245_sex-f_text-_five_.wav,p245,f,5,31,10.0,7.0,RX81,6,0.0,0.0,7.0,76.34149293193902,babble-reversed_n13_p256-eight-p318-two-p307-five-p245-four-p268-nine-p284-one.wav,8,RX81,9,0.0,0.0,10.0,92.0152836843556,mgb_normalisation,92.0152836843556,90.34149293193902,5,5.0,True,1.8123672008514404
,2024-06-25 12:37:28,2,3,distance,cathedral,spatial_unmasking,3,130,0,0,_three_,talker-p245_sex-f_text-_three_.wav,p245,f,5,32,10.0,7.0,RX81,6,0.0,0.0,7.0,75.34149293193903,babble-reversed_n13_p307-one-p318-five-p256-nine-p248-eight-p284-six-p245-three.wav,8,RX81,9,0.0,0.0,10.0,92.0152836843556,mgb_normalisation,92.0152836843556,90.34149293193902,3,3.0,True,1.3124041557312012
,2024-06-25 12:37:33,2,3,distance,cathedral,spatial_unmasking,3,131,0,0,_three_,talker-p245_sex-f_text-_three_.wav,p245,f,5,33,10.0,7.0,RX81,6,0.0,0.0,7.0,74.34149293193902,babble-reversed_n13_p307-two-p229-three-p256-one-p284-five-p268-six-p248-nine.wav,8,RX81,9,0.0,0.0,10.0,92.0152836843556,mgb_normalisation,92.0152836843556,90.34149293193902,3,2.0,False,2.249838590621948
,2024-06-25 12:37:37,2,3,distance,cathedral,spatial_unmasking,3,132,0,0,_three_,talker-p245_sex-f_text-_three_.wav,p245,f,5,34,10.0,7.0,RX81,6,0.0,0.0,7.0,75.34149293193903,babble-reversed_n13_p307-two-p256-four-p318-three-p284-eight-p248-five-p245-nine.wav,8,RX81,9,0.0,0.0,10.0,92.0152836843556,mgb_normalisation,92.0152836843556,90.34149293193902,3,3.0,True,1.5623841285705566
,2024-06-25 12:37:41,2,3,distance,cathedral,spatial_unmasking,3,133,0,0,_four_,talker-p245_sex-f_text-_four_.wav,p245,f,5,35,10.0,7.0,RX81,6,0.0,0.0,7.0,74.34149293193903,babble-reversed_n13_p307-four-p318-three-p256-eight-p284-two-p245-nine-p248-five.wav,8,RX81,9,0.0,0.0,10.0,92.0152836843556,mgb_normalisation,92.0152836843556,90.34149293193902,4,2.0,False,2.2498350143432617
,2024-06-25 12:37:44,2,3,distance,cathedral,spatial_unmasking,3,134,0,0,_four_,talker-p245_sex-f_text-_four_.wav,p245,f,5,36,10.0,7.0,RX81,6,0.0,0.0,7.0,75.34149293193903,babble-reversed_n13_p256-two-p307-five-p318-nine-p248-eight-p245-four-p284-one.wav,8,RX81,9,0.0,0.0,10.0,92.0152836843556,mgb_normalisation,92.0152836843556,90.34149293193902,4,4.0,True,0.8749339580535889
,2024-06-25 12:37:49,2,3,distance,cathedral,spatial_unmasking,3,135,0,0,_one_,talker-p245_sex-f_text-_one_.wav,p245,f,5,37,10.0,7.0,RX81,6,0.0,0.0,7.0,74.341492931939,babble-reversed_n13_p229-two-p307-five-p318-four-p284-one-p248-nine-p268-eight.wav,8,RX81,9,0.0,0.0,10.0,92.0152836843556,mgb_normalisation,92.0152836843556,90.34149293193902,1,2.0,False,2.499816656112671
,2024-06-25 12:37:53,2,3,distance,cathedral,spatial_unmasking,3,136,0,0,_five_,talker-p245_sex-f_text-_five_.wav,p245,f,5,38,10.0,7.0,RX81,6,0.0,0.0,7.0,75.34149293193902,babble-reversed_n13_p318-three-p229-one-p256-eight-p245-five-p248-four-p284-nine.wav,8,RX81,9,0.0,0.0,10.0,92.0152836843556,mgb_normalisation,92.0152836843556,90.34149293193902,5,5.0,True,0.9999268054962158
,2024-06-25 12:37:56,2,3,distance,cathedral,spatial_unmasking,3,137,0,0,_three_,talker-p245_sex-f_text-_three_.wav,p245,f,5,39,10.0,7.0,RX81,6,0.0,0.0,7.0,74.34149293193902,babble-reversed_n13_p307-five-p229-three-p318-nine-p245-four-p268-eight-p284-two.wav,8,RX81,9,0.0,0.0,10.0,92.0152836843556,mgb_normalisation,92.0152836843556,90.34149293193902,3,3.0,True,1.1249194145202637
,2024-06-25 12:38:00,2,3,distance,cathedral,spatial_unmasking,3,138,0,0,_one_,talker-p245_sex-f_text-_one_.wav,p245,f,5,40,10.0,7.0,RX81,6,0.0,0.0,7.0,73.341492931939,babble-reversed_n13_p229-eight-p256-nine-p318-four-p245-three-p268-five-p284-two.wav,8,RX81,9,0.0,0.0,10.0,92.0152836843556,mgb_normalisation,92.0152836843556,90.34149293193902,1,3.0,False,1.562385082244873
,2024-06-25 12:38:06,2,3,distance,cathedral,spatial_unmasking,3,139,0,0,_three_,talker-p245_sex-f_text-_three_.wav,p245,f,5,41,10.0,7.0,RX81,6,0.0,0.0,7.0,74.34149293193902,babble-reversed_n13_p256-eight-p318-five-p307-four-p245-three-p268-one-p284-nine.wav,8,RX81,9,0.0,0.0,10.0,92.0152836843556,mgb_normalisation,92.0152836843556,90.34149293193902,3,1.0,False,3.124770402908325
,2024-06-25 12:38:11,2,3,distance,cathedral,spatial_unmasking,3,140,0,0,_one_,talker-p245_sex-f_text-_one_.wav,p245,f,5,42,10.0,7.0,RX81,6,0.0,0.0,7.0,75.341492931939,babble-reversed_n13_p318-nine-p307-eight-p229-two-p284-one-p248-three-p245-five.wav,8,RX81,9,0.0,0.0,10.0,92.0152836843556,mgb_normalisation,92.0152836843556,90.34149293193902,1,2.0,False,2.624807357788086
,2024-06-25 12:38:14,2,3,distance,cathedral,spatial_unmasking,3,141,0,0,_five_,talker-p245_sex-f_text-_five_.wav,p245,f,5,43,10.0,7.0,RX81,6,0.0,0.0,7.0,76.34149293193902,babble-reversed_n13_p229-five-p256-three-p307-one-p284-two-p268-eight-p245-six.wav,8,RX81,9,0.0,0.0,10.0,92.0152836843556,mgb_normalisation,92.0152836843556,90.34149293193902,5,5.0,True,0.9999282360076904
,2024-06-25 12:38:18,2,3,distance,cathedral,spatial_unmasking,4,142,0,0,_three_,talker-p245_sex-f_text-_three_.wav,p245,f,5,1,7.0,7.0,RX81,6,0.0,0.0,7.0,92.34149293193902,babble-reversed_n13_p307-nine-p318-four-p229-five-p268-one-p245-eight-p284-six.wav,5,RX81,6,0.0,0.0,7.0,90.34149293193904,mgb_normalisation,90.34149293193902,90.34149293193902,3,3.0,True,1.8123679161071773
,2024-06-25 12:38:23,2,3,distance,cathedral,spatial_unmasking,4,143,0,0,_three_,talker-p245_sex-f_text-_three_.wav,p245,f,5,2,7.0,7.0,RX81,6,0.0,0.0,7.0,85.34149293193903,babble-reversed_n13_p229-five-p318-two-p307-eight-p268-three-p248-four-p245-one.wav,5,RX81,6,0.0,0.0,7.0,90.34149293193904,mgb_normalisation,90.34149293193902,90.34149293193902,3,3.0,True,2.062349319458008
,2024-06-25 12:38:26,2,3,distance,cathedral,spatial_unmasking,4,144,0,0,_three_,talker-p245_sex-f_text-_three_.wav,p245,f,5,3,7.0,7.0,RX81,6,0.0,0.0,7.0,78.34149293193902,babble-reversed_n13_p256-four-p229-two-p318-five-p268-one-p248-eight-p245-three.wav,5,RX81,6,0.0,0.0,7.0,90.341492931939,mgb_normalisation,90.34149293193902,90.34149293193902,3,3.0,True,1.37489914894104
,2024-06-25 12:38:31,2,3,distance,cathedral,spatial_unmasking,4,145,0,0,_one_,talker-p245_sex-f_text-_one_.wav,p245,f,5,4,7.0,7.0,RX81,6,0.0,0.0,7.0,71.34149293193902,babble-reversed_n13_p229-two-p307-five-p318-four-p284-one-p248-nine-p268-eight.wav,5,RX81,6,0.0,0.0,7.0,90.34149293193904,mgb_normalisation,90.34149293193902,90.34149293193902,1,1.0,True,1.999853610992432
,2024-06-25 12:38:35,2,3,distance,cathedral,spatial_unmasking,4,146,0,0,_four_,talker-p245_sex-f_text-_four_.wav,p245,f,5,5,7.0,7.0,RX81,6,0.0,0.0,7.0,64.34149293193903,babble-reversed_n13_p229-three-p307-one-p256-five-p248-four-p284-nine-p245-six.wav,5,RX81,6,0.0,0.0,7.0,90.34149293193904,mgb_normalisation,90.34149293193902,90.34149293193902,4,2.0,False,2.2498345375061035
,2024-06-25 12:38:41,2,3,distance,cathedral,spatial_unmasking,4,147,0,0,_five_,talker-p245_sex-f_text-_five_.wav,p245,f,5,6,7.0,7.0,RX81,6,0.0,0.0,7.0,69.34149293193902,babble-reversed_n13_p229-three-p256-four-p307-nine-p248-five-p284-two-p268-six.wav,5,RX81,6,0.0,0.0,7.0,90.341492931939,mgb_normalisation,90.34149293193902,90.34149293193902,5,4.0,False,3.3122568130493164
,2024-06-25 12:38:45,2,3,distance,cathedral,spatial_unmasking,4,148,0,0,_one_,talker-p245_sex-f_text-_one_.wav,p245,f,5,7,7.0,7.0,RX81,6,0.0,0.0,7.0,74.341492931939,babble-reversed_n13_p307-nine-p318-two-p256-one-p245-three-p268-four-p248-eight.wav,5,RX81,6,0.0,0.0,7.0,90.341492931939,mgb_normalisation,90.34149293193902,90.34149293193902,1,3.0,False,2.0623481273651123
,2024-06-25 12:38:48,2,3,distance,cathedral,spatial_unmasking,4,149,0,0,_four_,talker-p245_sex-f_text-_four_.wav,p245,f,5,8,7.0,7.0,RX81,6,0.0,0.0,7.0,79.34149293193903,babble-reversed_n13_p229-five-p256-six-p307-three-p248-eight-p245-two-p284-four.wav,5,RX81,6,0.0,0.0,7.0,90.34149293193904,mgb_normalisation,90.34149293193902,90.34149293193902,4,4.0,True,1.0624220371246338
,2024-06-25 12:38:52,2,3,distance,cathedral,spatial_unmasking,4,150,0,0,_four_,talker-p245_sex-f_text-_four_.wav,p245,f,5,9,7.0,7.0,RX81,6,0.0,0.0,7.0,76.34149293193903,babble-reversed_n13_p229-three-p307-one-p256-five-p248-four-p284-nine-p245-six.wav,5,RX81,6,0.0,0.0,7.0,90.34149293193904,mgb_normalisation,90.34149293193902,90.34149293193902,4,2.0,False,1.7498714923858645
,2024-06-25 12:38:58,2,3,distance,cathedral,spatial_unmasking,4,151,0,0,_three_,talker-p245_sex-f_text-_three_.wav,p245,f,5,10,7.0,7.0,RX81,6,0.0,0.0,7.0,77.34149293193903,babble-reversed_n13_p318-three-p307-one-p256-five-p248-nine-p245-two-p284-eight.wav,5,RX81,6,0.0,0.0,7.0,90.34149293193904,mgb_normalisation,90.34149293193902,90.34149293193902,3,3.0,True,3.1247713565826416
,2024-06-25 12:39:01,2,3,distance,cathedral,spatial_unmasking,4,152,0,0,_four_,talker-p245_sex-f_text-_four_.wav,p245,f,5,11,7.0,7.0,RX81,6,0.0,0.0,7.0,76.34149293193903,babble-reversed_n13_p229-two-p307-five-p318-four-p284-one-p248-nine-p268-eight.wav,5,RX81,6,0.0,0.0,7.0,90.34149293193904,mgb_normalisation,90.34149293193902,90.34149293193902,4,1.0,False,1.374898910522461
,2024-06-25 12:39:05,2,3,distance,cathedral,spatial_unmasking,4,153,0,0,_three_,talker-p245_sex-f_text-_three_.wav,p245,f,5,12,7.0,7.0,RX81,6,0.0,0.0,7.0,77.34149293193903,babble-reversed_n13_p229-eight-p256-nine-p318-four-p245-three-p268-five-p284-two.wav,5,RX81,6,0.0,0.0,7.0,90.341492931939,mgb_normalisation,90.34149293193902,90.34149293193902,3,3.0,True,1.124966382980347
,2024-06-25 12:39:09,2,3,distance,cathedral,spatial_unmasking,4,154,0,0,_one_,talker-p245_sex-f_text-_one_.wav,p245,f,5,13,7.0,7.0,RX81,6,0.0,0.0,7.0,76.34149293193902,babble-reversed_n13_p256-five-p318-nine-p229-eight-p284-two-p248-six-p245-four.wav,5,RX81,6,0.0,0.0,7.0,90.341492931939,mgb_normalisation,90.34149293193902,90.34149293193902,1,4.0,False,2.062349319458008
,2024-06-25 12:39:13,2,3,distance,cathedral,spatial_unmasking,4,155,0,0,_three_,talker-p245_sex-f_text-_three_.wav,p245,f,5,14,7.0,7.0,RX81,6,0.0,0.0,7.0,77.34149293193903,babble-reversed_n13_p256-eight-p318-two-p307-five-p245-four-p268-nine-p284-one.wav,5,RX81,6,0.0,0.0,7.0,90.34149293193904,mgb_normalisation,90.34149293193902,90.34149293193902,3,3.0,True,1.3124516010284424
,2024-06-25 12:39:17,2,3,distance,cathedral,spatial_unmasking,4,156,0,0,_two_,talker-p245_sex-f_text-_two_.wav,p245,f,5,15,7.0,7.0,RX81,6,0.0,0.0,7.0,76.341492931939,babble-reversed_n13_p318-five-p229-three-p256-four-p268-eight-p248-one-p245-nine.wav,5,RX81,6,0.0,0.0,7.0,90.34149293193904,mgb_normalisation,90.34149293193902,90.34149293193902,2,1.0,False,1.4373936653137207
,2024-06-25 12:39:21,2,3,distance,cathedral,spatial_unmasking,4,157,0,0,_one_,talker-p245_sex-f_text-_one_.wav,p245,f,5,16,7.0,7.0,RX81,6,0.0,0.0,7.0,77.341492931939,babble-reversed_n13_p318-two-p307-three-p256-one-p284-nine-p248-six-p268-five.wav,5,RX81,6,0.0,0.0,7.0,90.34149293193904,mgb_normalisation,90.34149293193902,90.34149293193902,1,2.0,False,2.124844551086426
,2024-06-25 12:39:24,2,3,distance,cathedral,spatial_unmasking,4,158,0,0,_four_,talker-p245_sex-f_text-_four_.wav,p245,f,5,17,7.0,7.0,RX81,6,0.0,0.0,7.0,78.34149293193902,babble-reversed_n13_p256-two-p307-five-p318-nine-p248-eight-p245-four-p284-one.wav,5,RX81,6,0.0,0.0,7.0,90.34149293193904,mgb_normalisation,90.34149293193902,90.34149293193902,4,4.0,True,0.9999525547027588
,2024-06-25 12:39:28,2,3,distance,cathedral,spatial_unmasking,4,159,0,0,_four_,talker-p245_sex-f_text-_four_.wav,p245,f,5,18,7.0,7.0,RX81,6,0.0,0.0,7.0,77.34149293193903,babble-reversed_n13_p318-five-p256-nine-p307-eight-p248-two-p245-four-p284-three.wav,5,RX81,6,0.0,0.0,7.0,90.34149293193904,mgb_normalisation,90.34149293193902,90.34149293193902,4,2.0,False,1.5623857975006104
,2024-06-25 12:39:32,2,3,distance,cathedral,spatial_unmasking,4,160,0,0,_one_,talker-p245_sex-f_text-_one_.wav,p245,f,5,19,7.0,7.0,RX81,6,0.0,0.0,7.0,78.341492931939,babble-reversed_n13_p229-five-p318-two-p307-eight-p268-three-p248-four-p245-one.wav,5,RX81,6,0.0,0.0,7.0,90.34149293193904,mgb_normalisation,90.34149293193902,90.34149293193902,1,4.0,False,1.8748626708984373
,2024-06-25 12:39:36,2,3,distance,cathedral,spatial_unmasking,4,161,0,0,_one_,talker-p245_sex-f_text-_one_.wav,p245,f,5,20,7.0,7.0,RX81,6,0.0,0.0,7.0,79.341492931939,babble-reversed_n13_p229-two-p256-three-p318-eight-p284-five-p268-four-p245-one.wav,5,RX81,6,0.0,0.0,7.0,90.34149293193904,mgb_normalisation,90.34149293193902,90.34149293193902,1,3.0,False,1.5623207092285156
,2024-06-25 12:39:40,2,3,distance,cathedral,spatial_unmasking,4,162,0,0,_four_,talker-p245_sex-f_text-_four_.wav,p245,f,5,21,7.0,7.0,RX81,6,0.0,0.0,7.0,80.34149293193903,babble-reversed_n13_p318-five-p229-three-p256-four-p268-eight-p248-one-p245-nine.wav,5,RX81,6,0.0,0.0,7.0,90.34149293193904,mgb_normalisation,90.34149293193902,90.34149293193902,4,1.0,False,1.562385320663452
,2024-06-25 12:39:45,2,3,distance,cathedral,spatial_unmasking,4,163,0,0,_three_,talker-p245_sex-f_text-_three_.wav,p245,f,5,22,7.0,7.0,RX81,6,0.0,0.0,7.0,81.34149293193902,babble-reversed_n13_p318-five-p256-nine-p307-eight-p248-two-p245-four-p284-three.wav,5,RX81,6,0.0,0.0,7.0,90.34149293193904,mgb_normalisation,90.34149293193902,90.34149293193902,3,3.0,True,2.249841928482056
,2024-06-25 12:39:48,2,3,distance,cathedral,spatial_unmasking,4,164,0,0,_three_,talker-p245_sex-f_text-_three_.wav,p245,f,5,23,7.0,7.0,RX81,6,0.0,0.0,7.0,80.34149293193903,babble-reversed_n13_p256-nine-p307-one-p318-three-p248-two-p284-eight-p268-six.wav,5,RX81,6,0.0,0.0,7.0,90.34149293193904,mgb_normalisation,90.34149293193902,90.34149293193902,3,3.0,True,1.4998319149017334
,2024-06-25 12:39:53,2,3,distance,cathedral,spatial_unmasking,4,165,0,0,_one_,talker-p245_sex-f_text-_one_.wav,p245,f,5,24,7.0,7.0,RX81,6,0.0,0.0,7.0,79.341492931939,babble-reversed_n13_p256-nine-p307-four-p229-one-p284-three-p248-two-p245-five.wav,5,RX81,6,0.0,0.0,7.0,90.34149293193904,mgb_normalisation,90.34149293193902,90.34149293193902,1,1.0,True,2.624753952026367
,2024-06-25 12:39:57,2,3,distance,cathedral,spatial_unmasking,4,166,0,0,_two_,talker-p245_sex-f_text-_two_.wav,p245,f,5,25,7.0,7.0,RX81,6,0.0,0.0,7.0,78.341492931939,babble-reversed_n13_p318-five-p256-nine-p307-eight-p248-two-p245-four-p284-three.wav,5,RX81,6,0.0,0.0,7.0,90.34149293193904,mgb_normalisation,90.34149293193902,90.34149293193902,2,2.0,True,1.6248810291290283
,2024-06-25 12:40:01,2,3,distance,cathedral,spatial_unmasking,4,167,0,0,_two_,talker-p245_sex-f_text-_two_.wav,p245,f,5,26,7.0,7.0,RX81,6,0.0,0.0,7.0,77.341492931939,babble-reversed_n13_p229-five-p318-three-p307-two-p245-four-p284-nine-p248-eight.wav,5,RX81,6,0.0,0.0,7.0,90.34149293193904,mgb_normalisation,90.34149293193902,90.34149293193902,2,4.0,False,1.2499098777770996
,2024-06-25 12:40:05,2,3,distance,cathedral,spatial_unmasking,4,168,0,0,_one_,talker-p245_sex-f_text-_one_.wav,p245,f,5,27,7.0,7.0,RX81,6,0.0,0.0,7.0,78.341492931939,babble-reversed_n13_p229-five-p256-three-p318-nine-p248-two-p284-four-p268-one.wav,5,RX81,6,0.0,0.0,7.0,90.34149293193904,mgb_normalisation,90.34149293193902,90.34149293193902,1,1.0,True,1.9373576641082764
,2024-06-25 12:40:11,2,3,distance,cathedral,spatial_unmasking,4,169,0,0,_five_,talker-p245_sex-f_text-_five_.wav,p245,f,5,28,7.0,7.0,RX81,6,0.0,0.0,7.0,77.34149293193902,babble-reversed_n13_p256-eight-p229-three-p307-nine-p245-five-p248-four-p268-two.wav,5,RX81,6,0.0,0.0,7.0,90.341492931939,mgb_normalisation,90.34149293193902,90.34149293193902,5,5.0,True,4.06220293045044
,2024-06-25 12:40:15,2,3,distance,cathedral,spatial_unmasking,4,170,0,0,_four_,talker-p245_sex-f_text-_four_.wav,p245,f,5,29,7.0,7.0,RX81,6,0.0,0.0,7.0,76.34149293193903,babble-reversed_n13_p229-nine-p318-one-p307-two-p248-eight-p245-five-p284-four.wav,5,RX81,6,0.0,0.0,7.0,90.34149293193904,mgb_normalisation,90.34149293193902,90.34149293193902,4,1.0,False,1.5623908042907717
,2024-06-25 12:40:20,2,3,distance,cathedral,spatial_unmasking,4,171,0,0,_one_,talker-p245_sex-f_text-_one_.wav,p245,f,5,30,7.0,7.0,RX81,6,0.0,0.0,7.0,77.341492931939,babble-reversed_n13_p229-one-p318-eight-p256-three-p268-nine-p248-five-p284-four.wav,5,RX81,6,0.0,0.0,7.0,90.341492931939,mgb_normalisation,90.34149293193902,90.34149293193902,1,1.0,True,2.999778985977173
,2024-06-25 12:40:24,2,3,distance,cathedral,spatial_unmasking,5,172,0,0,_five_,talker-p245_sex-f_text-_five_.wav,p245,f,5,1,8.0,7.0,RX81,6,0.0,0.0,7.0,92.34149293193902,babble-reversed_n13_p318-nine-p229-two-p256-eight-p268-four-p284-six-p245-three.wav,6,RX81,7,0.0,0.0,8.0,91.58892582949886,mgb_normalisation,91.58892582949886,90.34149293193902,5,5.0,True,1.562387228012085
,2024-06-25 12:40:28,2,3,distance,cathedral,spatial_unmasking,5,173,0,0,_one_,talker-p245_sex-f_text-_one_.wav,p245,f,5,2,8.0,7.0,RX81,6,0.0,0.0,7.0,85.341492931939,babble-reversed_n13_p256-five-p318-nine-p229-eight-p284-two-p248-six-p245-four.wav,6,RX81,7,0.0,0.0,8.0,91.58892582949886,mgb_normalisation,91.58892582949886,90.34149293193902,1,1.0,True,1.12491774559021
,2024-06-25 12:40:32,2,3,distance,cathedral,spatial_unmasking,5,174,0,0,_four_,talker-p245_sex-f_text-_four_.wav,p245,f,5,3,8.0,7.0,RX81,6,0.0,0.0,7.0,78.34149293193902,babble-reversed_n13_p229-eight-p256-nine-p318-four-p245-three-p268-five-p284-two.wav,6,RX81,7,0.0,0.0,8.0,91.58892582949886,mgb_normalisation,91.58892582949886,90.34149293193902,4,4.0,True,1.2499079704284668
,2024-06-25 12:40:36,2,3,distance,cathedral,spatial_unmasking,5,175,0,0,_three_,talker-p245_sex-f_text-_three_.wav,p245,f,5,4,8.0,7.0,RX81,6,0.0,0.0,7.0,71.34149293193902,babble-reversed_n13_p307-two-p229-one-p256-five-p248-nine-p284-three-p268-eight.wav,6,RX81,7,0.0,0.0,8.0,91.58892582949888,mgb_normalisation,91.58892582949886,90.34149293193902,3,1.0,False,1.6873230934143066
,2024-06-25 12:40:40,2,3,distance,cathedral,spatial_unmasking,5,176,0,0,_three_,talker-p245_sex-f_text-_three_.wav,p245,f,5,5,8.0,7.0,RX81,6,0.0,0.0,7.0,76.34149293193902,babble-reversed_n13_p229-nine-p318-one-p307-two-p248-eight-p245-five-p284-four.wav,6,RX81,7,0.0,0.0,8.0,91.58892582949886,mgb_normalisation,91.58892582949886,90.34149293193902,3,3.0,True,1.499889612197876
,2024-06-25 12:40:44,2,3,distance,cathedral,spatial_unmasking,5,177,0,0,_three_,talker-p245_sex-f_text-_three_.wav,p245,f,5,6,8.0,7.0,RX81,6,0.0,0.0,7.0,73.34149293193902,babble-reversed_n13_p229-five-p256-three-p318-nine-p248-two-p284-four-p268-one.wav,6,RX81,7,0.0,0.0,8.0,91.58892582949888,mgb_normalisation,91.58892582949886,90.34149293193902,3,4.0,False,1.812307834625244
,2024-06-25 12:40:47,2,3,distance,cathedral,spatial_unmasking,5,178,0,0,_three_,talker-p245_sex-f_text-_three_.wav,p245,f,5,7,8.0,7.0,RX81,6,0.0,0.0,7.0,74.34149293193902,babble-reversed_n13_p256-four-p229-eight-p307-five-p248-three-p245-one-p284-two.wav,6,RX81,7,0.0,0.0,8.0,91.58892582949886,mgb_normalisation,91.58892582949886,90.34149293193902,3,3.0,True,1.3124029636383057
,2024-06-25 12:40:52,2,3,distance,cathedral,spatial_unmasking,5,179,0,0,_three_,talker-p245_sex-f_text-_three_.wav,p245,f,5,8,8.0,7.0,RX81,6,0.0,0.0,7.0,73.34149293193902,babble-reversed_n13_p256-five-p229-four-p307-nine-p268-eight-p284-two-p245-six.wav,6,RX81,7,0.0,0.0,8.0,91.58892582949886,mgb_normalisation,91.58892582949886,90.34149293193902,3,2.0,False,2.0623486042022705
,2024-06-25 12:40:56,2,3,distance,cathedral,spatial_unmasking,5,180,0,0,_five_,talker-p245_sex-f_text-_five_.wav,p245,f,5,9,8.0,7.0,RX81,6,0.0,0.0,7.0,74.34149293193902,babble-reversed_n13_p318-five-p229-three-p256-four-p268-eight-p248-one-p245-nine.wav,6,RX81,7,0.0,0.0,8.0,91.58892582949888,mgb_normalisation,91.58892582949886,90.34149293193902,5,1.0,False,1.3124029636383057
,2024-06-25 12:41:00,2,3,distance,cathedral,spatial_unmasking,5,181,0,0,_two_,talker-p245_sex-f_text-_two_.wav,p245,f,5,10,8.0,7.0,RX81,6,0.0,0.0,7.0,75.341492931939,babble-reversed_n13_p307-one-p318-five-p256-nine-p248-eight-p284-six-p245-three.wav,6,RX81,7,0.0,0.0,8.0,91.58892582949886,mgb_normalisation,91.58892582949886,90.34149293193902,2,2.0,True,1.562398910522461
,2024-06-25 12:41:03,2,3,distance,cathedral,spatial_unmasking,5,182,0,0,_two_,talker-p245_sex-f_text-_two_.wav,p245,f,5,11,8.0,7.0,RX81,6,0.0,0.0,7.0,74.341492931939,babble-reversed_n13_p307-five-p229-three-p318-nine-p245-four-p268-eight-p284-two.wav,6,RX81,7,0.0,0.0,8.0,91.58892582949886,mgb_normalisation,91.58892582949886,90.34149293193902,2,3.0,False,1.3748986721038818
,2024-06-25 12:41:07,2,3,distance,cathedral,spatial_unmasking,5,183,0,0,_five_,talker-p245_sex-f_text-_five_.wav,p245,f,5,12,8.0,7.0,RX81,6,0.0,0.0,7.0,75.34149293193902,babble-reversed_n13_p256-nine-p307-one-p318-three-p248-two-p284-eight-p268-six.wav,6,RX81,7,0.0,0.0,8.0,91.58892582949886,mgb_normalisation,91.58892582949886,90.34149293193902,5,5.0,True,1.1874127388000488
,2024-06-25 12:41:12,2,3,distance,cathedral,spatial_unmasking,5,184,0,0,_three_,talker-p245_sex-f_text-_three_.wav,p245,f,5,13,8.0,7.0,RX81,6,0.0,0.0,7.0,74.34149293193902,babble-reversed_n13_p229-three-p307-one-p256-five-p248-four-p284-nine-p245-six.wav,6,RX81,7,0.0,0.0,8.0,91.58892582949888,mgb_normalisation,91.58892582949886,90.34149293193902,3,2.0,False,2.937284469604492
,2024-06-25 12:41:17,2,3,distance,cathedral,spatial_unmasking,5,185,0,0,_four_,talker-p245_sex-f_text-_four_.wav,p245,f,5,14,8.0,7.0,RX81,6,0.0,0.0,7.0,75.34149293193903,babble-reversed_n13_p229-two-p307-five-p318-four-p284-one-p248-nine-p268-eight.wav,6,RX81,7,0.0,0.0,8.0,91.58892582949888,mgb_normalisation,91.58892582949886,90.34149293193902,4,1.0,False,2.874789237976074
,2024-06-25 12:41:22,2,3,distance,cathedral,spatial_unmasking,5,186,0,0,_four_,talker-p245_sex-f_text-_four_.wav,p245,f,5,15,8.0,7.0,RX81,6,0.0,0.0,7.0,76.34149293193903,babble-reversed_n13_p307-four-p318-three-p256-eight-p284-two-p245-nine-p248-five.wav,6,RX81,7,0.0,0.0,8.0,91.58892582949886,mgb_normalisation,91.58892582949886,90.34149293193902,4,3.0,False,1.937359094619751
,2024-06-25 12:41:26,2,3,distance,cathedral,spatial_unmasking,5,187,0,0,_five_,talker-p245_sex-f_text-_five_.wav,p245,f,5,16,8.0,7.0,RX81,6,0.0,0.0,7.0,77.34149293193902,babble-reversed_n13_p256-three-p318-one-p307-two-p284-nine-p268-four-p245-eight.wav,6,RX81,7,0.0,0.0,8.0,91.58892582949888,mgb_normalisation,91.58892582949886,90.34149293193902,5,2.0,False,1.437394618988037
,2024-06-25 12:41:30,2,3,distance,cathedral,spatial_unmasking,5,188,0,0,_three_,talker-p245_sex-f_text-_three_.wav,p245,f,5,17,8.0,7.0,RX81,6,0.0,0.0,7.0,78.34149293193902,babble-reversed_n13_p229-five-p256-three-p318-nine-p248-two-p284-four-p268-one.wav,6,RX81,7,0.0,0.0,8.0,91.58892582949888,mgb_normalisation,91.58892582949886,90.34149293193902,3,1.0,False,2.0623490810394287
,2024-06-25 12:41:35,2,3,distance,cathedral,spatial_unmasking,5,189,0,0,_three_,talker-p245_sex-f_text-_three_.wav,p245,f,5,18,8.0,7.0,RX81,6,0.0,0.0,7.0,79.34149293193902,babble-reversed_n13_p307-nine-p318-four-p229-five-p268-one-p245-eight-p284-six.wav,6,RX81,7,0.0,0.0,8.0,91.58892582949888,mgb_normalisation,91.58892582949886,90.34149293193902,3,4.0,False,2.0623486042022705
,2024-06-25 12:41:38,2,3,distance,cathedral,spatial_unmasking,5,190,0,0,_five_,talker-p245_sex-f_text-_five_.wav,p245,f,5,19,8.0,7.0,RX81,6,0.0,0.0,7.0,80.34149293193903,babble-reversed_n13_p229-five-p256-one-p318-three-p248-nine-p268-four-p284-eight.wav,6,RX81,7,0.0,0.0,8.0,91.58892582949886,mgb_normalisation,91.58892582949886,90.34149293193902,5,5.0,True,0.8749353885650635
,2024-06-25 12:41:42,2,3,distance,cathedral,spatial_unmasking,5,191,0,0,_three_,talker-p245_sex-f_text-_three_.wav,p245,f,5,20,8.0,7.0,RX81,6,0.0,0.0,7.0,79.34149293193902,babble-reversed_n13_p229-five-p256-six-p307-three-p248-eight-p245-two-p284-four.wav,6,RX81,7,0.0,0.0,8.0,91.58892582949888,mgb_normalisation,91.58892582949886,90.34149293193902,3,3.0,True,1.62488055229187
,2024-06-25 12:41:45,2,3,distance,cathedral,spatial_unmasking,5,192,0,0,_three_,talker-p245_sex-f_text-_three_.wav,p245,f,5,21,8.0,7.0,RX81,6,0.0,0.0,7.0,78.34149293193902,babble-reversed_n13_p229-five-p256-six-p307-three-p248-eight-p245-two-p284-four.wav,6,RX81,7,0.0,0.0,8.0,91.58892582949888,mgb_normalisation,91.58892582949886,90.34149293193902,3,3.0,True,0.9374301433563232
,2024-06-25 12:41:49,2,3,distance,cathedral,spatial_unmasking,5,193,0,0,_two_,talker-p245_sex-f_text-_two_.wav,p245,f,5,22,8.0,7.0,RX81,6,0.0,0.0,7.0,77.341492931939,babble-reversed_n13_p318-three-p307-one-p256-five-p248-nine-p245-two-p284-eight.wav,6,RX81,7,0.0,0.0,8.0,91.58892582949888,mgb_normalisation,91.58892582949886,90.34149293193902,2,2.0,True,1.6249065399169922
,2024-06-25 12:41:55,2,3,distance,cathedral,spatial_unmasking,5,194,0,0,_one_,talker-p245_sex-f_text-_one_.wav,p245,f,5,23,8.0,7.0,RX81,6,0.0,0.0,7.0,76.34149293193902,babble-reversed_n13_p229-three-p307-one-p256-five-p248-four-p284-nine-p245-six.wav,6,RX81,7,0.0,0.0,8.0,91.58892582949888,mgb_normalisation,91.58892582949886,90.34149293193902,1,4.0,False,2.9997801780700684
,2024-06-25 12:41:58,2,3,distance,cathedral,spatial_unmasking,5,195,0,0,_five_,talker-p245_sex-f_text-_five_.wav,p245,f,5,24,8.0,7.0,RX81,6,0.0,0.0,7.0,77.34149293193902,babble-reversed_n13_p229-five-p256-six-p307-three-p248-eight-p245-two-p284-four.wav,6,RX81,7,0.0,0.0,8.0,91.58892582949888,mgb_normalisation,91.58892582949886,90.34149293193902,5,5.0,True,0.937432050704956
,2024-06-25 12:42:01,2,3,distance,cathedral,spatial_unmasking,5,196,0,0,_five_,talker-p245_sex-f_text-_five_.wav,p245,f,5,25,8.0,7.0,RX81,6,0.0,0.0,7.0,76.34149293193902,babble-reversed_n13_p229-five-p318-two-p307-eight-p268-three-p248-four-p245-one.wav,6,RX81,7,0.0,0.0,8.0,91.58892582949888,mgb_normalisation,91.58892582949886,90.34149293193902,5,5.0,True,1.187434196472168
,2024-06-25 12:42:06,2,3,distance,cathedral,spatial_unmasking,5,197,0,0,_one_,talker-p245_sex-f_text-_one_.wav,p245,f,5,26,8.0,7.0,RX81,6,0.0,0.0,7.0,75.341492931939,babble-reversed_n13_p307-eight-p256-one-p318-nine-p245-three-p248-four-p268-six.wav,6,RX81,7,0.0,0.0,8.0,91.58892582949888,mgb_normalisation,91.58892582949886,90.34149293193902,1,1.0,True,2.562312126159668
,2024-06-25 12:42:10,2,3,distance,cathedral,spatial_unmasking,5,198,0,0,_five_,talker-p245_sex-f_text-_five_.wav,p245,f,5,27,8.0,7.0,RX81,6,0.0,0.0,7.0,74.34149293193902,babble-reversed_n13_p256-four-p229-eight-p307-five-p248-three-p245-one-p284-two.wav,6,RX81,7,0.0,0.0,8.0,91.58892582949886,mgb_normalisation,91.58892582949886,90.34149293193902,5,3.0,False,1.2499072551727295
,2024-06-25 12:42:15,2,3,distance,cathedral,spatial_unmasking,5,199,0,0,_three_,talker-p245_sex-f_text-_three_.wav,p245,f,5,28,8.0,7.0,RX81,6,0.0,0.0,7.0,75.34149293193903,babble-reversed_n13_p229-nine-p256-four-p318-three-p268-eight-p248-two-p284-five.wav,6,RX81,7,0.0,0.0,8.0,91.58892582949888,mgb_normalisation,91.58892582949886,90.34149293193902,3,1.0,False,2.99977970123291
,2024-06-25 12:42:19,2,3,distance,cathedral,spatial_unmasking,5,200,0,0,_one_,talker-p245_sex-f_text-_one_.wav,p245,f,5,29,8.0,7.0,RX81,6,0.0,0.0,7.0,76.34149293193902,babble-reversed_n13_p229-nine-p318-one-p307-two-p248-eight-p245-five-p284-four.wav,6,RX81,7,0.0,0.0,8.0,91.58892582949886,mgb_normalisation,91.58892582949886,90.34149293193902,1,2.0,False,1.4373948574066162
,2024-06-25 12:42:23,2,3,distance,cathedral,spatial_unmasking,5,201,0,0,_four_,talker-p245_sex-f_text-_four_.wav,p245,f,5,30,8.0,7.0,RX81,6,0.0,0.0,7.0,77.34149293193903,babble-reversed_n13_p229-one-p318-eight-p256-three-p268-two-p245-five-p248-nine.wav,6,RX81,7,0.0,0.0,8.0,91.58892582949886,mgb_normalisation,91.58892582949886,90.34149293193902,4,3.0,False,1.187412977218628
,2024-06-25 12:42:26,2,3,distance,cathedral,spatial_unmasking,5,202,0,0,_five_,talker-p245_sex-f_text-_five_.wav,p245,f,5,31,8.0,7.0,RX81,6,0.0,0.0,7.0,78.34149293193902,babble-reversed_n13_p229-two-p318-eight-p256-three-p268-one-p248-nine-p284-five.wav,6,RX81,7,0.0,0.0,8.0,91.58892582949886,mgb_normalisation,91.58892582949886,90.34149293193902,5,5.0,True,0.9999263286590576
,2024-06-25 12:42:30,2,3,distance,cathedral,spatial_unmasking,5,203,0,0,_two_,talker-p245_sex-f_text-_two_.wav,p245,f,5,32,8.0,7.0,RX81,6,0.0,0.0,7.0,77.341492931939,babble-reversed_n13_p229-three-p256-four-p307-nine-p248-five-p284-two-p268-six.wav,6,RX81,7,0.0,0.0,8.0,91.58892582949886,mgb_normalisation,91.58892582949886,90.34149293193902,2,2.0,True,1.6248302459716797
,2024-06-25 12:42:35,2,3,distance,cathedral,spatial_unmasking,5,204,0,0,_one_,talker-p245_sex-f_text-_one_.wav,p245,f,5,33,8.0,7.0,RX81,6,0.0,0.0,7.0,76.34149293193902,babble-reversed_n13_p256-five-p229-four-p307-nine-p268-eight-p284-two-p245-six.wav,6,RX81,7,0.0,0.0,8.0,91.58892582949886,mgb_normalisation,91.58892582949886,90.34149293193902,1,2.0,False,2.062378406524658
,2024-06-25 12:42:39,2,3,distance,cathedral,spatial_unmasking,5,205,0,0,_one_,talker-p245_sex-f_text-_one_.wav,p245,f,5,34,8.0,7.0,RX81,6,0.0,0.0,7.0,77.341492931939,babble-reversed_n13_p256-eight-p318-two-p307-five-p245-four-p268-nine-p284-one.wav,6,RX81,7,0.0,0.0,8.0,91.58892582949888,mgb_normalisation,91.58892582949886,90.34149293193902,1,1.0,True,1.874861717224121
,2024-06-25 12:42:43,2,3,distance,cathedral,spatial_unmasking,6,206,0,0,_three_,talker-p245_sex-f_text-_three_.wav,p245,f,5,1,2.0,7.0,RX81,6,0.0,0.0,7.0,92.34149293193902,babble-reversed_n13_p229-three-p256-four-p307-nine-p248-five-p284-two-p268-six.wav,0,RX81,1,0.0,0.0,2.0,84.40078082039426,mgb_normalisation,84.40078082039426,90.34149293193902,3,3.0,True,1.6248273849487305
,2024-06-25 12:42:47,2,3,distance,cathedral,spatial_unmasking,6,207,0,0,_five_,talker-p245_sex-f_text-_five_.wav,p245,f,5,2,2.0,7.0,RX81,6,0.0,0.0,7.0,85.34149293193903,babble-reversed_n13_p307-five-p229-two-p318-four-p248-three-p245-nine-p268-eight.wav,0,RX81,1,0.0,0.0,2.0,84.40078082039426,mgb_normalisation,84.40078082039426,90.34149293193902,5,5.0,True,1.3748998641967771
,2024-06-25 12:42:52,2,3,distance,cathedral,spatial_unmasking,6,208,0,0,_five_,talker-p245_sex-f_text-_five_.wav,p245,f,5,3,2.0,7.0,RX81,6,0.0,0.0,7.0,78.34149293193902,babble-reversed_n13_p229-five-p318-two-p307-eight-p268-three-p248-four-p245-one.wav,0,RX81,1,0.0,0.0,2.0,84.40078082039427,mgb_normalisation,84.40078082039426,90.34149293193902,5,1.0,False,2.437321662902832
,2024-06-25 12:42:55,2,3,distance,cathedral,spatial_unmasking,6,209,0,0,_two_,talker-p245_sex-f_text-_two_.wav,p245,f,5,4,2.0,7.0,RX81,6,0.0,0.0,7.0,83.34149293193902,babble-reversed_n13_p229-one-p318-three-p307-four-p284-nine-p268-five-p248-six.wav,0,RX81,1,0.0,0.0,2.0,84.40078082039426,mgb_normalisation,84.40078082039426,90.34149293193902,2,2.0,True,1.3748996257781982
,2024-06-25 12:42:59,2,3,distance,cathedral,spatial_unmasking,6,210,0,0,_two_,talker-p245_sex-f_text-_two_.wav,p245,f,5,5,2.0,7.0,RX81,6,0.0,0.0,7.0,80.341492931939,babble-reversed_n13_p256-four-p307-eight-p318-two-p248-three-p284-nine-p268-one.wav,0,RX81,1,0.0,0.0,2.0,84.40078082039427,mgb_normalisation,84.40078082039426,90.34149293193902,2,2.0,True,1.249908208847046
,2024-06-25 12:43:03,2,3,distance,cathedral,spatial_unmasking,6,211,0,0,_two_,talker-p245_sex-f_text-_two_.wav,p245,f,5,6,2.0,7.0,RX81,6,0.0,0.0,7.0,77.341492931939,babble-reversed_n13_p256-three-p318-one-p307-two-p284-nine-p268-four-p245-eight.wav,0,RX81,1,0.0,0.0,2.0,84.40078082039426,mgb_normalisation,84.40078082039426,90.34149293193902,2,2.0,True,1.2498457431793213
,2024-06-25 12:43:06,2,3,distance,cathedral,spatial_unmasking,6,212,0,0,_four_,talker-p245_sex-f_text-_four_.wav,p245,f,5,7,2.0,7.0,RX81,6,0.0,0.0,7.0,74.34149293193903,babble-reversed_n13_p229-nine-p256-four-p318-three-p268-eight-p248-two-p284-five.wav,0,RX81,1,0.0,0.0,2.0,84.40078082039426,mgb_normalisation,84.40078082039426,90.34149293193902,4,3.0,False,1.3123438358306885
,2024-06-25 12:43:10,2,3,distance,cathedral,spatial_unmasking,6,213,0,0,_one_,talker-p245_sex-f_text-_one_.wav,p245,f,5,8,2.0,7.0,RX81,6,0.0,0.0,7.0,75.341492931939,babble-reversed_n13_p229-one-p318-eight-p256-three-p268-two-p245-five-p248-nine.wav,0,RX81,1,0.0,0.0,2.0,84.40078082039426,mgb_normalisation,84.40078082039426,90.34149293193902,1,3.0,False,1.3748974800109863
,2024-06-25 12:43:14,2,3,distance,cathedral,spatial_unmasking,6,214,0,0,_three_,talker-p245_sex-f_text-_three_.wav,p245,f,5,9,2.0,7.0,RX81,6,0.0,0.0,7.0,76.34149293193902,babble-reversed_n13_p229-five-p256-three-p318-nine-p248-two-p284-four-p268-one.wav,0,RX81,1,0.0,0.0,2.0,84.40078082039427,mgb_normalisation,84.40078082039426,90.34149293193902,3,3.0,True,1.062422275543213
,2024-06-25 12:43:18,2,3,distance,cathedral,spatial_unmasking,6,215,0,0,_five_,talker-p245_sex-f_text-_five_.wav,p245,f,5,10,2.0,7.0,RX81,6,0.0,0.0,7.0,75.34149293193902,babble-reversed_n13_p318-five-p256-nine-p307-two-p245-eight-p248-one-p284-four.wav,0,RX81,1,0.0,0.0,2.0,84.40078082039427,mgb_normalisation,84.40078082039426,90.34149293193902,5,2.0,False,1.6873772144317627
,2024-06-25 12:43:22,2,3,distance,cathedral,spatial_unmasking,6,216,0,0,_five_,talker-p245_sex-f_text-_five_.wav,p245,f,5,11,2.0,7.0,RX81,6,0.0,0.0,7.0,76.34149293193902,babble-reversed_n13_p256-four-p229-two-p318-five-p268-one-p248-eight-p245-three.wav,0,RX81,1,0.0,0.0,2.0,84.40078082039426,mgb_normalisation,84.40078082039426,90.34149293193902,5,1.0,False,2.0623254776000977
,2024-06-25 12:43:26,2,3,distance,cathedral,spatial_unmasking,6,217,0,0,_five_,talker-p245_sex-f_text-_five_.wav,p245,f,5,12,2.0,7.0,RX81,6,0.0,0.0,7.0,77.34149293193902,babble-reversed_n13_p318-nine-p256-five-p307-eight-p268-three-p248-one-p245-four.wav,0,RX81,1,0.0,0.0,2.0,84.40078082039426,mgb_normalisation,84.40078082039426,90.34149293193902,5,5.0,True,0.937431812286377
,2024-06-25 12:43:29,2,3,distance,cathedral,spatial_unmasking,6,218,0,0,_four_,talker-p245_sex-f_text-_four_.wav,p245,f,5,13,2.0,7.0,RX81,6,0.0,0.0,7.0,76.34149293193903,babble-reversed_n13_p229-two-p307-five-p318-four-p284-one-p248-nine-p268-eight.wav,0,RX81,1,0.0,0.0,2.0,84.40078082039426,mgb_normalisation,84.40078082039426,90.34149293193902,4,2.0,False,1.4998912811279297
,2024-06-25 12:43:33,2,3,distance,cathedral,spatial_unmasking,6,219,0,0,_one_,talker-p245_sex-f_text-_one_.wav,p245,f,5,14,2.0,7.0,RX81,6,0.0,0.0,7.0,77.341492931939,babble-reversed_n13_p307-nine-p229-one-p256-eight-p248-four-p284-two-p268-three.wav,0,RX81,1,0.0,0.0,2.0,84.40078082039426,mgb_normalisation,84.40078082039426,90.34149293193902,1,3.0,False,0.9999268054962158
,2024-06-25 12:43:37,2,3,distance,cathedral,spatial_unmasking,6,220,0,0,_four_,talker-p245_sex-f_text-_four_.wav,p245,f,5,15,2.0,7.0,RX81,6,0.0,0.0,7.0,78.34149293193902,babble-reversed_n13_p307-two-p318-four-p256-one-p248-nine-p245-six-p284-eight.wav,0,RX81,1,0.0,0.0,2.0,84.40078082039426,mgb_normalisation,84.40078082039426,90.34149293193902,4,2.0,False,1.7498724460601809
,2024-06-25 12:43:41,2,3,distance,cathedral,spatial_unmasking,6,221,0,0,_three_,talker-p245_sex-f_text-_three_.wav,p245,f,5,16,2.0,7.0,RX81,6,0.0,0.0,7.0,79.34149293193902,babble-reversed_n13_p307-five-p229-two-p318-four-p248-three-p245-nine-p268-eight.wav,0,RX81,1,0.0,0.0,2.0,84.40078082039426,mgb_normalisation,84.40078082039426,90.34149293193902,3,3.0,True,1.1874127388000488
,2024-06-25 12:43:46,2,3,distance,cathedral,spatial_unmasking,6,222,0,0,_four_,talker-p245_sex-f_text-_four_.wav,p245,f,5,17,2.0,7.0,RX81,6,0.0,0.0,7.0,78.34149293193902,babble-reversed_n13_p318-eight-p307-five-p229-four-p268-two-p245-six-p248-three.wav,0,RX81,1,0.0,0.0,2.0,84.40078082039426,mgb_normalisation,84.40078082039426,90.34149293193902,4,2.0,False,3.3122572898864746
,2024-06-25 12:43:50,2,3,distance,cathedral,spatial_unmasking,6,223,0,0,_four_,talker-p245_sex-f_text-_four_.wav,p245,f,5,18,2.0,7.0,RX81,6,0.0,0.0,7.0,79.34149293193903,babble-reversed_n13_p307-eight-p256-one-p318-nine-p245-three-p248-four-p268-six.wav,0,RX81,1,0.0,0.0,2.0,84.40078082039427,mgb_normalisation,84.40078082039426,90.34149293193902,4,4.0,True,1.312403678894043
,2024-06-25 12:43:54,2,3,distance,cathedral,spatial_unmasking,6,224,0,0,_one_,talker-p245_sex-f_text-_one_.wav,p245,f,5,19,2.0,7.0,RX81,6,0.0,0.0,7.0,78.341492931939,babble-reversed_n13_p307-two-p229-three-p256-one-p284-five-p268-six-p248-nine.wav,0,RX81,1,0.0,0.0,2.0,84.40078082039426,mgb_normalisation,84.40078082039426,90.34149293193902,1,1.0,True,1.2499103546142578
,2024-06-25 12:43:59,2,3,distance,cathedral,spatial_unmasking,6,225,0,0,_one_,talker-p245_sex-f_text-_one_.wav,p245,f,5,20,2.0,7.0,RX81,6,0.0,0.0,7.0,77.341492931939,babble-reversed_n13_p256-two-p307-five-p318-nine-p248-eight-p245-four-p284-one.wav,0,RX81,1,0.0,0.0,2.0,84.40078082039426,mgb_normalisation,84.40078082039426,90.34149293193902,1,2.0,False,2.874788522720337
,2024-06-25 12:44:03,2,3,distance,cathedral,spatial_unmasking,6,226,0,0,_four_,talker-p245_sex-f_text-_four_.wav,p245,f,5,21,2.0,7.0,RX81,6,0.0,0.0,7.0,78.34149293193902,babble-reversed_n13_p318-nine-p229-two-p256-eight-p268-four-p284-six-p245-three.wav,0,RX81,1,0.0,0.0,2.0,84.40078082039426,mgb_normalisation,84.40078082039426,90.34149293193902,4,4.0,True,1.249908447265625
,2024-06-25 12:44:06,2,3,distance,cathedral,spatial_unmasking,6,227,0,0,_one_,talker-p245_sex-f_text-_one_.wav,p245,f,5,22,2.0,7.0,RX81,6,0.0,0.0,7.0,77.341492931939,babble-reversed_n13_p307-one-p318-five-p256-nine-p248-eight-p284-six-p245-three.wav,0,RX81,1,0.0,0.0,2.0,84.40078082039426,mgb_normalisation,84.40078082039426,90.34149293193902,1,1.0,True,1.1249182224273682
,2024-06-25 12:44:10,2,3,distance,cathedral,spatial_unmasking,6,228,0,0,_two_,talker-p245_sex-f_text-_two_.wav,p245,f,5,23,2.0,7.0,RX81,6,0.0,0.0,7.0,76.341492931939,babble-reversed_n13_p256-four-p229-eight-p307-five-p248-three-p245-one-p284-two.wav,0,RX81,1,0.0,0.0,2.0,84.40078082039426,mgb_normalisation,84.40078082039426,90.34149293193902,2,2.0,True,1.374897003173828
,2024-06-25 12:44:14,2,3,distance,cathedral,spatial_unmasking,6,229,0,0,_one_,talker-p245_sex-f_text-_one_.wav,p245,f,5,24,2.0,7.0,RX81,6,0.0,0.0,7.0,75.341492931939,babble-reversed_n13_p229-one-p318-eight-p256-three-p268-two-p245-five-p248-nine.wav,0,RX81,1,0.0,0.0,2.0,84.40078082039426,mgb_normalisation,84.40078082039426,90.34149293193902,1,3.0,False,1.6873772144317627
,2024-06-25 12:44:18,2,3,distance,cathedral,spatial_unmasking,6,230,0,0,_three_,talker-p245_sex-f_text-_three_.wav,p245,f,5,25,2.0,7.0,RX81,6,0.0,0.0,7.0,76.34149293193902,babble-reversed_n13_p318-three-p229-one-p256-eight-p245-five-p248-four-p284-nine.wav,0,RX81,1,0.0,0.0,2.0,84.40078082039427,mgb_normalisation,84.40078082039426,90.34149293193902,3,3.0,True,1.499889612197876
,2024-06-25 12:44:21,2,3,distance,cathedral,spatial_unmasking,6,231,0,0,_four_,talker-p245_sex-f_text-_four_.wav,p245,f,5,26,2.0,7.0,RX81,6,0.0,0.0,7.0,75.34149293193903,babble-reversed_n13_p256-nine-p307-one-p318-three-p248-two-p284-eight-p268-six.wav,0,RX81,1,0.0,0.0,2.0,84.40078082039426,mgb_normalisation,84.40078082039426,90.34149293193902,4,2.0,False,1.2499079704284668
,2024-06-25 12:44:27,2,3,distance,cathedral,spatial_unmasking,6,232,0,0,_four_,talker-p245_sex-f_text-_four_.wav,p245,f,5,27,2.0,7.0,RX81,6,0.0,0.0,7.0,76.34149293193903,babble-reversed_n13_p307-two-p318-four-p256-one-p248-nine-p245-six-p284-eight.wav,0,RX81,1,0.0,0.0,2.0,84.40078082039426,mgb_normalisation,84.40078082039426,90.34149293193902,4,3.0,False,2.687302589416504
,2024-06-25 12:44:31,2,3,distance,cathedral,spatial_unmasking,6,233,0,0,_five_,talker-p245_sex-f_text-_five_.wav,p245,f,5,28,2.0,7.0,RX81,6,0.0,0.0,7.0,77.34149293193902,babble-reversed_n13_p256-three-p318-two-p229-nine-p248-four-p284-one-p268-eight.wav,0,RX81,1,0.0,0.0,2.0,84.40078082039426,mgb_normalisation,84.40078082039426,90.34149293193902,5,5.0,True,1.9373574256896973
