event_id,timestamp,subject_id,session_index,plane,setup,task,block,trial_index,headpose_offset_azi,headpose_offset_ele,target_number,target_filename,target_talker,target_sex,target_speaker_id,step_number:,distance_masker,distance_target,target_speaker_proc,target_speaker_chan,target_speaker_azi,target_speaker_ele,target_speaker_dist,target_stim_level,masker_filename,masker_speaker_id,masker_speaker_proc,masker_speaker_chan,masker_speaker_azi,masker_speaker_ele,masker_speaker_dist,masker_stim_level,normalisation_method,normalisation_level_masker,normalisation_level_target,played_number,resp_number,is_correct,reaction_time
,2024-06-27 12:06:40,sub_000,3,distance,cathedral,spatial_unmasking,1,0,0,0,_four_,talker-p248_sex-f_text-_four_.wav,p248,f,5,1,2.0,7.0,RX81,6,0.0,0.0,7.0,92.34149293193902,babble-reversed_n13_p318-five-p256-nine-p307-eight-p248-two-p245-four-p284-three.wav,0,RX81,1,0.0,0.0,2.0,84.40078082039426,mgb_normalisation,84.40078082039426,90.34149293193902,4,4.0,True,6.125080585479736
,2024-06-27 12:06:44,sub_000,3,distance,cathedral,spatial_unmasking,1,1,0,0,_three_,talker-p248_sex-f_text-_three_.wav,p248,f,5,2,2.0,7.0,RX81,6,0.0,0.0,7.0,88.34149293193902,babble-reversed_n13_p318-three-p307-one-p256-five-p248-nine-p245-two-p284-eight.wav,0,RX81,1,0.0,0.0,2.0,84.40078082039426,mgb_normalisation,84.40078082039426,90.34149293193902,3,3.0,True,1.3125159740447998
,2024-06-27 12:06:48,sub_000,3,distance,cathedral,spatial_unmasking,1,2,0,0,_four_,talker-p248_sex-f_text-_four_.wav,p248,f,5,3,2.0,7.0,RX81,6,0.0,0.0,7.0,84.341492931939,babble-reversed_n13_p256-four-p229-two-p318-five-p268-one-p248-eight-p245-three.wav,0,RX81,1,0.0,0.0,2.0,84.40078082039426,mgb_normalisation,84.40078082039426,90.34149293193902,4,4.0,True,1.6875200271606443
,2024-06-27 12:06:53,sub_000,3,distance,cathedral,spatial_unmasking,1,3,0,0,_two_,talker-p248_sex-f_text-_two_.wav,p248,f,5,4,2.0,7.0,RX81,6,0.0,0.0,7.0,80.34149293193903,babble-reversed_n13_p256-five-p229-one-p318-three-p248-nine-p284-eight-p268-two.wav,0,RX81,1,0.0,0.0,2.0,84.40078082039427,mgb_normalisation,84.40078082039426,90.34149293193902,2,1.0,False,2.7500362396240234
,2024-06-27 12:06:57,sub_000,3,distance,cathedral,spatial_unmasking,1,4,0,0,_two_,talker-p248_sex-f_text-_two_.wav,p248,f,5,5,2.0,7.0,RX81,6,0.0,0.0,7.0,82.34149293193902,babble-reversed_n13_p256-three-p318-one-p307-two-p284-nine-p268-four-p245-eight.wav,0,RX81,1,0.0,0.0,2.0,84.40078082039426,mgb_normalisation,84.40078082039426,90.34149293193902,2,2.0,True,1.0625145435333252
,2024-06-27 12:07:00,sub_000,3,distance,cathedral,spatial_unmasking,1,5,0,0,_five_,talker-p248_sex-f_text-_five_.wav,p248,f,5,6,2.0,7.0,RX81,6,0.0,0.0,7.0,82.341492931939,babble-reversed_n13_p318-three-p229-one-p256-eight-p245-five-p248-four-p284-nine.wav,0,RX81,1,0.0,0.0,2.0,84.40078082039427,mgb_normalisation,84.40078082039426,90.34149293193902,5,5.0,True,1.0000152587890625
,2024-06-27 12:07:03,sub_000,3,distance,cathedral,spatial_unmasking,1,6,0,0,_five_,talker-p248_sex-f_text-_five_.wav,p248,f,5,7,2.0,7.0,RX81,6,0.0,0.0,7.0,80.341492931939,babble-reversed_n13_p229-two-p256-three-p318-eight-p284-five-p268-four-p245-one.wav,0,RX81,1,0.0,0.0,2.0,84.40078082039426,mgb_normalisation,84.40078082039426,90.34149293193902,5,5.0,True,0.750009298324585
,2024-06-27 12:07:07,sub_000,3,distance,cathedral,spatial_unmasking,1,7,0,0,_three_,talker-p248_sex-f_text-_three_.wav,p248,f,5,8,2.0,7.0,RX81,6,0.0,0.0,7.0,80.341492931939,babble-reversed_n13_p256-eight-p229-three-p307-nine-p245-five-p248-four-p268-two.wav,0,RX81,1,0.0,0.0,2.0,84.40078082039426,mgb_normalisation,84.40078082039426,90.34149293193902,3,3.0,True,1.1875133514404297
,2024-06-27 12:07:10,sub_000,3,distance,cathedral,spatial_unmasking,1,8,0,0,_two_,talker-p248_sex-f_text-_two_.wav,p248,f,5,9,2.0,7.0,RX81,6,0.0,0.0,7.0,78.34149293193902,babble-reversed_n13_p229-one-p318-nine-p256-four-p284-eight-p268-five-p245-two.wav,0,RX81,1,0.0,0.0,2.0,84.40078082039426,mgb_normalisation,84.40078082039426,90.34149293193902,2,2.0,True,0.937511682510376
,2024-06-27 12:07:13,sub_000,3,distance,cathedral,spatial_unmasking,1,9,0,0,_two_,talker-p248_sex-f_text-_two_.wav,p248,f,5,10,2.0,7.0,RX81,6,0.0,0.0,7.0,78.34149293193902,babble-reversed_n13_p229-three-p307-one-p318-two-p245-eight-p268-five-p284-four.wav,0,RX81,1,0.0,0.0,2.0,84.40078082039426,mgb_normalisation,84.40078082039426,90.34149293193902,2,2.0,True,0.8125119209289551
,2024-06-27 12:07:16,sub_000,3,distance,cathedral,spatial_unmasking,1,10,0,0,_one_,talker-p248_sex-f_text-_one_.wav,p248,f,5,11,2.0,7.0,RX81,6,0.0,0.0,7.0,76.34149293193902,babble-reversed_n13_p229-three-p256-one-p307-two-p284-eight-p268-five-p248-nine.wav,0,RX81,1,0.0,0.0,2.0,84.40078082039426,mgb_normalisation,84.40078082039426,90.34149293193902,1,1.0,True,0.7500090599060059
,2024-06-27 12:07:20,sub_000,3,distance,cathedral,spatial_unmasking,1,11,0,0,_two_,talker-p248_sex-f_text-_two_.wav,p248,f,5,12,2.0,7.0,RX81,6,0.0,0.0,7.0,76.34149293193902,babble-reversed_n13_p318-five-p256-nine-p307-eight-p248-two-p245-four-p284-three.wav,0,RX81,1,0.0,0.0,2.0,84.40078082039426,mgb_normalisation,84.40078082039426,90.34149293193902,2,2.0,True,0.8750119209289551
,2024-06-27 12:07:24,sub_000,3,distance,cathedral,spatial_unmasking,1,12,0,0,_four_,talker-p248_sex-f_text-_four_.wav,p248,f,5,13,2.0,7.0,RX81,6,0.0,0.0,7.0,74.341492931939,babble-reversed_n13_p256-two-p307-five-p318-nine-p248-eight-p245-four-p284-one.wav,0,RX81,1,0.0,0.0,2.0,84.40078082039426,mgb_normalisation,84.40078082039426,90.34149293193902,4,3.0,False,2.000093460083008
,2024-06-27 12:07:28,sub_000,3,distance,cathedral,spatial_unmasking,1,13,0,0,_four_,talker-p248_sex-f_text-_four_.wav,p248,f,5,14,2.0,7.0,RX81,6,0.0,0.0,7.0,75.34149293193902,babble-reversed_n13_p229-nine-p256-four-p318-three-p268-eight-p248-two-p284-five.wav,0,RX81,1,0.0,0.0,2.0,84.40078082039426,mgb_normalisation,84.40078082039426,90.34149293193902,4,2.0,False,1.43751859664917
,2024-06-27 12:07:32,sub_000,3,distance,cathedral,spatial_unmasking,1,14,0,0,_four_,talker-p248_sex-f_text-_four_.wav,p248,f,5,15,2.0,7.0,RX81,6,0.0,0.0,7.0,76.34149293193902,babble-reversed_n13_p229-three-p256-one-p307-two-p284-eight-p268-five-p248-nine.wav,0,RX81,1,0.0,0.0,2.0,84.40078082039426,mgb_normalisation,84.40078082039426,90.34149293193902,4,4.0,True,1.3125145435333252
,2024-06-27 12:07:36,sub_000,3,distance,cathedral,spatial_unmasking,1,15,0,0,_three_,talker-p248_sex-f_text-_three_.wav,p248,f,5,16,2.0,7.0,RX81,6,0.0,0.0,7.0,76.34149293193902,babble-reversed_n13_p256-four-p307-eight-p318-two-p248-three-p284-nine-p268-one.wav,0,RX81,1,0.0,0.0,2.0,84.40078082039427,mgb_normalisation,84.40078082039426,90.34149293193902,3,3.0,True,1.5000193119049072
,2024-06-27 12:07:39,sub_000,3,distance,cathedral,spatial_unmasking,1,16,0,0,_five_,talker-p248_sex-f_text-_five_.wav,p248,f,5,17,2.0,7.0,RX81,6,0.0,0.0,7.0,75.341492931939,babble-reversed_n13_p229-three-p307-one-p318-two-p245-eight-p268-five-p284-four.wav,0,RX81,1,0.0,0.0,2.0,84.40078082039426,mgb_normalisation,84.40078082039426,90.34149293193902,5,5.0,True,0.9375123977661132
,2024-06-27 12:07:44,sub_000,3,distance,cathedral,spatial_unmasking,1,17,0,0,_three_,talker-p248_sex-f_text-_three_.wav,p248,f,5,18,2.0,7.0,RX81,6,0.0,0.0,7.0,75.34149293193902,babble-reversed_n13_p256-five-p229-one-p318-three-p248-nine-p284-eight-p268-two.wav,0,RX81,1,0.0,0.0,2.0,84.40078082039427,mgb_normalisation,84.40078082039426,90.34149293193902,3,2.0,False,3.12504243850708
,2024-06-27 12:07:48,sub_000,3,distance,cathedral,spatial_unmasking,1,18,0,0,_two_,talker-p248_sex-f_text-_two_.wav,p248,f,5,19,2.0,7.0,RX81,6,0.0,0.0,7.0,76.34149293193902,babble-reversed_n13_p307-nine-p318-two-p256-one-p245-three-p268-four-p248-eight.wav,0,RX81,1,0.0,0.0,2.0,84.40078082039426,mgb_normalisation,84.40078082039426,90.34149293193902,2,2.0,True,0.8125100135803223
,2024-06-27 12:07:52,sub_000,3,distance,cathedral,spatial_unmasking,1,19,0,0,_three_,talker-p248_sex-f_text-_three_.wav,p248,f,5,20,2.0,7.0,RX81,6,0.0,0.0,7.0,76.34149293193902,babble-reversed_n13_p256-five-p229-one-p318-three-p248-nine-p284-eight-p268-two.wav,0,RX81,1,0.0,0.0,2.0,84.40078082039427,mgb_normalisation,84.40078082039426,90.34149293193902,3,3.0,True,1.3750178813934326
,2024-06-27 12:07:55,sub_000,3,distance,cathedral,spatial_unmasking,1,20,0,0,_one_,talker-p248_sex-f_text-_one_.wav,p248,f,5,21,2.0,7.0,RX81,6,0.0,0.0,7.0,75.34149293193903,babble-reversed_n13_p256-eight-p318-two-p307-five-p245-four-p268-nine-p284-one.wav,0,RX81,1,0.0,0.0,2.0,84.40078082039426,mgb_normalisation,84.40078082039426,90.34149293193902,1,1.0,True,1.1250157356262207
,2024-06-27 12:07:59,sub_000,3,distance,cathedral,spatial_unmasking,1,21,0,0,_five_,talker-p248_sex-f_text-_five_.wav,p248,f,5,22,2.0,7.0,RX81,6,0.0,0.0,7.0,75.341492931939,babble-reversed_n13_p307-five-p229-two-p318-four-p248-three-p245-nine-p268-eight.wav,0,RX81,1,0.0,0.0,2.0,84.40078082039426,mgb_normalisation,84.40078082039426,90.34149293193902,5,5.0,True,1.5624558925628662
,2024-06-27 12:08:03,sub_000,3,distance,cathedral,spatial_unmasking,1,22,0,0,_five_,talker-p248_sex-f_text-_five_.wav,p248,f,5,23,2.0,7.0,RX81,6,0.0,0.0,7.0,74.341492931939,babble-reversed_n13_p256-eight-p318-two-p307-five-p245-four-p268-nine-p284-one.wav,0,RX81,1,0.0,0.0,2.0,84.40078082039426,mgb_normalisation,84.40078082039426,90.34149293193902,5,1.0,False,1.1875152587890625
,2024-06-27 12:08:06,sub_000,3,distance,cathedral,spatial_unmasking,1,23,0,0,_four_,talker-p248_sex-f_text-_four_.wav,p248,f,5,24,2.0,7.0,RX81,6,0.0,0.0,7.0,75.34149293193902,babble-reversed_n13_p229-five-p256-three-p318-nine-p248-two-p284-four-p268-one.wav,0,RX81,1,0.0,0.0,2.0,84.40078082039427,mgb_normalisation,84.40078082039426,90.34149293193902,4,4.0,True,1.250017166137695
,2024-06-27 12:08:11,sub_000,3,distance,cathedral,spatial_unmasking,1,24,0,0,_two_,talker-p248_sex-f_text-_two_.wav,p248,f,5,25,2.0,7.0,RX81,6,0.0,0.0,7.0,75.34149293193903,babble-reversed_n13_p256-four-p307-eight-p318-two-p248-three-p284-nine-p268-one.wav,0,RX81,1,0.0,0.0,2.0,84.40078082039427,mgb_normalisation,84.40078082039426,90.34149293193902,2,3.0,False,2.187529325485229
,2024-06-27 12:08:14,sub_000,3,distance,cathedral,spatial_unmasking,1,25,0,0,_two_,talker-p248_sex-f_text-_two_.wav,p248,f,5,26,2.0,7.0,RX81,6,0.0,0.0,7.0,76.34149293193902,babble-reversed_n13_p229-two-p256-three-p318-eight-p284-five-p268-four-p245-one.wav,0,RX81,1,0.0,0.0,2.0,84.40078082039426,mgb_normalisation,84.40078082039426,90.34149293193902,2,2.0,True,0.7500095367431641
,2024-06-27 12:08:18,sub_000,3,distance,cathedral,spatial_unmasking,1,26,0,0,_four_,talker-p248_sex-f_text-_four_.wav,p248,f,5,27,2.0,7.0,RX81,6,0.0,0.0,7.0,76.34149293193902,babble-reversed_n13_p307-two-p229-one-p256-five-p248-nine-p284-three-p268-eight.wav,0,RX81,1,0.0,0.0,2.0,84.40078082039427,mgb_normalisation,84.40078082039426,90.34149293193902,4,1.0,False,1.5000200271606443
,2024-06-27 12:08:22,sub_000,3,distance,cathedral,spatial_unmasking,1,27,0,0,_two_,talker-p248_sex-f_text-_two_.wav,p248,f,5,28,2.0,7.0,RX81,6,0.0,0.0,7.0,77.34149293193903,babble-reversed_n13_p318-four-p256-five-p229-three-p284-one-p245-eight-p248-nine.wav,0,RX81,1,0.0,0.0,2.0,84.40078082039427,mgb_normalisation,84.40078082039426,90.34149293193902,2,5.0,False,1.3750202655792236
,2024-06-27 12:08:25,sub_000,3,distance,cathedral,spatial_unmasking,1,28,0,0,_four_,talker-p248_sex-f_text-_four_.wav,p248,f,5,29,2.0,7.0,RX81,6,0.0,0.0,7.0,78.34149293193902,babble-reversed_n13_p229-one-p318-eight-p256-three-p268-nine-p248-five-p284-four.wav,0,RX81,1,0.0,0.0,2.0,84.40078082039426,mgb_normalisation,84.40078082039426,90.34149293193902,4,4.0,True,1.062514066696167
,2024-06-27 12:08:29,sub_000,3,distance,cathedral,spatial_unmasking,1,29,0,0,_four_,talker-p248_sex-f_text-_four_.wav,p248,f,5,30,2.0,7.0,RX81,6,0.0,0.0,7.0,78.34149293193902,babble-reversed_n13_p229-three-p307-one-p318-two-p245-eight-p268-five-p284-four.wav,0,RX81,1,0.0,0.0,2.0,84.40078082039426,mgb_normalisation,84.40078082039426,90.34149293193902,4,4.0,True,1.0000102519989014
,2024-06-27 12:08:32,sub_000,3,distance,cathedral,spatial_unmasking,1,30,0,0,_two_,talker-p248_sex-f_text-_two_.wav,p248,f,5,31,2.0,7.0,RX81,6,0.0,0.0,7.0,77.34149293193903,babble-reversed_n13_p229-nine-p256-four-p318-three-p268-eight-p248-two-p284-five.wav,0,RX81,1,0.0,0.0,2.0,84.40078082039426,mgb_normalisation,84.40078082039426,90.34149293193902,2,2.0,True,1.312500238418579
,2024-06-27 12:08:37,sub_000,3,distance,cathedral,spatial_unmasking,1,31,0,0,_one_,talker-p248_sex-f_text-_one_.wav,p248,f,5,32,2.0,7.0,RX81,6,0.0,0.0,7.0,77.34149293193903,babble-reversed_n13_p318-four-p256-five-p229-three-p284-one-p245-eight-p248-nine.wav,0,RX81,1,0.0,0.0,2.0,84.40078082039427,mgb_normalisation,84.40078082039426,90.34149293193902,1,3.0,False,2.6250362396240234
,2024-06-27 12:08:41,sub_000,3,distance,cathedral,spatial_unmasking,1,32,0,0,_five_,talker-p248_sex-f_text-_five_.wav,p248,f,5,33,2.0,7.0,RX81,6,0.0,0.0,7.0,78.341492931939,babble-reversed_n13_p318-five-p229-three-p256-four-p268-eight-p248-one-p245-nine.wav,0,RX81,1,0.0,0.0,2.0,84.40078082039426,mgb_normalisation,84.40078082039426,90.34149293193902,5,5.0,True,0.8750150203704834
,2024-06-27 12:08:44,sub_000,3,distance,cathedral,spatial_unmasking,1,33,0,0,_five_,talker-p248_sex-f_text-_five_.wav,p248,f,5,34,2.0,7.0,RX81,6,0.0,0.0,7.0,78.341492931939,babble-reversed_n13_p318-nine-p307-eight-p229-two-p284-one-p248-three-p245-five.wav,0,RX81,1,0.0,0.0,2.0,84.40078082039426,mgb_normalisation,84.40078082039426,90.34149293193902,5,5.0,True,0.7499513626098633
,2024-06-27 12:08:47,sub_000,3,distance,cathedral,spatial_unmasking,1,34,0,0,_four_,talker-p248_sex-f_text-_four_.wav,p248,f,5,35,2.0,7.0,RX81,6,0.0,0.0,7.0,77.341492931939,babble-reversed_n13_p229-one-p318-nine-p256-four-p284-eight-p268-five-p245-two.wav,0,RX81,1,0.0,0.0,2.0,84.40078082039426,mgb_normalisation,84.40078082039426,90.34149293193902,4,4.0,True,0.9375054836273192
,2024-06-27 12:08:52,sub_000,3,distance,cathedral,spatial_unmasking,1,35,0,0,_one_,talker-p248_sex-f_text-_one_.wav,p248,f,5,36,2.0,7.0,RX81,6,0.0,0.0,7.0,77.34149293193903,babble-reversed_n13_p307-two-p256-four-p318-three-p284-eight-p248-five-p245-nine.wav,0,RX81,1,0.0,0.0,2.0,84.40078082039427,mgb_normalisation,84.40078082039426,90.34149293193902,1,1.0,True,2.250030994415283
,2024-06-27 12:08:55,sub_000,3,distance,cathedral,spatial_unmasking,1,36,0,0,_two_,talker-p248_sex-f_text-_two_.wav,p248,f,5,37,2.0,7.0,RX81,6,0.0,0.0,7.0,76.34149293193902,babble-reversed_n13_p256-four-p229-two-p318-five-p268-one-p248-eight-p245-three.wav,0,RX81,1,0.0,0.0,2.0,84.40078082039426,mgb_normalisation,84.40078082039426,90.34149293193902,2,2.0,True,1.1250815391540527
,2024-06-27 12:08:59,sub_000,3,distance,cathedral,spatial_unmasking,1,37,0,0,_four_,talker-p248_sex-f_text-_four_.wav,p248,f,5,38,2.0,7.0,RX81,6,0.0,0.0,7.0,76.34149293193902,babble-reversed_n13_p318-five-p256-nine-p307-eight-p248-two-p245-four-p284-three.wav,0,RX81,1,0.0,0.0,2.0,84.40078082039426,mgb_normalisation,84.40078082039426,90.34149293193902,4,4.0,True,1.312517166137695
,2024-06-27 12:09:04,sub_000,3,distance,cathedral,spatial_unmasking,1,38,0,0,_four_,talker-p248_sex-f_text-_four_.wav,p248,f,5,39,2.0,7.0,RX81,6,0.0,0.0,7.0,75.34149293193902,babble-reversed_n13_p256-eight-p318-two-p307-five-p245-four-p268-nine-p284-one.wav,0,RX81,1,0.0,0.0,2.0,84.40078082039426,mgb_normalisation,84.40078082039426,90.34149293193902,4,4.0,True,2.500032663345337
,2024-06-27 12:09:08,sub_000,3,distance,cathedral,spatial_unmasking,1,39,0,0,_three_,talker-p248_sex-f_text-_three_.wav,p248,f,5,40,2.0,7.0,RX81,6,0.0,0.0,7.0,75.34149293193902,babble-reversed_n13_p229-nine-p307-five-p256-two-p248-three-p245-one-p268-eight.wav,0,RX81,1,0.0,0.0,2.0,84.40078082039426,mgb_normalisation,84.40078082039426,90.34149293193902,3,3.0,True,1.312516450881958
,2024-06-27 12:09:11,sub_000,3,distance,cathedral,spatial_unmasking,1,40,0,0,_four_,talker-p248_sex-f_text-_four_.wav,p248,f,5,41,2.0,7.0,RX81,6,0.0,0.0,7.0,74.341492931939,babble-reversed_n13_p229-nine-p256-four-p318-three-p268-eight-p248-two-p284-five.wav,0,RX81,1,0.0,0.0,2.0,84.40078082039426,mgb_normalisation,84.40078082039426,90.34149293193902,4,4.0,True,1.312517166137695
,2024-06-27 12:09:15,sub_000,3,distance,cathedral,spatial_unmasking,1,41,0,0,_one_,talker-p248_sex-f_text-_one_.wav,p248,f,5,42,2.0,7.0,RX81,6,0.0,0.0,7.0,74.34149293193902,babble-reversed_n13_p318-three-p229-one-p256-eight-p245-five-p248-four-p284-nine.wav,0,RX81,1,0.0,0.0,2.0,84.40078082039427,mgb_normalisation,84.40078082039426,90.34149293193902,1,1.0,True,1.3125183582305908
,2024-06-27 12:09:20,sub_000,3,distance,cathedral,spatial_unmasking,1,42,0,0,_three_,talker-p248_sex-f_text-_three_.wav,p248,f,5,43,2.0,7.0,RX81,6,0.0,0.0,7.0,73.34149293193902,babble-reversed_n13_p307-two-p256-four-p318-three-p284-eight-p248-five-p245-nine.wav,0,RX81,1,0.0,0.0,2.0,84.40078082039427,mgb_normalisation,84.40078082039426,90.34149293193902,3,2.0,False,2.7500364780426025
,2024-06-27 12:09:25,sub_000,3,distance,cathedral,spatial_unmasking,1,43,0,0,_four_,talker-p248_sex-f_text-_four_.wav,p248,f,5,44,2.0,7.0,RX81,6,0.0,0.0,7.0,74.341492931939,babble-reversed_n13_p229-two-p307-five-p318-four-p284-one-p248-nine-p268-eight.wav,0,RX81,1,0.0,0.0,2.0,84.40078082039426,mgb_normalisation,84.40078082039426,90.34149293193902,4,1.0,False,1.937525987625122
,2024-06-27 12:09:28,sub_000,3,distance,cathedral,spatial_unmasking,1,44,0,0,_five_,talker-p248_sex-f_text-_five_.wav,p248,f,5,45,2.0,7.0,RX81,6,0.0,0.0,7.0,75.341492931939,babble-reversed_n13_p307-five-p229-three-p318-nine-p245-four-p268-eight-p284-two.wav,0,RX81,1,0.0,0.0,2.0,84.40078082039426,mgb_normalisation,84.40078082039426,90.34149293193902,5,5.0,True,0.9375126361846924
,2024-06-27 12:09:32,sub_000,3,distance,cathedral,spatial_unmasking,1,45,0,0,_three_,talker-p248_sex-f_text-_three_.wav,p248,f,5,46,2.0,7.0,RX81,6,0.0,0.0,7.0,75.34149293193902,babble-reversed_n13_p229-three-p256-one-p307-two-p284-eight-p268-five-p248-nine.wav,0,RX81,1,0.0,0.0,2.0,84.40078082039426,mgb_normalisation,84.40078082039426,90.34149293193902,3,3.0,True,1.8125903606414795
,2024-06-27 12:09:36,sub_000,3,distance,cathedral,spatial_unmasking,1,46,0,0,_three_,talker-p248_sex-f_text-_three_.wav,p248,f,5,47,2.0,7.0,RX81,6,0.0,0.0,7.0,74.34149293193902,babble-reversed_n13_p307-nine-p229-one-p256-eight-p248-four-p284-two-p268-three.wav,0,RX81,1,0.0,0.0,2.0,84.40078082039426,mgb_normalisation,84.40078082039426,90.34149293193902,3,3.0,True,1.3125247955322266
,2024-06-27 12:09:39,sub_000,3,distance,cathedral,spatial_unmasking,1,47,0,0,_four_,talker-p248_sex-f_text-_four_.wav,p248,f,5,48,2.0,7.0,RX81,6,0.0,0.0,7.0,74.341492931939,babble-reversed_n13_p229-two-p318-eight-p256-three-p268-one-p248-nine-p284-five.wav,0,RX81,1,0.0,0.0,2.0,84.40078082039426,mgb_normalisation,84.40078082039426,90.34149293193902,4,1.0,False,1.3125693798065186
,2024-06-27 12:09:43,sub_000,3,distance,cathedral,spatial_unmasking,1,48,0,0,_three_,talker-p248_sex-f_text-_three_.wav,p248,f,5,49,2.0,7.0,RX81,6,0.0,0.0,7.0,75.34149293193902,babble-reversed_n13_p256-two-p307-five-p318-nine-p248-eight-p245-four-p284-one.wav,0,RX81,1,0.0,0.0,2.0,84.40078082039426,mgb_normalisation,84.40078082039426,90.34149293193902,3,3.0,True,1.1875195503234863
,2024-06-27 12:09:47,sub_000,3,distance,cathedral,spatial_unmasking,1,49,0,0,_one_,talker-p248_sex-f_text-_one_.wav,p248,f,5,50,2.0,7.0,RX81,6,0.0,0.0,7.0,75.34149293193903,babble-reversed_n13_p318-three-p229-one-p256-eight-p245-five-p248-four-p284-nine.wav,0,RX81,1,0.0,0.0,2.0,84.40078082039427,mgb_normalisation,84.40078082039426,90.34149293193902,1,1.0,True,1.7500264644622805
,2024-06-27 12:09:52,sub_000,3,distance,cathedral,spatial_unmasking,1,50,0,0,_four_,talker-p248_sex-f_text-_four_.wav,p248,f,5,51,2.0,7.0,RX81,6,0.0,0.0,7.0,74.341492931939,babble-reversed_n13_p256-eight-p229-three-p307-nine-p245-five-p248-four-p268-two.wav,0,RX81,1,0.0,0.0,2.0,84.40078082039426,mgb_normalisation,84.40078082039426,90.34149293193902,4,5.0,False,3.0000407695770264
,2024-06-27 12:09:56,sub_000,3,distance,cathedral,spatial_unmasking,1,51,0,0,_three_,talker-p248_sex-f_text-_three_.wav,p248,f,5,52,2.0,7.0,RX81,6,0.0,0.0,7.0,75.34149293193902,babble-reversed_n13_p307-nine-p229-one-p256-eight-p248-four-p284-two-p268-three.wav,0,RX81,1,0.0,0.0,2.0,84.40078082039426,mgb_normalisation,84.40078082039426,90.34149293193902,3,3.0,True,1.125011920928955
,2024-06-27 12:10:00,sub_000,3,distance,cathedral,spatial_unmasking,1,52,0,0,_four_,talker-p248_sex-f_text-_four_.wav,p248,f,5,53,2.0,7.0,RX81,6,0.0,0.0,7.0,75.34149293193902,babble-reversed_n13_p229-three-p256-one-p307-two-p284-eight-p268-five-p248-nine.wav,0,RX81,1,0.0,0.0,2.0,84.40078082039426,mgb_normalisation,84.40078082039426,90.34149293193902,4,1.0,False,1.3750181198120115
,2024-06-27 12:10:03,sub_000,3,distance,cathedral,spatial_unmasking,1,53,0,0,_three_,talker-p248_sex-f_text-_three_.wav,p248,f,5,54,2.0,7.0,RX81,6,0.0,0.0,7.0,76.34149293193902,babble-reversed_n13_p256-three-p318-two-p229-nine-p248-four-p284-one-p268-eight.wav,0,RX81,1,0.0,0.0,2.0,84.40078082039426,mgb_normalisation,84.40078082039426,90.34149293193902,3,3.0,True,1.0000135898590088
,2024-06-27 12:10:06,sub_000,3,distance,cathedral,spatial_unmasking,1,54,0,0,_two_,talker-p248_sex-f_text-_two_.wav,p248,f,5,55,2.0,7.0,RX81,6,0.0,0.0,7.0,76.34149293193902,babble-reversed_n13_p307-five-p229-three-p318-nine-p245-four-p268-eight-p284-two.wav,0,RX81,1,0.0,0.0,2.0,84.40078082039426,mgb_normalisation,84.40078082039426,90.34149293193902,2,2.0,True,0.7500090599060059
,2024-06-27 12:10:29,sub_000,3,distance,cathedral,spatial_unmasking,2,55,0,0,_four_,talker-p248_sex-f_text-_four_.wav,p248,f,5,1,4.0,7.0,RX81,6,0.0,0.0,7.0,92.34149293193902,babble-reversed_n13_p318-three-p307-one-p256-five-p248-nine-p245-two-p284-eight.wav,2,RX81,3,0.0,0.0,4.0,87.57049330475357,mgb_normalisation,87.57049330475357,90.34149293193902,4,4.0,True,6.500086307525635
,2024-06-27 12:10:32,sub_000,3,distance,cathedral,spatial_unmasking,2,56,0,0,_two_,talker-p248_sex-f_text-_two_.wav,p248,f,5,2,4.0,7.0,RX81,6,0.0,0.0,7.0,88.34149293193903,babble-reversed_n13_p256-four-p229-two-p318-five-p268-one-p248-eight-p245-three.wav,2,RX81,3,0.0,0.0,4.0,87.57049330475355,mgb_normalisation,87.57049330475357,90.34149293193902,2,2.0,True,0.7500097751617432
,2024-06-27 12:10:36,sub_000,3,distance,cathedral,spatial_unmasking,2,57,0,0,_five_,talker-p248_sex-f_text-_five_.wav,p248,f,5,3,4.0,7.0,RX81,6,0.0,0.0,7.0,84.341492931939,babble-reversed_n13_p229-one-p318-eight-p256-three-p268-two-p245-five-p248-nine.wav,2,RX81,3,0.0,0.0,4.0,87.57049330475355,mgb_normalisation,87.57049330475357,90.34149293193902,5,5.0,True,0.6875090599060059
,2024-06-27 12:10:40,sub_000,3,distance,cathedral,spatial_unmasking,2,58,0,0,_four_,talker-p248_sex-f_text-_four_.wav,p248,f,5,4,4.0,7.0,RX81,6,0.0,0.0,7.0,80.341492931939,babble-reversed_n13_p229-eight-p256-nine-p318-four-p245-three-p268-five-p284-two.wav,2,RX81,3,0.0,0.0,4.0,87.57049330475355,mgb_normalisation,87.57049330475357,90.34149293193902,4,4.0,True,1.6875219345092771
,2024-06-27 12:10:43,sub_000,3,distance,cathedral,spatial_unmasking,2,59,0,0,_one_,talker-p248_sex-f_text-_one_.wav,p248,f,5,5,4.0,7.0,RX81,6,0.0,0.0,7.0,76.34149293193902,babble-reversed_n13_p318-five-p256-nine-p307-eight-p248-two-p245-four-p284-three.wav,2,RX81,3,0.0,0.0,4.0,87.57049330475357,mgb_normalisation,87.57049330475357,90.34149293193902,1,1.0,True,1.374964952468872
,2024-06-27 12:10:47,sub_000,3,distance,cathedral,spatial_unmasking,2,60,0,0,_five_,talker-p248_sex-f_text-_five_.wav,p248,f,5,6,4.0,7.0,RX81,6,0.0,0.0,7.0,72.341492931939,babble-reversed_n13_p318-three-p229-one-p256-eight-p245-five-p248-four-p284-nine.wav,2,RX81,3,0.0,0.0,4.0,87.57049330475357,mgb_normalisation,87.57049330475357,90.34149293193902,5,5.0,True,1.0625150203704834
,2024-06-27 12:10:50,sub_000,3,distance,cathedral,spatial_unmasking,2,61,0,0,_two_,talker-p248_sex-f_text-_two_.wav,p248,f,5,7,4.0,7.0,RX81,6,0.0,0.0,7.0,68.34149293193902,babble-reversed_n13_p256-eight-p229-three-p307-nine-p245-five-p248-four-p268-two.wav,2,RX81,3,0.0,0.0,4.0,87.57049330475355,mgb_normalisation,87.57049330475357,90.34149293193902,2,3.0,False,1.250016689300537
,2024-06-27 12:10:54,sub_000,3,distance,cathedral,spatial_unmasking,2,62,0,0,_one_,talker-p248_sex-f_text-_one_.wav,p248,f,5,8,4.0,7.0,RX81,6,0.0,0.0,7.0,70.34149293193903,babble-reversed_n13_p318-five-p229-three-p256-four-p268-eight-p248-one-p245-nine.wav,2,RX81,3,0.0,0.0,4.0,87.57049330475357,mgb_normalisation,87.57049330475357,90.34149293193902,1,1.0,True,1.2500169277191162
,2024-06-27 12:10:58,sub_000,3,distance,cathedral,spatial_unmasking,2,63,0,0,_three_,talker-p248_sex-f_text-_three_.wav,p248,f,5,9,4.0,7.0,RX81,6,0.0,0.0,7.0,70.34149293193902,babble-reversed_n13_p229-nine-p307-five-p256-two-p248-three-p245-one-p268-eight.wav,2,RX81,3,0.0,0.0,4.0,87.57049330475357,mgb_normalisation,87.57049330475357,90.34149293193902,3,2.0,False,1.937525749206543
,2024-06-27 12:11:03,sub_000,3,distance,cathedral,spatial_unmasking,2,64,0,0,_three_,talker-p248_sex-f_text-_three_.wav,p248,f,5,10,4.0,7.0,RX81,6,0.0,0.0,7.0,72.34149293193902,babble-reversed_n13_p256-eight-p229-three-p307-nine-p245-five-p248-four-p268-two.wav,2,RX81,3,0.0,0.0,4.0,87.57049330475355,mgb_normalisation,87.57049330475357,90.34149293193902,3,4.0,False,2.312528848648072
,2024-06-27 12:11:09,sub_000,3,distance,cathedral,spatial_unmasking,2,65,0,0,_four_,talker-p248_sex-f_text-_four_.wav,p248,f,5,11,4.0,7.0,RX81,6,0.0,0.0,7.0,74.341492931939,babble-reversed_n13_p307-five-p229-two-p318-four-p248-three-p245-nine-p268-eight.wav,2,RX81,3,0.0,0.0,4.0,87.57049330475355,mgb_normalisation,87.57049330475357,90.34149293193902,4,2.0,False,3.562546968460083
,2024-06-27 12:11:13,sub_000,3,distance,cathedral,spatial_unmasking,2,66,0,0,_two_,talker-p248_sex-f_text-_two_.wav,p248,f,5,12,4.0,7.0,RX81,6,0.0,0.0,7.0,76.34149293193902,babble-reversed_n13_p256-nine-p307-four-p229-one-p284-three-p248-two-p245-five.wav,2,RX81,3,0.0,0.0,4.0,87.57049330475357,mgb_normalisation,87.57049330475357,90.34149293193902,2,2.0,True,1.312517166137695
,2024-06-27 12:11:16,sub_000,3,distance,cathedral,spatial_unmasking,2,67,0,0,_five_,talker-p248_sex-f_text-_five_.wav,p248,f,5,13,4.0,7.0,RX81,6,0.0,0.0,7.0,76.34149293193902,babble-reversed_n13_p318-four-p256-five-p229-three-p284-one-p245-eight-p248-nine.wav,2,RX81,3,0.0,0.0,4.0,87.57049330475357,mgb_normalisation,87.57049330475357,90.34149293193902,5,5.0,True,0.8750123977661133
,2024-06-27 12:11:19,sub_000,3,distance,cathedral,spatial_unmasking,2,68,0,0,_one_,talker-p248_sex-f_text-_one_.wav,p248,f,5,14,4.0,7.0,RX81,6,0.0,0.0,7.0,74.34149293193902,babble-reversed_n13_p318-five-p229-three-p256-four-p268-eight-p248-one-p245-nine.wav,2,RX81,3,0.0,0.0,4.0,87.57049330475357,mgb_normalisation,87.57049330475357,90.34149293193902,1,1.0,True,0.9999487400054932
,2024-06-27 12:11:23,sub_000,3,distance,cathedral,spatial_unmasking,2,69,0,0,_one_,talker-p248_sex-f_text-_one_.wav,p248,f,5,15,4.0,7.0,RX81,6,0.0,0.0,7.0,74.34149293193902,babble-reversed_n13_p307-two-p256-four-p318-three-p284-eight-p248-five-p245-nine.wav,2,RX81,3,0.0,0.0,4.0,87.57049330475357,mgb_normalisation,87.57049330475357,90.34149293193902,1,2.0,False,1.5000033378601074
,2024-06-27 12:11:28,sub_000,3,distance,cathedral,spatial_unmasking,2,70,0,0,_four_,talker-p248_sex-f_text-_four_.wav,p248,f,5,16,4.0,7.0,RX81,6,0.0,0.0,7.0,75.34149293193902,babble-reversed_n13_p307-five-p229-three-p318-nine-p245-four-p268-eight-p284-two.wav,2,RX81,3,0.0,0.0,4.0,87.57049330475355,mgb_normalisation,87.57049330475357,90.34149293193902,4,3.0,False,2.000023365020752
,2024-06-27 12:11:32,sub_000,3,distance,cathedral,spatial_unmasking,2,71,0,0,_two_,talker-p248_sex-f_text-_two_.wav,p248,f,5,17,4.0,7.0,RX81,6,0.0,0.0,7.0,76.34149293193902,babble-reversed_n13_p256-three-p318-two-p229-nine-p248-four-p284-one-p268-eight.wav,2,RX81,3,0.0,0.0,4.0,87.57049330475355,mgb_normalisation,87.57049330475357,90.34149293193902,2,4.0,False,2.0625271797180176
,2024-06-27 12:11:36,sub_000,3,distance,cathedral,spatial_unmasking,2,72,0,0,_one_,talker-p248_sex-f_text-_one_.wav,p248,f,5,18,4.0,7.0,RX81,6,0.0,0.0,7.0,77.34149293193903,babble-reversed_n13_p318-five-p256-nine-p307-two-p245-eight-p248-one-p284-four.wav,2,RX81,3,0.0,0.0,4.0,87.57049330475357,mgb_normalisation,87.57049330475357,90.34149293193902,1,1.0,True,1.1250150203704834
,2024-06-27 12:11:41,sub_000,3,distance,cathedral,spatial_unmasking,2,73,0,0,_one_,talker-p248_sex-f_text-_one_.wav,p248,f,5,19,4.0,7.0,RX81,6,0.0,0.0,7.0,77.34149293193903,babble-reversed_n13_p318-five-p256-nine-p307-two-p245-eight-p248-one-p284-four.wav,2,RX81,3,0.0,0.0,4.0,87.57049330475357,mgb_normalisation,87.57049330475357,90.34149293193902,1,1.0,True,3.312543630599976
,2024-06-27 12:11:45,sub_000,3,distance,cathedral,spatial_unmasking,2,74,0,0,_five_,talker-p248_sex-f_text-_five_.wav,p248,f,5,20,4.0,7.0,RX81,6,0.0,0.0,7.0,76.34149293193902,babble-reversed_n13_p229-two-p318-eight-p256-three-p268-one-p248-nine-p284-five.wav,2,RX81,3,0.0,0.0,4.0,87.57049330475355,mgb_normalisation,87.57049330475357,90.34149293193902,5,5.0,True,1.1250150203704834
,2024-06-27 12:11:48,sub_000,3,distance,cathedral,spatial_unmasking,2,75,0,0,_three_,talker-p248_sex-f_text-_three_.wav,p248,f,5,21,4.0,7.0,RX81,6,0.0,0.0,7.0,76.34149293193902,babble-reversed_n13_p229-one-p318-nine-p256-four-p284-eight-p268-five-p245-two.wav,2,RX81,3,0.0,0.0,4.0,87.57049330475357,mgb_normalisation,87.57049330475357,90.34149293193902,3,3.0,True,0.8750109672546387
,2024-06-27 12:11:54,sub_000,3,distance,cathedral,spatial_unmasking,2,76,0,0,_three_,talker-p248_sex-f_text-_three_.wav,p248,f,5,22,4.0,7.0,RX81,6,0.0,0.0,7.0,75.34149293193902,babble-reversed_n13_p318-five-p256-nine-p307-two-p245-eight-p248-one-p284-four.wav,2,RX81,3,0.0,0.0,4.0,87.57049330475357,mgb_normalisation,87.57049330475357,90.34149293193902,3,1.0,False,2.8750388622283936
,2024-06-27 12:11:57,sub_000,3,distance,cathedral,spatial_unmasking,2,77,0,0,_four_,talker-p248_sex-f_text-_four_.wav,p248,f,5,23,4.0,7.0,RX81,6,0.0,0.0,7.0,76.34149293193902,babble-reversed_n13_p318-five-p256-nine-p307-eight-p248-two-p245-four-p284-three.wav,2,RX81,3,0.0,0.0,4.0,87.57049330475357,mgb_normalisation,87.57049330475357,90.34149293193902,4,2.0,False,1.1875159740447998
,2024-06-27 12:12:01,sub_000,3,distance,cathedral,spatial_unmasking,2,78,0,0,_three_,talker-p248_sex-f_text-_three_.wav,p248,f,5,24,4.0,7.0,RX81,6,0.0,0.0,7.0,77.34149293193902,babble-reversed_n13_p229-three-p256-one-p307-two-p284-eight-p268-five-p248-nine.wav,2,RX81,3,0.0,0.0,4.0,87.57049330475357,mgb_normalisation,87.57049330475357,90.34149293193902,3,1.0,False,1.187516212463379
,2024-06-27 12:12:04,sub_000,3,distance,cathedral,spatial_unmasking,2,79,0,0,_two_,talker-p248_sex-f_text-_two_.wav,p248,f,5,25,4.0,7.0,RX81,6,0.0,0.0,7.0,78.34149293193902,babble-reversed_n13_p256-two-p307-five-p318-nine-p248-eight-p245-four-p284-one.wav,2,RX81,3,0.0,0.0,4.0,87.57049330475357,mgb_normalisation,87.57049330475357,90.34149293193902,2,2.0,True,0.9375119209289552
,2024-06-27 12:12:07,sub_000,3,distance,cathedral,spatial_unmasking,2,80,0,0,_five_,talker-p248_sex-f_text-_five_.wav,p248,f,5,26,4.0,7.0,RX81,6,0.0,0.0,7.0,78.341492931939,babble-reversed_n13_p229-five-p318-two-p307-eight-p268-three-p248-four-p245-one.wav,2,RX81,3,0.0,0.0,4.0,87.57049330475357,mgb_normalisation,87.57049330475357,90.34149293193902,5,5.0,True,0.8125128746032715
,2024-06-27 12:12:12,sub_000,3,distance,cathedral,spatial_unmasking,2,81,0,0,_three_,talker-p248_sex-f_text-_three_.wav,p248,f,5,27,4.0,7.0,RX81,6,0.0,0.0,7.0,77.34149293193902,babble-reversed_n13_p256-eight-p318-five-p307-four-p245-three-p268-one-p284-nine.wav,2,RX81,3,0.0,0.0,4.0,87.57049330475355,mgb_normalisation,87.57049330475357,90.34149293193902,3,2.0,False,2.5625340938568115
,2024-06-27 12:12:16,sub_000,3,distance,cathedral,spatial_unmasking,2,82,0,0,_three_,talker-p248_sex-f_text-_three_.wav,p248,f,5,28,4.0,7.0,RX81,6,0.0,0.0,7.0,78.34149293193902,babble-reversed_n13_p318-three-p229-one-p256-eight-p245-five-p248-four-p284-nine.wav,2,RX81,3,0.0,0.0,4.0,87.57049330475357,mgb_normalisation,87.57049330475357,90.34149293193902,3,3.0,True,1.1875159740447998
,2024-06-27 12:12:19,sub_000,3,distance,cathedral,spatial_unmasking,2,83,0,0,_one_,talker-p248_sex-f_text-_one_.wav,p248,f,5,29,4.0,7.0,RX81,6,0.0,0.0,7.0,78.34149293193902,babble-reversed_n13_p256-eight-p318-five-p307-four-p245-three-p268-one-p284-nine.wav,2,RX81,3,0.0,0.0,4.0,87.57049330475355,mgb_normalisation,87.57049330475357,90.34149293193902,1,1.0,True,0.8750119209289551
,2024-06-27 12:12:23,sub_000,3,distance,cathedral,spatial_unmasking,2,84,0,0,_three_,talker-p248_sex-f_text-_three_.wav,p248,f,5,30,4.0,7.0,RX81,6,0.0,0.0,7.0,77.34149293193902,babble-reversed_n13_p307-nine-p229-one-p256-eight-p248-four-p284-two-p268-three.wav,2,RX81,3,0.0,0.0,4.0,87.57049330475357,mgb_normalisation,87.57049330475357,90.34149293193902,3,3.0,True,1.0000133514404297
,2024-06-27 12:12:26,sub_000,3,distance,cathedral,spatial_unmasking,2,85,0,0,_two_,talker-p248_sex-f_text-_two_.wav,p248,f,5,31,4.0,7.0,RX81,6,0.0,0.0,7.0,77.34149293193903,babble-reversed_n13_p307-five-p229-three-p318-nine-p245-four-p268-eight-p284-two.wav,2,RX81,3,0.0,0.0,4.0,87.57049330475355,mgb_normalisation,87.57049330475357,90.34149293193902,2,2.0,True,0.875011682510376
,2024-06-27 12:12:29,sub_000,3,distance,cathedral,spatial_unmasking,2,86,0,0,_two_,talker-p248_sex-f_text-_two_.wav,p248,f,5,32,4.0,7.0,RX81,6,0.0,0.0,7.0,76.34149293193902,babble-reversed_n13_p229-two-p256-three-p318-eight-p284-five-p268-four-p245-one.wav,2,RX81,3,0.0,0.0,4.0,87.57049330475357,mgb_normalisation,87.57049330475357,90.34149293193902,2,2.0,True,0.9375121593475342
,2024-06-27 12:12:33,sub_000,3,distance,cathedral,spatial_unmasking,2,87,0,0,_two_,talker-p248_sex-f_text-_two_.wav,p248,f,5,33,4.0,7.0,RX81,6,0.0,0.0,7.0,76.34149293193902,babble-reversed_n13_p256-four-p229-two-p318-five-p268-one-p248-eight-p245-three.wav,2,RX81,3,0.0,0.0,4.0,87.57049330475355,mgb_normalisation,87.57049330475357,90.34149293193902,2,3.0,False,1.1249492168426514
,2024-06-27 12:12:37,sub_000,3,distance,cathedral,spatial_unmasking,2,88,0,0,_two_,talker-p248_sex-f_text-_two_.wav,p248,f,5,34,4.0,7.0,RX81,6,0.0,0.0,7.0,77.34149293193903,babble-reversed_n13_p229-five-p256-one-p318-three-p248-nine-p268-four-p284-eight.wav,2,RX81,3,0.0,0.0,4.0,87.57049330475355,mgb_normalisation,87.57049330475357,90.34149293193902,2,1.0,False,1.500019073486328
,2024-06-27 12:12:40,sub_000,3,distance,cathedral,spatial_unmasking,2,89,0,0,_three_,talker-p248_sex-f_text-_three_.wav,p248,f,5,35,4.0,7.0,RX81,6,0.0,0.0,7.0,78.34149293193902,babble-reversed_n13_p256-two-p307-five-p318-nine-p248-eight-p245-four-p284-one.wav,2,RX81,3,0.0,0.0,4.0,87.57049330475357,mgb_normalisation,87.57049330475357,90.34149293193902,3,3.0,True,0.9375123977661132
,2024-06-27 12:12:47,sub_000,3,distance,cathedral,spatial_unmasking,2,90,0,0,_two_,talker-p248_sex-f_text-_two_.wav,p248,f,5,36,4.0,7.0,RX81,6,0.0,0.0,7.0,78.34149293193902,babble-reversed_n13_p229-three-p256-nine-p318-five-p248-one-p245-eight-p284-two.wav,2,RX81,3,0.0,0.0,4.0,87.57049330475357,mgb_normalisation,87.57049330475357,90.34149293193902,2,1.0,False,5.000066757202148
,2024-06-27 12:12:51,sub_000,3,distance,cathedral,spatial_unmasking,2,91,0,0,_five_,talker-p248_sex-f_text-_five_.wav,p248,f,5,37,4.0,7.0,RX81,6,0.0,0.0,7.0,79.341492931939,babble-reversed_n13_p229-three-p307-one-p318-two-p245-eight-p268-five-p284-four.wav,2,RX81,3,0.0,0.0,4.0,87.57049330475357,mgb_normalisation,87.57049330475357,90.34149293193902,5,5.0,True,0.8124804496765137
,2024-06-27 12:12:54,sub_000,3,distance,cathedral,spatial_unmasking,2,92,0,0,_four_,talker-p248_sex-f_text-_four_.wav,p248,f,5,38,4.0,7.0,RX81,6,0.0,0.0,7.0,79.341492931939,babble-reversed_n13_p318-five-p256-nine-p307-two-p245-eight-p248-one-p284-four.wav,2,RX81,3,0.0,0.0,4.0,87.57049330475357,mgb_normalisation,87.57049330475357,90.34149293193902,4,4.0,True,0.5625050067901611
,2024-06-27 12:12:57,sub_000,3,distance,cathedral,spatial_unmasking,2,93,0,0,_five_,talker-p248_sex-f_text-_five_.wav,p248,f,5,39,4.0,7.0,RX81,6,0.0,0.0,7.0,78.341492931939,babble-reversed_n13_p256-four-p307-eight-p318-two-p248-three-p284-nine-p268-one.wav,2,RX81,3,0.0,0.0,4.0,87.57049330475357,mgb_normalisation,87.57049330475357,90.34149293193902,5,3.0,False,1.2500150203704834
,2024-06-27 12:13:01,sub_000,3,distance,cathedral,spatial_unmasking,2,94,0,0,_one_,talker-p248_sex-f_text-_one_.wav,p248,f,5,40,4.0,7.0,RX81,6,0.0,0.0,7.0,79.34149293193902,babble-reversed_n13_p229-nine-p256-four-p318-three-p268-eight-p248-two-p284-five.wav,2,RX81,3,0.0,0.0,4.0,87.57049330475357,mgb_normalisation,87.57049330475357,90.34149293193902,1,1.0,True,1.437519073486328
,2024-06-27 12:13:05,sub_000,3,distance,cathedral,spatial_unmasking,2,95,0,0,_two_,talker-p248_sex-f_text-_two_.wav,p248,f,5,41,4.0,7.0,RX81,6,0.0,0.0,7.0,79.34149293193902,babble-reversed_n13_p307-two-p229-one-p256-five-p248-nine-p284-three-p268-eight.wav,2,RX81,3,0.0,0.0,4.0,87.57049330475357,mgb_normalisation,87.57049330475357,90.34149293193902,2,2.0,True,1.5000197887420654
,2024-06-27 12:13:09,sub_000,3,distance,cathedral,spatial_unmasking,2,96,0,0,_three_,talker-p248_sex-f_text-_three_.wav,p248,f,5,42,4.0,7.0,RX81,6,0.0,0.0,7.0,78.34149293193902,babble-reversed_n13_p318-three-p229-one-p256-eight-p245-five-p248-four-p284-nine.wav,2,RX81,3,0.0,0.0,4.0,87.57049330475357,mgb_normalisation,87.57049330475357,90.34149293193902,3,3.0,True,1.3750181198120115
,2024-06-27 12:13:14,sub_000,3,distance,cathedral,spatial_unmasking,2,97,0,0,_one_,talker-p248_sex-f_text-_one_.wav,p248,f,5,43,4.0,7.0,RX81,6,0.0,0.0,7.0,78.34149293193902,babble-reversed_n13_p307-nine-p318-two-p256-one-p245-three-p268-four-p248-eight.wav,2,RX81,3,0.0,0.0,4.0,87.57049330475355,mgb_normalisation,87.57049330475357,90.34149293193902,1,1.0,True,3.000042200088501
,2024-06-27 12:13:19,sub_000,3,distance,cathedral,spatial_unmasking,2,98,0,0,_three_,talker-p248_sex-f_text-_three_.wav,p248,f,5,44,4.0,7.0,RX81,6,0.0,0.0,7.0,77.34149293193902,babble-reversed_n13_p229-two-p318-eight-p256-three-p268-one-p248-nine-p284-five.wav,2,RX81,3,0.0,0.0,4.0,87.57049330475355,mgb_normalisation,87.57049330475357,90.34149293193902,3,3.0,True,2.6875345706939697
,2024-06-27 12:13:22,sub_000,3,distance,cathedral,spatial_unmasking,2,99,0,0,_five_,talker-p248_sex-f_text-_five_.wav,p248,f,5,45,4.0,7.0,RX81,6,0.0,0.0,7.0,77.341492931939,babble-reversed_n13_p318-five-p256-nine-p307-two-p245-eight-p248-one-p284-four.wav,2,RX81,3,0.0,0.0,4.0,87.57049330475357,mgb_normalisation,87.57049330475357,90.34149293193902,5,5.0,True,0.8750114440917969
,2024-06-27 12:13:27,sub_000,3,distance,cathedral,spatial_unmasking,2,100,0,0,_three_,talker-p248_sex-f_text-_three_.wav,p248,f,5,46,4.0,7.0,RX81,6,0.0,0.0,7.0,76.34149293193902,babble-reversed_n13_p229-two-p318-eight-p256-three-p268-one-p248-nine-p284-five.wav,2,RX81,3,0.0,0.0,4.0,87.57049330475355,mgb_normalisation,87.57049330475357,90.34149293193902,3,2.0,False,2.437532901763916
,2024-06-27 12:13:31,sub_000,3,distance,cathedral,spatial_unmasking,2,101,0,0,_two_,talker-p248_sex-f_text-_two_.wav,p248,f,5,47,4.0,7.0,RX81,6,0.0,0.0,7.0,77.34149293193903,babble-reversed_n13_p256-eight-p318-five-p307-four-p245-three-p268-one-p284-nine.wav,2,RX81,3,0.0,0.0,4.0,87.57049330475355,mgb_normalisation,87.57049330475357,90.34149293193902,2,2.0,True,1.3125169277191162
,2024-06-27 12:13:35,sub_000,3,distance,cathedral,spatial_unmasking,2,102,0,0,_two_,talker-p248_sex-f_text-_two_.wav,p248,f,5,48,4.0,7.0,RX81,6,0.0,0.0,7.0,77.34149293193903,babble-reversed_n13_p318-five-p229-four-p256-eight-p284-one-p245-three-p248-two.wav,2,RX81,3,0.0,0.0,4.0,87.57049330475357,mgb_normalisation,87.57049330475357,90.34149293193902,2,3.0,False,1.937525987625122
,2024-06-27 12:13:40,sub_000,3,distance,cathedral,spatial_unmasking,2,103,0,0,_four_,talker-p248_sex-f_text-_four_.wav,p248,f,5,49,4.0,7.0,RX81,6,0.0,0.0,7.0,78.34149293193902,babble-reversed_n13_p229-two-p307-five-p318-four-p284-one-p248-nine-p268-eight.wav,2,RX81,3,0.0,0.0,4.0,87.57049330475357,mgb_normalisation,87.57049330475357,90.34149293193902,4,1.0,False,2.500034809112549
,2024-06-27 12:13:44,sub_000,3,distance,cathedral,spatial_unmasking,2,104,0,0,_four_,talker-p248_sex-f_text-_four_.wav,p248,f,5,50,4.0,7.0,RX81,6,0.0,0.0,7.0,79.341492931939,babble-reversed_n13_p256-eight-p318-two-p307-five-p245-four-p268-nine-p284-one.wav,2,RX81,3,0.0,0.0,4.0,87.57049330475357,mgb_normalisation,87.57049330475357,90.34149293193902,4,2.0,False,1.4375183582305908
,2024-06-27 12:13:48,sub_000,3,distance,cathedral,spatial_unmasking,2,105,0,0,_one_,talker-p248_sex-f_text-_one_.wav,p248,f,5,51,4.0,7.0,RX81,6,0.0,0.0,7.0,80.34149293193903,babble-reversed_n13_p229-three-p256-one-p307-two-p284-eight-p268-five-p248-nine.wav,2,RX81,3,0.0,0.0,4.0,87.57049330475357,mgb_normalisation,87.57049330475357,90.34149293193902,1,1.0,True,1.250016450881958
,2024-06-27 12:13:52,sub_000,3,distance,cathedral,spatial_unmasking,2,106,0,0,_two_,talker-p248_sex-f_text-_two_.wav,p248,f,5,52,4.0,7.0,RX81,6,0.0,0.0,7.0,80.34149293193903,babble-reversed_n13_p256-four-p307-eight-p318-two-p248-three-p284-nine-p268-one.wav,2,RX81,3,0.0,0.0,4.0,87.57049330475357,mgb_normalisation,87.57049330475357,90.34149293193902,2,2.0,True,2.125027894973755
,2024-06-27 12:13:58,sub_000,3,distance,cathedral,spatial_unmasking,2,107,0,0,_four_,talker-p248_sex-f_text-_four_.wav,p248,f,5,53,4.0,7.0,RX81,6,0.0,0.0,7.0,79.341492931939,babble-reversed_n13_p256-eight-p229-three-p307-nine-p245-five-p248-four-p268-two.wav,2,RX81,3,0.0,0.0,4.0,87.57049330475355,mgb_normalisation,87.57049330475357,90.34149293193902,4,4.0,True,3.6250479221344
,2024-06-27 12:14:04,sub_000,3,distance,cathedral,spatial_unmasking,2,108,0,0,_three_,talker-p248_sex-f_text-_three_.wav,p248,f,5,54,4.0,7.0,RX81,6,0.0,0.0,7.0,79.341492931939,babble-reversed_n13_p229-five-p318-two-p307-eight-p268-three-p248-four-p245-one.wav,2,RX81,3,0.0,0.0,4.0,87.57049330475357,mgb_normalisation,87.57049330475357,90.34149293193902,3,2.0,False,3.9375507831573486
,2024-06-27 12:14:09,sub_000,3,distance,cathedral,spatial_unmasking,2,109,0,0,_three_,talker-p248_sex-f_text-_three_.wav,p248,f,5,55,4.0,7.0,RX81,6,0.0,0.0,7.0,80.341492931939,babble-reversed_n13_p256-four-p307-eight-p318-two-p248-three-p284-nine-p268-one.wav,2,RX81,3,0.0,0.0,4.0,87.57049330475357,mgb_normalisation,87.57049330475357,90.34149293193902,3,3.0,True,1.7500231266021729
,2024-06-27 12:14:14,sub_000,3,distance,cathedral,spatial_unmasking,2,110,0,0,_three_,talker-p248_sex-f_text-_three_.wav,p248,f,5,56,4.0,7.0,RX81,6,0.0,0.0,7.0,80.341492931939,babble-reversed_n13_p229-nine-p307-five-p256-two-p248-three-p245-one-p268-eight.wav,2,RX81,3,0.0,0.0,4.0,87.57049330475357,mgb_normalisation,87.57049330475357,90.34149293193902,3,1.0,False,2.875038146972656
,2024-06-27 12:14:17,sub_000,3,distance,cathedral,spatial_unmasking,2,111,0,0,_two_,talker-p248_sex-f_text-_two_.wav,p248,f,5,57,4.0,7.0,RX81,6,0.0,0.0,7.0,81.34149293193902,babble-reversed_n13_p256-five-p307-nine-p318-three-p284-eight-p268-one-p248-two.wav,2,RX81,3,0.0,0.0,4.0,87.57049330475357,mgb_normalisation,87.57049330475357,90.34149293193902,2,2.0,True,0.875011682510376
,2024-06-27 12:14:21,sub_000,3,distance,cathedral,spatial_unmasking,2,112,0,0,_one_,talker-p248_sex-f_text-_one_.wav,p248,f,5,58,4.0,7.0,RX81,6,0.0,0.0,7.0,81.34149293193902,babble-reversed_n13_p229-five-p318-two-p307-eight-p268-three-p248-four-p245-one.wav,2,RX81,3,0.0,0.0,4.0,87.57049330475357,mgb_normalisation,87.57049330475357,90.34149293193902,1,1.0,True,1.437466382980347
,2024-06-27 12:14:44,sub_000,3,distance,cathedral,spatial_unmasking,3,113,0,0,_one_,talker-p248_sex-f_text-_one_.wav,p248,f,5,1,6.0,7.0,RX81,6,0.0,0.0,7.0,92.34149293193902,babble-reversed_n13_p256-three-p318-one-p307-two-p284-nine-p268-four-p245-eight.wav,4,RX81,5,0.0,0.0,6.0,89.31368318402099,mgb_normalisation,89.31368318402099,90.34149293193902,1,1.0,True,7.750102758407593
,2024-06-27 12:14:47,sub_000,3,distance,cathedral,spatial_unmasking,3,114,0,0,_one_,talker-p248_sex-f_text-_one_.wav,p248,f,5,2,6.0,7.0,RX81,6,0.0,0.0,7.0,88.34149293193903,babble-reversed_n13_p256-five-p229-one-p318-three-p248-nine-p284-eight-p268-two.wav,4,RX81,5,0.0,0.0,6.0,89.31368318402099,mgb_normalisation,89.31368318402099,90.34149293193902,1,1.0,True,1.0625133514404297
,2024-06-27 12:14:51,sub_000,3,distance,cathedral,spatial_unmasking,3,115,0,0,_two_,talker-p248_sex-f_text-_two_.wav,p248,f,5,3,6.0,7.0,RX81,6,0.0,0.0,7.0,84.34149293193903,babble-reversed_n13_p307-five-p229-two-p318-four-p248-three-p245-nine-p268-eight.wav,4,RX81,5,0.0,0.0,6.0,89.31368318402099,mgb_normalisation,89.31368318402099,90.34149293193902,2,2.0,True,1.1250147819519043
,2024-06-27 12:14:54,sub_000,3,distance,cathedral,spatial_unmasking,3,116,0,0,_three_,talker-p248_sex-f_text-_three_.wav,p248,f,5,4,6.0,7.0,RX81,6,0.0,0.0,7.0,80.341492931939,babble-reversed_n13_p256-three-p318-two-p229-nine-p248-four-p284-one-p268-eight.wav,4,RX81,5,0.0,0.0,6.0,89.31368318402099,mgb_normalisation,89.31368318402099,90.34149293193902,3,3.0,True,1.1250083446502686
,2024-06-27 12:15:01,sub_000,3,distance,cathedral,spatial_unmasking,3,117,0,0,_two_,talker-p248_sex-f_text-_two_.wav,p248,f,5,5,6.0,7.0,RX81,6,0.0,0.0,7.0,76.34149293193902,babble-reversed_n13_p229-one-p318-eight-p256-three-p268-nine-p248-five-p284-four.wav,4,RX81,5,0.0,0.0,6.0,89.31368318402099,mgb_normalisation,89.31368318402099,90.34149293193902,2,2.0,True,4.000053405761719
,2024-06-27 12:15:05,sub_000,3,distance,cathedral,spatial_unmasking,3,118,0,0,_four_,talker-p248_sex-f_text-_four_.wav,p248,f,5,6,6.0,7.0,RX81,6,0.0,0.0,7.0,72.34149293193902,babble-reversed_n13_p318-one-p307-two-p256-eight-p284-three-p248-five-p245-four.wav,4,RX81,5,0.0,0.0,6.0,89.313683184021,mgb_normalisation,89.31368318402099,90.34149293193902,4,2.0,False,2.440575122833252
,2024-06-27 12:15:09,sub_000,3,distance,cathedral,spatial_unmasking,3,119,0,0,_three_,talker-p248_sex-f_text-_three_.wav,p248,f,5,7,6.0,7.0,RX81,6,0.0,0.0,7.0,74.34149293193902,babble-reversed_n13_p256-five-p307-nine-p318-three-p284-eight-p268-one-p248-two.wav,4,RX81,5,0.0,0.0,6.0,89.31368318402099,mgb_normalisation,89.31368318402099,90.34149293193902,3,3.0,True,1.250016212463379
,2024-06-27 12:15:13,sub_000,3,distance,cathedral,spatial_unmasking,3,120,0,0,_three_,talker-p248_sex-f_text-_three_.wav,p248,f,5,8,6.0,7.0,RX81,6,0.0,0.0,7.0,74.34149293193902,babble-reversed_n13_p229-one-p318-eight-p256-three-p268-two-p245-five-p248-nine.wav,4,RX81,5,0.0,0.0,6.0,89.31368318402099,mgb_normalisation,89.31368318402099,90.34149293193902,3,1.0,False,1.3749992847442627
,2024-06-27 12:15:16,sub_000,3,distance,cathedral,spatial_unmasking,3,121,0,0,_five_,talker-p248_sex-f_text-_five_.wav,p248,f,5,9,6.0,7.0,RX81,6,0.0,0.0,7.0,76.34149293193902,babble-reversed_n13_p307-two-p256-four-p318-three-p284-eight-p248-five-p245-nine.wav,4,RX81,5,0.0,0.0,6.0,89.313683184021,mgb_normalisation,89.31368318402099,90.34149293193902,5,5.0,True,1.000014066696167
,2024-06-27 12:15:19,sub_000,3,distance,cathedral,spatial_unmasking,3,122,0,0,_five_,talker-p248_sex-f_text-_five_.wav,p248,f,5,10,6.0,7.0,RX81,6,0.0,0.0,7.0,76.34149293193902,babble-reversed_n13_p307-two-p256-four-p318-three-p284-eight-p248-five-p245-nine.wav,4,RX81,5,0.0,0.0,6.0,89.313683184021,mgb_normalisation,89.31368318402099,90.34149293193902,5,5.0,True,0.9375123977661132
,2024-06-27 12:15:24,sub_000,3,distance,cathedral,spatial_unmasking,3,123,0,0,_one_,talker-p248_sex-f_text-_one_.wav,p248,f,5,11,6.0,7.0,RX81,6,0.0,0.0,7.0,74.34149293193902,babble-reversed_n13_p318-five-p256-nine-p307-two-p245-eight-p248-one-p284-four.wav,4,RX81,5,0.0,0.0,6.0,89.313683184021,mgb_normalisation,89.31368318402099,90.34149293193902,1,1.0,True,2.125028133392334
,2024-06-27 12:15:28,sub_000,3,distance,cathedral,spatial_unmasking,3,124,0,0,_four_,talker-p248_sex-f_text-_four_.wav,p248,f,5,12,6.0,7.0,RX81,6,0.0,0.0,7.0,74.341492931939,babble-reversed_n13_p318-five-p229-three-p256-four-p268-eight-p248-one-p245-nine.wav,4,RX81,5,0.0,0.0,6.0,89.31368318402099,mgb_normalisation,89.31368318402099,90.34149293193902,4,1.0,False,1.8125247955322263
,2024-06-27 12:15:32,sub_000,3,distance,cathedral,spatial_unmasking,3,125,0,0,_two_,talker-p248_sex-f_text-_two_.wav,p248,f,5,13,6.0,7.0,RX81,6,0.0,0.0,7.0,75.34149293193903,babble-reversed_n13_p229-one-p318-eight-p256-three-p268-two-p245-five-p248-nine.wav,4,RX81,5,0.0,0.0,6.0,89.31368318402099,mgb_normalisation,89.31368318402099,90.34149293193902,2,2.0,True,1.812519073486328
,2024-06-27 12:15:36,sub_000,3,distance,cathedral,spatial_unmasking,3,126,0,0,_five_,talker-p248_sex-f_text-_five_.wav,p248,f,5,14,6.0,7.0,RX81,6,0.0,0.0,7.0,75.341492931939,babble-reversed_n13_p229-five-p318-two-p307-eight-p268-three-p248-four-p245-one.wav,4,RX81,5,0.0,0.0,6.0,89.313683184021,mgb_normalisation,89.31368318402099,90.34149293193902,5,5.0,True,1.062514305114746
,2024-06-27 12:15:40,sub_000,3,distance,cathedral,spatial_unmasking,3,127,0,0,_four_,talker-p248_sex-f_text-_four_.wav,p248,f,5,15,6.0,7.0,RX81,6,0.0,0.0,7.0,74.341492931939,babble-reversed_n13_p229-nine-p256-four-p318-three-p268-eight-p248-two-p284-five.wav,4,RX81,5,0.0,0.0,6.0,89.31368318402099,mgb_normalisation,89.31368318402099,90.34149293193902,4,2.0,False,1.5000200271606443
,2024-06-27 12:15:44,sub_000,3,distance,cathedral,spatial_unmasking,3,128,0,0,_four_,talker-p248_sex-f_text-_four_.wav,p248,f,5,16,6.0,7.0,RX81,6,0.0,0.0,7.0,75.34149293193902,babble-reversed_n13_p229-two-p318-eight-p256-three-p268-one-p248-nine-p284-five.wav,4,RX81,5,0.0,0.0,6.0,89.31368318402099,mgb_normalisation,89.31368318402099,90.34149293193902,4,1.0,False,1.8125243186950684
,2024-06-27 12:15:48,sub_000,3,distance,cathedral,spatial_unmasking,3,129,0,0,_four_,talker-p248_sex-f_text-_four_.wav,p248,f,5,17,6.0,7.0,RX81,6,0.0,0.0,7.0,76.34149293193902,babble-reversed_n13_p307-five-p229-two-p318-four-p248-three-p245-nine-p268-eight.wav,4,RX81,5,0.0,0.0,6.0,89.31368318402099,mgb_normalisation,89.31368318402099,90.34149293193902,4,2.0,False,1.8125238418579104
,2024-06-27 12:15:52,sub_000,3,distance,cathedral,spatial_unmasking,3,130,0,0,_three_,talker-p248_sex-f_text-_three_.wav,p248,f,5,18,6.0,7.0,RX81,6,0.0,0.0,7.0,77.34149293193902,babble-reversed_n13_p256-three-p318-one-p307-two-p284-nine-p268-four-p245-eight.wav,4,RX81,5,0.0,0.0,6.0,89.31368318402099,mgb_normalisation,89.31368318402099,90.34149293193902,3,2.0,False,1.875025510787964
,2024-06-27 12:15:56,sub_000,3,distance,cathedral,spatial_unmasking,3,131,0,0,_three_,talker-p248_sex-f_text-_three_.wav,p248,f,5,19,6.0,7.0,RX81,6,0.0,0.0,7.0,78.34149293193902,babble-reversed_n13_p256-four-p229-two-p318-five-p268-one-p248-eight-p245-three.wav,4,RX81,5,0.0,0.0,6.0,89.31368318402099,mgb_normalisation,89.31368318402099,90.34149293193902,3,3.0,True,1.0624899864196775
,2024-06-27 12:15:59,sub_000,3,distance,cathedral,spatial_unmasking,3,132,0,0,_five_,talker-p248_sex-f_text-_five_.wav,p248,f,5,20,6.0,7.0,RX81,6,0.0,0.0,7.0,78.341492931939,babble-reversed_n13_p229-five-p318-two-p307-eight-p268-three-p248-four-p245-one.wav,4,RX81,5,0.0,0.0,6.0,89.313683184021,mgb_normalisation,89.31368318402099,90.34149293193902,5,5.0,True,1.062497615814209
,2024-06-27 12:16:04,sub_000,3,distance,cathedral,spatial_unmasking,3,133,0,0,_three_,talker-p248_sex-f_text-_three_.wav,p248,f,5,21,6.0,7.0,RX81,6,0.0,0.0,7.0,77.34149293193902,babble-reversed_n13_p318-five-p256-nine-p307-eight-p248-two-p245-four-p284-three.wav,4,RX81,5,0.0,0.0,6.0,89.31368318402099,mgb_normalisation,89.31368318402099,90.34149293193902,3,3.0,True,2.000026226043701
,2024-06-27 12:16:07,sub_000,3,distance,cathedral,spatial_unmasking,3,134,0,0,_one_,talker-p248_sex-f_text-_one_.wav,p248,f,5,22,6.0,7.0,RX81,6,0.0,0.0,7.0,77.34149293193903,babble-reversed_n13_p256-five-p307-nine-p318-three-p284-eight-p268-one-p248-two.wav,4,RX81,5,0.0,0.0,6.0,89.31368318402099,mgb_normalisation,89.31368318402099,90.34149293193902,1,1.0,True,1.0625145435333252
,2024-06-27 12:16:11,sub_000,3,distance,cathedral,spatial_unmasking,3,135,0,0,_one_,talker-p248_sex-f_text-_one_.wav,p248,f,5,23,6.0,7.0,RX81,6,0.0,0.0,7.0,76.34149293193902,babble-reversed_n13_p307-nine-p318-two-p256-one-p245-three-p268-four-p248-eight.wav,4,RX81,5,0.0,0.0,6.0,89.31368318402099,mgb_normalisation,89.31368318402099,90.34149293193902,1,1.0,True,0.8750112056732178
,2024-06-27 12:16:20,sub_000,3,distance,cathedral,spatial_unmasking,3,136,0,0,_four_,talker-p248_sex-f_text-_four_.wav,p248,f,5,24,6.0,7.0,RX81,6,0.0,0.0,7.0,76.34149293193902,babble-reversed_n13_p229-three-p256-nine-p318-five-p248-one-p245-eight-p284-two.wav,4,RX81,5,0.0,0.0,6.0,89.31368318402099,mgb_normalisation,89.31368318402099,90.34149293193902,4,2.0,False,7.56260085105896
,2024-06-27 12:16:24,sub_000,3,distance,cathedral,spatial_unmasking,3,137,0,0,_five_,talker-p248_sex-f_text-_five_.wav,p248,f,5,25,6.0,7.0,RX81,6,0.0,0.0,7.0,77.341492931939,babble-reversed_n13_p307-one-p318-five-p229-four-p268-eight-p284-two-p245-three.wav,4,RX81,5,0.0,0.0,6.0,89.31368318402099,mgb_normalisation,89.31368318402099,90.34149293193902,5,5.0,True,0.8750758171081543
,2024-06-27 12:16:27,sub_000,3,distance,cathedral,spatial_unmasking,3,138,0,0,_five_,talker-p248_sex-f_text-_five_.wav,p248,f,5,26,6.0,7.0,RX81,6,0.0,0.0,7.0,77.341492931939,babble-reversed_n13_p318-three-p307-one-p256-five-p248-nine-p245-two-p284-eight.wav,4,RX81,5,0.0,0.0,6.0,89.31368318402099,mgb_normalisation,89.31368318402099,90.34149293193902,5,5.0,True,1.0000131130218506
,2024-06-27 12:16:31,sub_000,3,distance,cathedral,spatial_unmasking,3,139,0,0,_three_,talker-p248_sex-f_text-_three_.wav,p248,f,5,27,6.0,7.0,RX81,6,0.0,0.0,7.0,76.34149293193902,babble-reversed_n13_p256-three-p318-two-p229-nine-p248-four-p284-one-p268-eight.wav,4,RX81,5,0.0,0.0,6.0,89.31368318402099,mgb_normalisation,89.31368318402099,90.34149293193902,3,3.0,True,1.062518835067749
,2024-06-27 12:16:34,sub_000,3,distance,cathedral,spatial_unmasking,3,140,0,0,_two_,talker-p248_sex-f_text-_two_.wav,p248,f,5,28,6.0,7.0,RX81,6,0.0,0.0,7.0,76.34149293193902,babble-reversed_n13_p229-nine-p256-four-p318-three-p268-eight-p248-two-p284-five.wav,4,RX81,5,0.0,0.0,6.0,89.31368318402099,mgb_normalisation,89.31368318402099,90.34149293193902,2,2.0,True,1.000014305114746
,2024-06-27 12:16:38,sub_000,3,distance,cathedral,spatial_unmasking,3,141,0,0,_three_,talker-p248_sex-f_text-_three_.wav,p248,f,5,29,6.0,7.0,RX81,6,0.0,0.0,7.0,75.34149293193902,babble-reversed_n13_p229-two-p318-eight-p256-three-p268-one-p248-nine-p284-five.wav,4,RX81,5,0.0,0.0,6.0,89.31368318402099,mgb_normalisation,89.31368318402099,90.34149293193902,3,1.0,False,2.000092029571533
,2024-06-27 12:16:42,sub_000,3,distance,cathedral,spatial_unmasking,3,142,0,0,_two_,talker-p248_sex-f_text-_two_.wav,p248,f,5,30,6.0,7.0,RX81,6,0.0,0.0,7.0,76.34149293193902,babble-reversed_n13_p229-two-p256-three-p318-eight-p284-five-p268-four-p245-one.wav,4,RX81,5,0.0,0.0,6.0,89.31368318402099,mgb_normalisation,89.31368318402099,90.34149293193902,2,2.0,True,0.9375128746032716
,2024-06-27 12:16:47,sub_000,3,distance,cathedral,spatial_unmasking,3,143,0,0,_one_,talker-p248_sex-f_text-_one_.wav,p248,f,5,31,6.0,7.0,RX81,6,0.0,0.0,7.0,76.34149293193902,babble-reversed_n13_p318-nine-p307-eight-p229-two-p284-one-p248-three-p245-five.wav,4,RX81,5,0.0,0.0,6.0,89.31368318402099,mgb_normalisation,89.31368318402099,90.34149293193902,1,1.0,True,2.4375314712524414
,2024-06-27 12:16:51,sub_000,3,distance,cathedral,spatial_unmasking,3,144,0,0,_two_,talker-p248_sex-f_text-_two_.wav,p248,f,5,32,6.0,7.0,RX81,6,0.0,0.0,7.0,75.34149293193903,babble-reversed_n13_p256-three-p318-one-p307-two-p284-nine-p268-four-p245-eight.wav,4,RX81,5,0.0,0.0,6.0,89.31368318402099,mgb_normalisation,89.31368318402099,90.34149293193902,2,2.0,True,1.9375262260437007
,2024-06-27 12:16:54,sub_000,3,distance,cathedral,spatial_unmasking,3,145,0,0,_five_,talker-p248_sex-f_text-_five_.wav,p248,f,5,33,6.0,7.0,RX81,6,0.0,0.0,7.0,75.341492931939,babble-reversed_n13_p229-three-p307-one-p318-two-p245-eight-p268-five-p284-four.wav,4,RX81,5,0.0,0.0,6.0,89.31368318402099,mgb_normalisation,89.31368318402099,90.34149293193902,5,5.0,True,0.8749840259552002
,2024-06-27 12:16:58,sub_000,3,distance,cathedral,spatial_unmasking,3,146,0,0,_one_,talker-p248_sex-f_text-_one_.wav,p248,f,5,34,6.0,7.0,RX81,6,0.0,0.0,7.0,74.34149293193902,babble-reversed_n13_p318-nine-p307-eight-p229-two-p284-one-p248-three-p245-five.wav,4,RX81,5,0.0,0.0,6.0,89.31368318402099,mgb_normalisation,89.31368318402099,90.34149293193902,1,1.0,True,2.00002670288086
,2024-06-27 12:17:02,sub_000,3,distance,cathedral,spatial_unmasking,3,147,0,0,_three_,talker-p248_sex-f_text-_three_.wav,p248,f,5,35,6.0,7.0,RX81,6,0.0,0.0,7.0,74.34149293193902,babble-reversed_n13_p318-five-p256-nine-p307-eight-p248-two-p245-four-p284-three.wav,4,RX81,5,0.0,0.0,6.0,89.31368318402099,mgb_normalisation,89.31368318402099,90.34149293193902,3,2.0,False,1.187516212463379
,2024-06-27 12:17:06,sub_000,3,distance,cathedral,spatial_unmasking,3,148,0,0,_one_,talker-p248_sex-f_text-_one_.wav,p248,f,5,36,6.0,7.0,RX81,6,0.0,0.0,7.0,75.34149293193903,babble-reversed_n13_p256-nine-p307-four-p229-one-p284-three-p248-two-p245-five.wav,4,RX81,5,0.0,0.0,6.0,89.31368318402099,mgb_normalisation,89.31368318402099,90.34149293193902,1,1.0,True,1.8125238418579104
,2024-06-27 12:17:10,sub_000,3,distance,cathedral,spatial_unmasking,3,149,0,0,_three_,talker-p248_sex-f_text-_three_.wav,p248,f,5,37,6.0,7.0,RX81,6,0.0,0.0,7.0,75.34149293193902,babble-reversed_n13_p318-nine-p307-eight-p229-two-p284-one-p248-three-p245-five.wav,4,RX81,5,0.0,0.0,6.0,89.31368318402099,mgb_normalisation,89.31368318402099,90.34149293193902,3,3.0,True,0.9375660419464112
,2024-06-27 12:17:14,sub_000,3,distance,cathedral,spatial_unmasking,3,150,0,0,_one_,talker-p248_sex-f_text-_one_.wav,p248,f,5,38,6.0,7.0,RX81,6,0.0,0.0,7.0,74.34149293193902,babble-reversed_n13_p307-four-p318-three-p256-eight-p284-two-p245-nine-p248-five.wav,4,RX81,5,0.0,0.0,6.0,89.31368318402099,mgb_normalisation,89.31368318402099,90.34149293193902,1,1.0,True,2.0000269412994385
,2024-06-27 12:17:18,sub_000,3,distance,cathedral,spatial_unmasking,3,151,0,0,_five_,talker-p248_sex-f_text-_five_.wav,p248,f,5,39,6.0,7.0,RX81,6,0.0,0.0,7.0,74.341492931939,babble-reversed_n13_p229-three-p256-one-p307-two-p284-eight-p268-five-p248-nine.wav,4,RX81,5,0.0,0.0,6.0,89.31368318402099,mgb_normalisation,89.31368318402099,90.34149293193902,5,5.0,True,1.6250221729278564
,2024-06-27 12:17:23,sub_000,3,distance,cathedral,spatial_unmasking,3,152,0,0,_five_,talker-p248_sex-f_text-_five_.wav,p248,f,5,40,6.0,7.0,RX81,6,0.0,0.0,7.0,73.341492931939,babble-reversed_n13_p318-five-p229-three-p256-four-p268-eight-p248-one-p245-nine.wav,4,RX81,5,0.0,0.0,6.0,89.31368318402099,mgb_normalisation,89.31368318402099,90.34149293193902,5,2.0,False,2.3750314712524414
,2024-06-27 12:17:28,sub_000,3,distance,cathedral,spatial_unmasking,3,153,0,0,_one_,talker-p248_sex-f_text-_one_.wav,p248,f,5,41,6.0,7.0,RX81,6,0.0,0.0,7.0,74.34149293193902,babble-reversed_n13_p229-three-p256-nine-p318-five-p248-one-p245-eight-p284-two.wav,4,RX81,5,0.0,0.0,6.0,89.31368318402099,mgb_normalisation,89.31368318402099,90.34149293193902,1,4.0,False,3.12503981590271
,2024-06-27 12:17:32,sub_000,3,distance,cathedral,spatial_unmasking,3,154,0,0,_one_,talker-p248_sex-f_text-_one_.wav,p248,f,5,42,6.0,7.0,RX81,6,0.0,0.0,7.0,75.34149293193903,babble-reversed_n13_p256-two-p307-five-p318-nine-p248-eight-p245-four-p284-one.wav,4,RX81,5,0.0,0.0,6.0,89.31368318402099,mgb_normalisation,89.31368318402099,90.34149293193902,1,1.0,True,1.3125174045562744
,2024-06-27 12:17:35,sub_000,3,distance,cathedral,spatial_unmasking,3,155,0,0,_four_,talker-p248_sex-f_text-_four_.wav,p248,f,5,43,6.0,7.0,RX81,6,0.0,0.0,7.0,75.34149293193902,babble-reversed_n13_p229-five-p256-three-p318-nine-p248-two-p284-four-p268-one.wav,4,RX81,5,0.0,0.0,6.0,89.313683184021,mgb_normalisation,89.31368318402099,90.34149293193902,4,2.0,False,1.1250157356262207
,2024-06-27 12:17:39,sub_000,3,distance,cathedral,spatial_unmasking,3,156,0,0,_four_,talker-p248_sex-f_text-_four_.wav,p248,f,5,44,6.0,7.0,RX81,6,0.0,0.0,7.0,76.34149293193902,babble-reversed_n13_p256-five-p307-nine-p318-three-p284-eight-p268-one-p248-two.wav,4,RX81,5,0.0,0.0,6.0,89.31368318402099,mgb_normalisation,89.31368318402099,90.34149293193902,4,2.0,False,1.250016450881958
,2024-06-27 12:17:43,sub_000,3,distance,cathedral,spatial_unmasking,3,157,0,0,_four_,talker-p248_sex-f_text-_four_.wav,p248,f,5,45,6.0,7.0,RX81,6,0.0,0.0,7.0,77.341492931939,babble-reversed_n13_p229-nine-p318-one-p307-two-p248-eight-p245-five-p284-four.wav,4,RX81,5,0.0,0.0,6.0,89.31368318402099,mgb_normalisation,89.31368318402099,90.34149293193902,4,4.0,True,1.7500882148742676
,2024-06-27 12:17:47,sub_000,3,distance,cathedral,spatial_unmasking,3,158,0,0,_three_,talker-p248_sex-f_text-_three_.wav,p248,f,5,46,6.0,7.0,RX81,6,0.0,0.0,7.0,77.34149293193902,babble-reversed_n13_p256-three-p318-two-p229-nine-p248-four-p284-one-p268-eight.wav,4,RX81,5,0.0,0.0,6.0,89.31368318402099,mgb_normalisation,89.31368318402099,90.34149293193902,3,3.0,True,0.9375126361846924
,2024-06-27 12:17:50,sub_000,3,distance,cathedral,spatial_unmasking,3,159,0,0,_five_,talker-p248_sex-f_text-_five_.wav,p248,f,5,47,6.0,7.0,RX81,6,0.0,0.0,7.0,76.34149293193902,babble-reversed_n13_p307-two-p256-four-p318-three-p284-eight-p248-five-p245-nine.wav,4,RX81,5,0.0,0.0,6.0,89.313683184021,mgb_normalisation,89.31368318402099,90.34149293193902,5,5.0,True,0.8125107288360596
,2024-06-27 12:17:53,sub_000,3,distance,cathedral,spatial_unmasking,3,160,0,0,_three_,talker-p248_sex-f_text-_three_.wav,p248,f,5,48,6.0,7.0,RX81,6,0.0,0.0,7.0,76.34149293193902,babble-reversed_n13_p318-three-p229-one-p256-eight-p245-five-p248-four-p284-nine.wav,4,RX81,5,0.0,0.0,6.0,89.313683184021,mgb_normalisation,89.31368318402099,90.34149293193902,3,3.0,True,1.0624635219573977
,2024-06-27 12:17:56,sub_000,3,distance,cathedral,spatial_unmasking,3,161,0,0,_three_,talker-p248_sex-f_text-_three_.wav,p248,f,5,49,6.0,7.0,RX81,6,0.0,0.0,7.0,75.34149293193902,babble-reversed_n13_p256-four-p307-eight-p318-two-p248-three-p284-nine-p268-one.wav,4,RX81,5,0.0,0.0,6.0,89.313683184021,mgb_normalisation,89.31368318402099,90.34149293193902,3,3.0,True,0.8125102519989014
,2024-06-27 12:18:01,sub_000,3,distance,cathedral,spatial_unmasking,3,162,0,0,_two_,talker-p248_sex-f_text-_two_.wav,p248,f,5,50,6.0,7.0,RX81,6,0.0,0.0,7.0,75.34149293193903,babble-reversed_n13_p318-three-p307-one-p256-five-p248-nine-p245-two-p284-eight.wav,4,RX81,5,0.0,0.0,6.0,89.31368318402099,mgb_normalisation,89.31368318402099,90.34149293193902,2,2.0,True,2.062576532363892
,2024-06-27 12:18:04,sub_000,3,distance,cathedral,spatial_unmasking,3,163,0,0,_five_,talker-p248_sex-f_text-_five_.wav,p248,f,5,51,6.0,7.0,RX81,6,0.0,0.0,7.0,74.341492931939,babble-reversed_n13_p229-three-p256-one-p307-two-p284-eight-p268-five-p248-nine.wav,4,RX81,5,0.0,0.0,6.0,89.31368318402099,mgb_normalisation,89.31368318402099,90.34149293193902,5,5.0,True,1.0000133514404297
,2024-06-27 12:18:09,sub_000,3,distance,cathedral,spatial_unmasking,3,164,0,0,_one_,talker-p248_sex-f_text-_one_.wav,p248,f,5,52,6.0,7.0,RX81,6,0.0,0.0,7.0,74.34149293193902,babble-reversed_n13_p229-five-p318-three-p307-two-p245-four-p284-nine-p248-eight.wav,4,RX81,5,0.0,0.0,6.0,89.31368318402099,mgb_normalisation,89.31368318402099,90.34149293193902,1,2.0,False,2.1250741481781006
,2024-06-27 12:18:12,sub_000,3,distance,cathedral,spatial_unmasking,3,165,0,0,_two_,talker-p248_sex-f_text-_two_.wav,p248,f,5,53,6.0,7.0,RX81,6,0.0,0.0,7.0,75.34149293193903,babble-reversed_n13_p307-four-p318-three-p256-eight-p284-two-p245-nine-p248-five.wav,4,RX81,5,0.0,0.0,6.0,89.31368318402099,mgb_normalisation,89.31368318402099,90.34149293193902,2,3.0,False,1.0000133514404297
,2024-06-27 12:18:17,sub_000,3,distance,cathedral,spatial_unmasking,3,166,0,0,_one_,talker-p248_sex-f_text-_one_.wav,p248,f,5,54,6.0,7.0,RX81,6,0.0,0.0,7.0,76.34149293193902,babble-reversed_n13_p229-one-p318-eight-p256-three-p268-two-p245-five-p248-nine.wav,4,RX81,5,0.0,0.0,6.0,89.31368318402099,mgb_normalisation,89.31368318402099,90.34149293193902,1,1.0,True,2.062526226043701
,2024-06-27 12:18:21,sub_000,3,distance,cathedral,spatial_unmasking,3,167,0,0,_one_,talker-p248_sex-f_text-_one_.wav,p248,f,5,55,6.0,7.0,RX81,6,0.0,0.0,7.0,76.34149293193902,babble-reversed_n13_p229-eight-p256-nine-p318-four-p245-three-p268-five-p284-two.wav,4,RX81,5,0.0,0.0,6.0,89.31368318402099,mgb_normalisation,89.31368318402099,90.34149293193902,1,2.0,False,1.812523365020752
,2024-06-27 12:18:24,sub_000,3,distance,cathedral,spatial_unmasking,3,168,0,0,_five_,talker-p248_sex-f_text-_five_.wav,p248,f,5,56,6.0,7.0,RX81,6,0.0,0.0,7.0,77.341492931939,babble-reversed_n13_p229-three-p256-one-p307-two-p284-eight-p268-five-p248-nine.wav,4,RX81,5,0.0,0.0,6.0,89.31368318402099,mgb_normalisation,89.31368318402099,90.34149293193902,5,5.0,True,0.9375126361846924
,2024-06-27 12:18:28,sub_000,3,distance,cathedral,spatial_unmasking,3,169,0,0,_five_,talker-p248_sex-f_text-_five_.wav,p248,f,5,57,6.0,7.0,RX81,6,0.0,0.0,7.0,77.341492931939,babble-reversed_n13_p229-five-p256-three-p318-nine-p248-two-p284-four-p268-one.wav,4,RX81,5,0.0,0.0,6.0,89.313683184021,mgb_normalisation,89.31368318402099,90.34149293193902,5,5.0,True,1.8125250339508057
,2024-06-27 12:19:17,sub_000,3,distance,cathedral,spatial_unmasking,4,170,0,0,_three_,talker-p248_sex-f_text-_three_.wav,p248,f,5,1,10.0,7.0,RX81,6,0.0,0.0,7.0,92.34149293193902,babble-reversed_n13_p256-four-p307-eight-p318-two-p248-three-p284-nine-p268-one.wav,8,RX81,9,0.0,0.0,10.0,92.0152836843556,mgb_normalisation,92.0152836843556,90.34149293193902,3,3.0,True,7.687668085098267
,2024-06-27 12:19:20,sub_000,3,distance,cathedral,spatial_unmasking,4,171,0,0,_one_,talker-p248_sex-f_text-_one_.wav,p248,f,5,2,10.0,7.0,RX81,6,0.0,0.0,7.0,88.34149293193903,babble-reversed_n13_p318-three-p307-one-p256-five-p248-nine-p245-two-p284-eight.wav,8,RX81,9,0.0,0.0,10.0,92.0152836843556,mgb_normalisation,92.0152836843556,90.34149293193902,1,1.0,True,1.250016450881958
,2024-06-27 12:19:24,sub_000,3,distance,cathedral,spatial_unmasking,4,172,0,0,_five_,talker-p248_sex-f_text-_five_.wav,p248,f,5,3,10.0,7.0,RX81,6,0.0,0.0,7.0,84.341492931939,babble-reversed_n13_p318-three-p307-one-p256-five-p248-nine-p245-two-p284-eight.wav,8,RX81,9,0.0,0.0,10.0,92.0152836843556,mgb_normalisation,92.0152836843556,90.34149293193902,5,5.0,True,1.1250157356262207
,2024-06-27 12:19:28,sub_000,3,distance,cathedral,spatial_unmasking,4,173,0,0,_three_,talker-p248_sex-f_text-_three_.wav,p248,f,5,4,10.0,7.0,RX81,6,0.0,0.0,7.0,80.341492931939,babble-reversed_n13_p256-four-p229-eight-p307-five-p248-three-p245-one-p284-two.wav,8,RX81,9,0.0,0.0,10.0,92.0152836843556,mgb_normalisation,92.0152836843556,90.34149293193902,3,3.0,True,1.562520980834961
,2024-06-27 12:19:32,sub_000,3,distance,cathedral,spatial_unmasking,4,174,0,0,_four_,talker-p248_sex-f_text-_four_.wav,p248,f,5,5,10.0,7.0,RX81,6,0.0,0.0,7.0,76.34149293193902,babble-reversed_n13_p307-two-p256-four-p318-three-p284-eight-p248-five-p245-nine.wav,8,RX81,9,0.0,0.0,10.0,92.0152836843556,mgb_normalisation,92.0152836843556,90.34149293193902,4,2.0,False,1.312517166137695
,2024-06-27 12:19:36,sub_000,3,distance,cathedral,spatial_unmasking,4,175,0,0,_four_,talker-p248_sex-f_text-_four_.wav,p248,f,5,6,10.0,7.0,RX81,6,0.0,0.0,7.0,78.34149293193902,babble-reversed_n13_p229-two-p318-eight-p256-three-p268-one-p248-nine-p284-five.wav,8,RX81,9,0.0,0.0,10.0,92.0152836843556,mgb_normalisation,92.0152836843556,90.34149293193902,4,1.0,False,1.3750183582305908
,2024-06-27 12:19:40,sub_000,3,distance,cathedral,spatial_unmasking,4,176,0,0,_four_,talker-p248_sex-f_text-_four_.wav,p248,f,5,7,10.0,7.0,RX81,6,0.0,0.0,7.0,80.341492931939,babble-reversed_n13_p256-three-p318-two-p229-nine-p248-four-p284-one-p268-eight.wav,8,RX81,9,0.0,0.0,10.0,92.0152836843556,mgb_normalisation,92.0152836843556,90.34149293193902,4,4.0,True,1.6250221729278564
,2024-06-27 12:19:43,sub_000,3,distance,cathedral,spatial_unmasking,4,177,0,0,_five_,talker-p248_sex-f_text-_five_.wav,p248,f,5,8,10.0,7.0,RX81,6,0.0,0.0,7.0,80.341492931939,babble-reversed_n13_p256-three-p318-two-p229-nine-p248-four-p284-one-p268-eight.wav,8,RX81,9,0.0,0.0,10.0,92.0152836843556,mgb_normalisation,92.0152836843556,90.34149293193902,5,5.0,True,1.3750176429748535
,2024-06-27 12:19:47,sub_000,3,distance,cathedral,spatial_unmasking,4,178,0,0,_two_,talker-p248_sex-f_text-_two_.wav,p248,f,5,9,10.0,7.0,RX81,6,0.0,0.0,7.0,78.34149293193902,babble-reversed_n13_p307-nine-p229-one-p256-eight-p248-four-p284-two-p268-three.wav,8,RX81,9,0.0,0.0,10.0,92.0152836843556,mgb_normalisation,92.0152836843556,90.34149293193902,2,3.0,False,1.1874871253967283
,2024-06-27 12:19:52,sub_000,3,distance,cathedral,spatial_unmasking,4,179,0,0,_four_,talker-p248_sex-f_text-_four_.wav,p248,f,5,10,10.0,7.0,RX81,6,0.0,0.0,7.0,79.341492931939,babble-reversed_n13_p307-two-p229-one-p256-five-p248-nine-p284-three-p268-eight.wav,8,RX81,9,0.0,0.0,10.0,92.0152836843556,mgb_normalisation,92.0152836843556,90.34149293193902,4,1.0,False,2.749972343444824
,2024-06-27 12:19:56,sub_000,3,distance,cathedral,spatial_unmasking,4,180,0,0,_one_,talker-p248_sex-f_text-_one_.wav,p248,f,5,11,10.0,7.0,RX81,6,0.0,0.0,7.0,80.34149293193903,babble-reversed_n13_p307-nine-p229-one-p256-eight-p248-four-p284-two-p268-three.wav,8,RX81,9,0.0,0.0,10.0,92.0152836843556,mgb_normalisation,92.0152836843556,90.34149293193902,1,1.0,True,1.0624895095825195
,2024-06-27 12:19:59,sub_000,3,distance,cathedral,spatial_unmasking,4,181,0,0,_four_,talker-p248_sex-f_text-_four_.wav,p248,f,5,12,10.0,7.0,RX81,6,0.0,0.0,7.0,80.341492931939,babble-reversed_n13_p318-nine-p307-eight-p229-two-p284-one-p248-three-p245-five.wav,8,RX81,9,0.0,0.0,10.0,92.0152836843556,mgb_normalisation,92.0152836843556,90.34149293193902,4,4.0,True,1.1874876022338867
,2024-06-27 12:20:03,sub_000,3,distance,cathedral,spatial_unmasking,4,182,0,0,_two_,talker-p248_sex-f_text-_two_.wav,p248,f,5,13,10.0,7.0,RX81,6,0.0,0.0,7.0,79.34149293193902,babble-reversed_n13_p307-five-p229-two-p318-four-p248-three-p245-nine-p268-eight.wav,8,RX81,9,0.0,0.0,10.0,92.0152836843556,mgb_normalisation,92.0152836843556,90.34149293193902,2,2.0,True,1.3124876022338867
,2024-06-27 12:20:07,sub_000,3,distance,cathedral,spatial_unmasking,4,183,0,0,_three_,talker-p248_sex-f_text-_three_.wav,p248,f,5,14,10.0,7.0,RX81,6,0.0,0.0,7.0,79.341492931939,babble-reversed_n13_p229-nine-p256-four-p318-three-p268-eight-p248-two-p284-five.wav,8,RX81,9,0.0,0.0,10.0,92.0152836843556,mgb_normalisation,92.0152836843556,90.34149293193902,3,3.0,True,1.4999847412109375
,2024-06-27 12:20:10,sub_000,3,distance,cathedral,spatial_unmasking,4,184,0,0,_one_,talker-p248_sex-f_text-_one_.wav,p248,f,5,15,10.0,7.0,RX81,6,0.0,0.0,7.0,78.34149293193902,babble-reversed_n13_p229-five-p256-one-p318-three-p248-nine-p268-four-p284-eight.wav,8,RX81,9,0.0,0.0,10.0,92.0152836843556,mgb_normalisation,92.0152836843556,90.34149293193902,1,1.0,True,0.9999897480010986
,2024-06-27 12:20:16,sub_000,3,distance,cathedral,spatial_unmasking,4,185,0,0,_one_,talker-p248_sex-f_text-_one_.wav,p248,f,5,16,10.0,7.0,RX81,6,0.0,0.0,7.0,78.34149293193902,babble-reversed_n13_p318-three-p307-one-p256-five-p248-nine-p245-two-p284-eight.wav,8,RX81,9,0.0,0.0,10.0,92.0152836843556,mgb_normalisation,92.0152836843556,90.34149293193902,1,2.0,False,3.312466144561768
,2024-06-27 12:20:19,sub_000,3,distance,cathedral,spatial_unmasking,4,186,0,0,_two_,talker-p248_sex-f_text-_two_.wav,p248,f,5,17,10.0,7.0,RX81,6,0.0,0.0,7.0,79.34149293193902,babble-reversed_n13_p256-nine-p307-four-p229-one-p284-three-p248-two-p245-five.wav,8,RX81,9,0.0,0.0,10.0,92.0152836843556,mgb_normalisation,92.0152836843556,90.34149293193902,2,2.0,True,0.8124916553497314
,2024-06-27 12:20:23,sub_000,3,distance,cathedral,spatial_unmasking,4,187,0,0,_one_,talker-p248_sex-f_text-_one_.wav,p248,f,5,18,10.0,7.0,RX81,6,0.0,0.0,7.0,79.34149293193902,babble-reversed_n13_p256-eight-p318-five-p307-four-p245-three-p268-one-p284-nine.wav,8,RX81,9,0.0,0.0,10.0,92.0152836843556,mgb_normalisation,92.0152836843556,90.34149293193902,1,1.0,True,1.0624921321868896
,2024-06-27 12:20:28,sub_000,3,distance,cathedral,spatial_unmasking,4,188,0,0,_three_,talker-p248_sex-f_text-_three_.wav,p248,f,5,19,10.0,7.0,RX81,6,0.0,0.0,7.0,78.34149293193902,babble-reversed_n13_p229-two-p318-eight-p256-three-p268-one-p248-nine-p284-five.wav,8,RX81,9,0.0,0.0,10.0,92.0152836843556,mgb_normalisation,92.0152836843556,90.34149293193902,3,1.0,False,2.249976634979248
,2024-06-27 12:20:32,sub_000,3,distance,cathedral,spatial_unmasking,4,189,0,0,_one_,talker-p248_sex-f_text-_one_.wav,p248,f,5,20,10.0,7.0,RX81,6,0.0,0.0,7.0,79.34149293193902,babble-reversed_n13_p229-three-p256-one-p307-two-p284-eight-p268-five-p248-nine.wav,8,RX81,9,0.0,0.0,10.0,92.0152836843556,mgb_normalisation,92.0152836843556,90.34149293193902,1,1.0,True,1.8124439716339111
,2024-06-27 12:20:35,sub_000,3,distance,cathedral,spatial_unmasking,4,190,0,0,_five_,talker-p248_sex-f_text-_five_.wav,p248,f,5,21,10.0,7.0,RX81,6,0.0,0.0,7.0,79.341492931939,babble-reversed_n13_p229-three-p256-one-p307-two-p284-eight-p268-five-p248-nine.wav,8,RX81,9,0.0,0.0,10.0,92.0152836843556,mgb_normalisation,92.0152836843556,90.34149293193902,5,5.0,True,0.8749890327453613
,2024-06-27 12:20:38,sub_000,3,distance,cathedral,spatial_unmasking,4,191,0,0,_five_,talker-p248_sex-f_text-_five_.wav,p248,f,5,22,10.0,7.0,RX81,6,0.0,0.0,7.0,78.341492931939,babble-reversed_n13_p256-eight-p318-two-p307-five-p245-four-p268-nine-p284-one.wav,8,RX81,9,0.0,0.0,10.0,92.0152836843556,mgb_normalisation,92.0152836843556,90.34149293193902,5,5.0,True,0.9374897480010986
,2024-06-27 12:20:43,sub_000,3,distance,cathedral,spatial_unmasking,4,192,0,0,_two_,talker-p248_sex-f_text-_two_.wav,p248,f,5,23,10.0,7.0,RX81,6,0.0,0.0,7.0,78.34149293193902,babble-reversed_n13_p229-two-p307-five-p318-four-p284-one-p248-nine-p268-eight.wav,8,RX81,9,0.0,0.0,10.0,92.0152836843556,mgb_normalisation,92.0152836843556,90.34149293193902,2,2.0,True,2.249915838241577
,2024-06-27 12:20:46,sub_000,3,distance,cathedral,spatial_unmasking,4,193,0,0,_four_,talker-p248_sex-f_text-_four_.wav,p248,f,5,24,10.0,7.0,RX81,6,0.0,0.0,7.0,77.341492931939,babble-reversed_n13_p229-five-p256-one-p318-three-p248-nine-p268-four-p284-eight.wav,8,RX81,9,0.0,0.0,10.0,92.0152836843556,mgb_normalisation,92.0152836843556,90.34149293193902,4,4.0,True,1.1874878406524658
,2024-06-27 12:20:50,sub_000,3,distance,cathedral,spatial_unmasking,4,194,0,0,_two_,talker-p248_sex-f_text-_two_.wav,p248,f,5,25,10.0,7.0,RX81,6,0.0,0.0,7.0,77.34149293193903,babble-reversed_n13_p256-four-p229-two-p318-five-p268-one-p248-eight-p245-three.wav,8,RX81,9,0.0,0.0,10.0,92.0152836843556,mgb_normalisation,92.0152836843556,90.34149293193902,2,2.0,True,0.9999899864196776
,2024-06-27 12:20:54,sub_000,3,distance,cathedral,spatial_unmasking,4,195,0,0,_two_,talker-p248_sex-f_text-_two_.wav,p248,f,5,26,10.0,7.0,RX81,6,0.0,0.0,7.0,76.34149293193902,babble-reversed_n13_p256-five-p229-one-p318-three-p248-nine-p284-eight-p268-two.wav,8,RX81,9,0.0,0.0,10.0,92.0152836843556,mgb_normalisation,92.0152836843556,90.34149293193902,2,3.0,False,2.187427282333374
,2024-06-27 12:20:58,sub_000,3,distance,cathedral,spatial_unmasking,4,196,0,0,_five_,talker-p248_sex-f_text-_five_.wav,p248,f,5,27,10.0,7.0,RX81,6,0.0,0.0,7.0,77.341492931939,babble-reversed_n13_p229-five-p318-three-p307-two-p245-four-p284-nine-p248-eight.wav,8,RX81,9,0.0,0.0,10.0,92.0152836843556,mgb_normalisation,92.0152836843556,90.34149293193902,5,5.0,True,1.124988317489624
,2024-06-27 12:21:02,sub_000,3,distance,cathedral,spatial_unmasking,4,197,0,0,_three_,talker-p248_sex-f_text-_three_.wav,p248,f,5,28,10.0,7.0,RX81,6,0.0,0.0,7.0,77.34149293193902,babble-reversed_n13_p318-five-p256-nine-p307-two-p245-eight-p248-one-p284-four.wav,8,RX81,9,0.0,0.0,10.0,92.0152836843556,mgb_normalisation,92.0152836843556,90.34149293193902,3,1.0,False,1.8124816417694087
,2024-06-27 12:21:06,sub_000,3,distance,cathedral,spatial_unmasking,4,198,0,0,_three_,talker-p248_sex-f_text-_three_.wav,p248,f,5,29,10.0,7.0,RX81,6,0.0,0.0,7.0,78.34149293193902,babble-reversed_n13_p256-eight-p318-five-p307-four-p245-three-p268-one-p284-nine.wav,8,RX81,9,0.0,0.0,10.0,92.0152836843556,mgb_normalisation,92.0152836843556,90.34149293193902,3,3.0,True,1.062489032745361
,2024-06-27 12:21:09,sub_000,3,distance,cathedral,spatial_unmasking,4,199,0,0,_three_,talker-p248_sex-f_text-_three_.wav,p248,f,5,30,10.0,7.0,RX81,6,0.0,0.0,7.0,78.34149293193902,babble-reversed_n13_p229-five-p256-one-p318-three-p248-nine-p268-four-p284-eight.wav,8,RX81,9,0.0,0.0,10.0,92.0152836843556,mgb_normalisation,92.0152836843556,90.34149293193902,3,4.0,False,1.2499876022338867
,2024-06-27 12:21:13,sub_000,3,distance,cathedral,spatial_unmasking,4,200,0,0,_two_,talker-p248_sex-f_text-_two_.wav,p248,f,5,31,10.0,7.0,RX81,6,0.0,0.0,7.0,79.34149293193902,babble-reversed_n13_p229-five-p256-three-p318-nine-p248-two-p284-four-p268-one.wav,8,RX81,9,0.0,0.0,10.0,92.0152836843556,mgb_normalisation,92.0152836843556,90.34149293193902,2,2.0,True,1.74998140335083
,2024-06-27 12:21:17,sub_000,3,distance,cathedral,spatial_unmasking,4,201,0,0,_four_,talker-p248_sex-f_text-_four_.wav,p248,f,5,32,10.0,7.0,RX81,6,0.0,0.0,7.0,79.341492931939,babble-reversed_n13_p229-one-p318-nine-p256-four-p284-eight-p268-five-p245-two.wav,8,RX81,9,0.0,0.0,10.0,92.0152836843556,mgb_normalisation,92.0152836843556,90.34149293193902,4,4.0,True,1.062488317489624
,2024-06-27 12:21:20,sub_000,3,distance,cathedral,spatial_unmasking,4,202,0,0,_three_,talker-p248_sex-f_text-_three_.wav,p248,f,5,33,10.0,7.0,RX81,6,0.0,0.0,7.0,78.34149293193902,babble-reversed_n13_p256-eight-p318-two-p307-five-p245-four-p268-nine-p284-one.wav,8,RX81,9,0.0,0.0,10.0,92.0152836843556,mgb_normalisation,92.0152836843556,90.34149293193902,3,3.0,True,1.124989032745361
,2024-06-27 12:21:24,sub_000,3,distance,cathedral,spatial_unmasking,4,203,0,0,_two_,talker-p248_sex-f_text-_two_.wav,p248,f,5,34,10.0,7.0,RX81,6,0.0,0.0,7.0,78.34149293193902,babble-reversed_n13_p318-three-p229-one-p256-eight-p245-five-p248-four-p284-nine.wav,8,RX81,9,0.0,0.0,10.0,92.0152836843556,mgb_normalisation,92.0152836843556,90.34149293193902,2,2.0,True,0.8750429153442383
,2024-06-27 12:21:27,sub_000,3,distance,cathedral,spatial_unmasking,4,204,0,0,_three_,talker-p248_sex-f_text-_three_.wav,p248,f,5,35,10.0,7.0,RX81,6,0.0,0.0,7.0,77.34149293193902,babble-reversed_n13_p256-two-p307-five-p318-nine-p248-eight-p245-four-p284-one.wav,8,RX81,9,0.0,0.0,10.0,92.0152836843556,mgb_normalisation,92.0152836843556,90.34149293193902,3,3.0,True,1.062489032745361
,2024-06-27 12:21:30,sub_000,3,distance,cathedral,spatial_unmasking,4,205,0,0,_five_,talker-p248_sex-f_text-_five_.wav,p248,f,5,36,10.0,7.0,RX81,6,0.0,0.0,7.0,77.341492931939,babble-reversed_n13_p307-nine-p318-two-p256-one-p245-three-p268-four-p248-eight.wav,8,RX81,9,0.0,0.0,10.0,92.0152836843556,mgb_normalisation,92.0152836843556,90.34149293193902,5,5.0,True,0.8124921321868896
,2024-06-27 12:21:34,sub_000,3,distance,cathedral,spatial_unmasking,4,206,0,0,_one_,talker-p248_sex-f_text-_one_.wav,p248,f,5,37,10.0,7.0,RX81,6,0.0,0.0,7.0,76.34149293193902,babble-reversed_n13_p229-two-p307-five-p318-four-p284-one-p248-nine-p268-eight.wav,8,RX81,9,0.0,0.0,10.0,92.0152836843556,mgb_normalisation,92.0152836843556,90.34149293193902,1,1.0,True,1.4999849796295166
,2024-06-27 12:21:38,sub_000,3,distance,cathedral,spatial_unmasking,4,207,0,0,_two_,talker-p248_sex-f_text-_two_.wav,p248,f,5,38,10.0,7.0,RX81,6,0.0,0.0,7.0,76.34149293193902,babble-reversed_n13_p256-four-p229-two-p318-five-p268-one-p248-eight-p245-three.wav,8,RX81,9,0.0,0.0,10.0,92.0152836843556,mgb_normalisation,92.0152836843556,90.34149293193902,2,2.0,True,1.4999842643737793
,2024-06-27 12:21:44,sub_000,3,distance,cathedral,spatial_unmasking,4,208,0,0,_three_,talker-p248_sex-f_text-_three_.wav,p248,f,5,39,10.0,7.0,RX81,6,0.0,0.0,7.0,75.34149293193902,babble-reversed_n13_p256-four-p307-eight-p318-two-p248-three-p284-nine-p268-one.wav,8,RX81,9,0.0,0.0,10.0,92.0152836843556,mgb_normalisation,92.0152836843556,90.34149293193902,3,1.0,False,3.874953269958496
,2024-06-27 12:21:49,sub_000,3,distance,cathedral,spatial_unmasking,4,209,0,0,_three_,talker-p248_sex-f_text-_three_.wav,p248,f,5,40,10.0,7.0,RX81,6,0.0,0.0,7.0,76.34149293193902,babble-reversed_n13_p229-two-p307-five-p318-four-p284-one-p248-nine-p268-eight.wav,8,RX81,9,0.0,0.0,10.0,92.0152836843556,mgb_normalisation,92.0152836843556,90.34149293193902,3,5.0,False,1.874935388565064
,2024-06-27 12:21:52,sub_000,3,distance,cathedral,spatial_unmasking,4,210,0,0,_five_,talker-p248_sex-f_text-_five_.wav,p248,f,5,41,10.0,7.0,RX81,6,0.0,0.0,7.0,77.341492931939,babble-reversed_n13_p256-eight-p318-two-p307-five-p245-four-p268-nine-p284-one.wav,8,RX81,9,0.0,0.0,10.0,92.0152836843556,mgb_normalisation,92.0152836843556,90.34149293193902,5,5.0,True,0.8749902248382568
,2024-06-27 12:21:55,sub_000,3,distance,cathedral,spatial_unmasking,4,211,0,0,_four_,talker-p248_sex-f_text-_four_.wav,p248,f,5,42,10.0,7.0,RX81,6,0.0,0.0,7.0,77.341492931939,babble-reversed_n13_p229-one-p318-nine-p256-four-p284-eight-p268-five-p245-two.wav,8,RX81,9,0.0,0.0,10.0,92.0152836843556,mgb_normalisation,92.0152836843556,90.34149293193902,4,4.0,True,1.124989032745361
,2024-06-27 12:21:59,sub_000,3,distance,cathedral,spatial_unmasking,4,212,0,0,_five_,talker-p248_sex-f_text-_five_.wav,p248,f,5,43,10.0,7.0,RX81,6,0.0,0.0,7.0,76.34149293193902,babble-reversed_n13_p256-nine-p307-four-p229-one-p284-three-p248-two-p245-five.wav,8,RX81,9,0.0,0.0,10.0,92.0152836843556,mgb_normalisation,92.0152836843556,90.34149293193902,5,5.0,True,1.1249885559082031
,2024-06-27 12:22:02,sub_000,3,distance,cathedral,spatial_unmasking,4,213,0,0,_three_,talker-p248_sex-f_text-_three_.wav,p248,f,5,44,10.0,7.0,RX81,6,0.0,0.0,7.0,76.34149293193902,babble-reversed_n13_p307-four-p318-three-p256-eight-p284-two-p245-nine-p248-five.wav,8,RX81,9,0.0,0.0,10.0,92.0152836843556,mgb_normalisation,92.0152836843556,90.34149293193902,3,3.0,True,1.1249878406524658
,2024-06-27 12:22:07,sub_000,3,distance,cathedral,spatial_unmasking,4,214,0,0,_one_,talker-p248_sex-f_text-_one_.wav,p248,f,5,45,10.0,7.0,RX81,6,0.0,0.0,7.0,75.34149293193903,babble-reversed_n13_p318-nine-p256-five-p307-eight-p268-three-p248-one-p245-four.wav,8,RX81,9,0.0,0.0,10.0,92.0152836843556,mgb_normalisation,92.0152836843556,90.34149293193902,1,2.0,False,2.0624783039093018
,2024-06-27 12:22:11,sub_000,3,distance,cathedral,spatial_unmasking,4,215,0,0,_three_,talker-p248_sex-f_text-_three_.wav,p248,f,5,46,10.0,7.0,RX81,6,0.0,0.0,7.0,76.34149293193902,babble-reversed_n13_p318-one-p307-two-p256-eight-p284-three-p248-five-p245-four.wav,8,RX81,9,0.0,0.0,10.0,92.0152836843556,mgb_normalisation,92.0152836843556,90.34149293193902,3,3.0,True,1.3749864101409912
,2024-06-27 12:22:15,sub_000,3,distance,cathedral,spatial_unmasking,4,216,0,0,_one_,talker-p248_sex-f_text-_one_.wav,p248,f,5,47,10.0,7.0,RX81,6,0.0,0.0,7.0,76.34149293193902,babble-reversed_n13_p318-nine-p307-eight-p229-two-p284-one-p248-three-p245-five.wav,8,RX81,9,0.0,0.0,10.0,92.0152836843556,mgb_normalisation,92.0152836843556,90.34149293193902,1,3.0,False,1.749982833862305
,2024-06-27 12:22:18,sub_000,3,distance,cathedral,spatial_unmasking,4,217,0,0,_five_,talker-p248_sex-f_text-_five_.wav,p248,f,5,48,10.0,7.0,RX81,6,0.0,0.0,7.0,77.341492931939,babble-reversed_n13_p318-five-p229-four-p256-eight-p284-one-p245-three-p248-two.wav,8,RX81,9,0.0,0.0,10.0,92.0152836843556,mgb_normalisation,92.0152836843556,90.34149293193902,5,5.0,True,0.8749806880950928
,2024-06-27 12:22:22,sub_000,3,distance,cathedral,spatial_unmasking,4,218,0,0,_two_,talker-p248_sex-f_text-_two_.wav,p248,f,5,49,10.0,7.0,RX81,6,0.0,0.0,7.0,77.34149293193903,babble-reversed_n13_p256-four-p229-two-p318-five-p268-one-p248-eight-p245-three.wav,8,RX81,9,0.0,0.0,10.0,92.0152836843556,mgb_normalisation,92.0152836843556,90.34149293193902,2,2.0,True,1.2499868869781494
,2024-06-27 12:22:26,sub_000,3,distance,cathedral,spatial_unmasking,4,219,0,0,_three_,talker-p248_sex-f_text-_three_.wav,p248,f,5,50,10.0,7.0,RX81,6,0.0,0.0,7.0,76.34149293193902,babble-reversed_n13_p256-eight-p318-five-p307-four-p245-three-p268-one-p284-nine.wav,8,RX81,9,0.0,0.0,10.0,92.0152836843556,mgb_normalisation,92.0152836843556,90.34149293193902,3,4.0,False,2.1874780654907227
,2024-06-27 12:22:30,sub_000,3,distance,cathedral,spatial_unmasking,4,220,0,0,_two_,talker-p248_sex-f_text-_two_.wav,p248,f,5,51,10.0,7.0,RX81,6,0.0,0.0,7.0,77.34149293193903,babble-reversed_n13_p256-five-p229-one-p318-three-p248-nine-p284-eight-p268-two.wav,8,RX81,9,0.0,0.0,10.0,92.0152836843556,mgb_normalisation,92.0152836843556,90.34149293193902,2,2.0,True,1.312540054321289
,2024-06-27 12:22:34,sub_000,3,distance,cathedral,spatial_unmasking,4,221,0,0,_four_,talker-p248_sex-f_text-_four_.wav,p248,f,5,52,10.0,7.0,RX81,6,0.0,0.0,7.0,77.341492931939,babble-reversed_n13_p307-two-p256-four-p318-three-p284-eight-p248-five-p245-nine.wav,8,RX81,9,0.0,0.0,10.0,92.0152836843556,mgb_normalisation,92.0152836843556,90.34149293193902,4,3.0,False,1.374985933303833
,2024-06-27 12:22:37,sub_000,3,distance,cathedral,spatial_unmasking,4,222,0,0,_five_,talker-p248_sex-f_text-_five_.wav,p248,f,5,53,10.0,7.0,RX81,6,0.0,0.0,7.0,78.341492931939,babble-reversed_n13_p318-five-p229-three-p256-four-p268-eight-p248-one-p245-nine.wav,8,RX81,9,0.0,0.0,10.0,92.0152836843556,mgb_normalisation,92.0152836843556,90.34149293193902,5,5.0,True,0.6874926090240479
,2024-06-27 12:22:40,sub_000,3,distance,cathedral,spatial_unmasking,4,223,0,0,_three_,talker-p248_sex-f_text-_three_.wav,p248,f,5,54,10.0,7.0,RX81,6,0.0,0.0,7.0,78.34149293193902,babble-reversed_n13_p229-five-p318-two-p307-eight-p268-three-p248-four-p245-one.wav,8,RX81,9,0.0,0.0,10.0,92.0152836843556,mgb_normalisation,92.0152836843556,90.34149293193902,3,3.0,True,1.0624892711639404
,2024-06-27 12:23:03,sub_000,3,distance,cathedral,spatial_unmasking,5,224,0,0,_one_,talker-p248_sex-f_text-_one_.wav,p248,f,5,1,7.0,7.0,RX81,6,0.0,0.0,7.0,92.34149293193902,babble-reversed_n13_p256-four-p307-eight-p318-two-p248-three-p284-nine-p268-one.wav,5,RX81,6,0.0,0.0,7.0,90.34149293193904,mgb_normalisation,90.34149293193902,90.34149293193902,1,1.0,True,8.124917268753052
,2024-06-27 12:23:06,sub_000,3,distance,cathedral,spatial_unmasking,5,225,0,0,_two_,talker-p248_sex-f_text-_two_.wav,p248,f,5,2,7.0,7.0,RX81,6,0.0,0.0,7.0,88.34149293193903,babble-reversed_n13_p307-one-p318-five-p229-four-p268-eight-p284-two-p245-three.wav,5,RX81,6,0.0,0.0,7.0,90.341492931939,mgb_normalisation,90.34149293193902,90.34149293193902,2,2.0,True,0.937490701675415
,2024-06-27 12:23:09,sub_000,3,distance,cathedral,spatial_unmasking,5,226,0,0,_five_,talker-p248_sex-f_text-_five_.wav,p248,f,5,3,7.0,7.0,RX81,6,0.0,0.0,7.0,84.341492931939,babble-reversed_n13_p229-one-p318-eight-p256-three-p268-two-p245-five-p248-nine.wav,5,RX81,6,0.0,0.0,7.0,90.341492931939,mgb_normalisation,90.34149293193902,90.34149293193902,5,5.0,True,0.8749911785125732
,2024-06-27 12:23:12,sub_000,3,distance,cathedral,spatial_unmasking,5,227,0,0,_one_,talker-p248_sex-f_text-_one_.wav,p248,f,5,4,7.0,7.0,RX81,6,0.0,0.0,7.0,80.34149293193903,babble-reversed_n13_p256-two-p307-five-p318-nine-p248-eight-p245-four-p284-one.wav,5,RX81,6,0.0,0.0,7.0,90.34149293193904,mgb_normalisation,90.34149293193902,90.34149293193902,1,1.0,True,0.9999899864196776
,2024-06-27 12:23:17,sub_000,3,distance,cathedral,spatial_unmasking,5,228,0,0,_one_,talker-p248_sex-f_text-_one_.wav,p248,f,5,5,7.0,7.0,RX81,6,0.0,0.0,7.0,76.34149293193902,babble-reversed_n13_p229-one-p318-eight-p256-three-p268-two-p245-five-p248-nine.wav,5,RX81,6,0.0,0.0,7.0,90.341492931939,mgb_normalisation,90.34149293193902,90.34149293193902,1,1.0,True,2.6249732971191406
,2024-06-27 12:23:21,sub_000,3,distance,cathedral,spatial_unmasking,5,229,0,0,_three_,talker-p248_sex-f_text-_three_.wav,p248,f,5,6,7.0,7.0,RX81,6,0.0,0.0,7.0,72.34149293193902,babble-reversed_n13_p256-nine-p307-four-p229-one-p284-three-p248-two-p245-five.wav,5,RX81,6,0.0,0.0,7.0,90.34149293193904,mgb_normalisation,90.34149293193902,90.34149293193902,3,3.0,True,1.0624892711639404
,2024-06-27 12:23:24,sub_000,3,distance,cathedral,spatial_unmasking,5,230,0,0,_five_,talker-p248_sex-f_text-_five_.wav,p248,f,5,7,7.0,7.0,RX81,6,0.0,0.0,7.0,68.341492931939,babble-reversed_n13_p318-five-p256-nine-p307-eight-p248-two-p245-four-p284-three.wav,5,RX81,6,0.0,0.0,7.0,90.34149293193904,mgb_normalisation,90.34149293193902,90.34149293193902,5,2.0,False,1.2499864101409912
,2024-06-27 12:23:28,sub_000,3,distance,cathedral,spatial_unmasking,5,231,0,0,_four_,talker-p248_sex-f_text-_four_.wav,p248,f,5,8,7.0,7.0,RX81,6,0.0,0.0,7.0,70.34149293193902,babble-reversed_n13_p256-three-p318-two-p229-nine-p248-four-p284-one-p268-eight.wav,5,RX81,6,0.0,0.0,7.0,90.341492931939,mgb_normalisation,90.34149293193902,90.34149293193902,4,3.0,False,1.6874825954437256
,2024-06-27 12:23:31,sub_000,3,distance,cathedral,spatial_unmasking,5,232,0,0,_five_,talker-p248_sex-f_text-_five_.wav,p248,f,5,9,7.0,7.0,RX81,6,0.0,0.0,7.0,72.341492931939,babble-reversed_n13_p229-five-p256-three-p318-nine-p248-two-p284-four-p268-one.wav,5,RX81,6,0.0,0.0,7.0,90.34149293193904,mgb_normalisation,90.34149293193902,90.34149293193902,5,5.0,True,0.6874926090240479
,2024-06-27 12:23:36,sub_000,3,distance,cathedral,spatial_unmasking,5,233,0,0,_one_,talker-p248_sex-f_text-_one_.wav,p248,f,5,10,7.0,7.0,RX81,6,0.0,0.0,7.0,72.34149293193903,babble-reversed_n13_p256-eight-p318-two-p307-five-p245-four-p268-nine-p284-one.wav,5,RX81,6,0.0,0.0,7.0,90.34149293193904,mgb_normalisation,90.34149293193902,90.34149293193902,1,1.0,True,2.2499773502349854
,2024-06-27 12:23:39,sub_000,3,distance,cathedral,spatial_unmasking,5,234,0,0,_five_,talker-p248_sex-f_text-_five_.wav,p248,f,5,11,7.0,7.0,RX81,6,0.0,0.0,7.0,70.341492931939,babble-reversed_n13_p256-eight-p318-five-p307-four-p245-three-p268-one-p284-nine.wav,5,RX81,6,0.0,0.0,7.0,90.341492931939,mgb_normalisation,90.34149293193902,90.34149293193902,5,5.0,True,0.9374895095825196
,2024-06-27 12:23:42,sub_000,3,distance,cathedral,spatial_unmasking,5,235,0,0,_five_,talker-p248_sex-f_text-_five_.wav,p248,f,5,12,7.0,7.0,RX81,6,0.0,0.0,7.0,70.341492931939,babble-reversed_n13_p256-four-p229-eight-p307-five-p248-three-p245-one-p284-two.wav,5,RX81,6,0.0,0.0,7.0,90.341492931939,mgb_normalisation,90.34149293193902,90.34149293193902,5,3.0,False,0.9999895095825196
,2024-06-27 12:23:46,sub_000,3,distance,cathedral,spatial_unmasking,5,236,0,0,_three_,talker-p248_sex-f_text-_three_.wav,p248,f,5,13,7.0,7.0,RX81,6,0.0,0.0,7.0,71.34149293193902,babble-reversed_n13_p256-four-p307-eight-p318-two-p248-three-p284-nine-p268-one.wav,5,RX81,6,0.0,0.0,7.0,90.34149293193904,mgb_normalisation,90.34149293193902,90.34149293193902,3,3.0,True,1.4999847412109375
,2024-06-27 12:23:51,sub_000,3,distance,cathedral,spatial_unmasking,5,237,0,0,_one_,talker-p248_sex-f_text-_one_.wav,p248,f,5,14,7.0,7.0,RX81,6,0.0,0.0,7.0,71.34149293193902,babble-reversed_n13_p256-four-p307-eight-p318-two-p248-three-p284-nine-p268-one.wav,5,RX81,6,0.0,0.0,7.0,90.34149293193904,mgb_normalisation,90.34149293193902,90.34149293193902,1,3.0,False,2.4374747276306152
,2024-06-27 12:23:54,sub_000,3,distance,cathedral,spatial_unmasking,5,238,0,0,_five_,talker-p248_sex-f_text-_five_.wav,p248,f,5,15,7.0,7.0,RX81,6,0.0,0.0,7.0,72.341492931939,babble-reversed_n13_p256-two-p307-five-p318-nine-p248-eight-p245-four-p284-one.wav,5,RX81,6,0.0,0.0,7.0,90.34149293193904,mgb_normalisation,90.34149293193902,90.34149293193902,5,5.0,True,0.8749940395355225
,2024-06-27 12:23:59,sub_000,3,distance,cathedral,spatial_unmasking,5,239,0,0,_four_,talker-p248_sex-f_text-_four_.wav,p248,f,5,16,7.0,7.0,RX81,6,0.0,0.0,7.0,72.34149293193902,babble-reversed_n13_p307-four-p318-three-p256-eight-p284-two-p245-nine-p248-five.wav,5,RX81,6,0.0,0.0,7.0,90.341492931939,mgb_normalisation,90.34149293193902,90.34149293193902,4,1.0,False,2.6249732971191406
,2024-06-27 12:24:04,sub_000,3,distance,cathedral,spatial_unmasking,5,240,0,0,_five_,talker-p248_sex-f_text-_five_.wav,p248,f,5,17,7.0,7.0,RX81,6,0.0,0.0,7.0,73.341492931939,babble-reversed_n13_p229-two-p307-five-p318-four-p284-one-p248-nine-p268-eight.wav,5,RX81,6,0.0,0.0,7.0,90.34149293193904,mgb_normalisation,90.34149293193902,90.34149293193902,5,2.0,False,3.312466621398926
,2024-06-27 12:24:08,sub_000,3,distance,cathedral,spatial_unmasking,5,241,0,0,_four_,talker-p248_sex-f_text-_four_.wav,p248,f,5,18,7.0,7.0,RX81,6,0.0,0.0,7.0,74.341492931939,babble-reversed_n13_p318-three-p229-one-p256-eight-p245-five-p248-four-p284-nine.wav,5,RX81,6,0.0,0.0,7.0,90.34149293193904,mgb_normalisation,90.34149293193902,90.34149293193902,4,4.0,True,1.187486171722412
,2024-06-27 12:24:11,sub_000,3,distance,cathedral,spatial_unmasking,5,242,0,0,_three_,talker-p248_sex-f_text-_three_.wav,p248,f,5,19,7.0,7.0,RX81,6,0.0,0.0,7.0,74.34149293193902,babble-reversed_n13_p229-five-p256-three-p318-nine-p248-two-p284-four-p268-one.wav,5,RX81,6,0.0,0.0,7.0,90.34149293193904,mgb_normalisation,90.34149293193902,90.34149293193902,3,2.0,False,1.1874873638153076
,2024-06-27 12:24:15,sub_000,3,distance,cathedral,spatial_unmasking,5,243,0,0,_two_,talker-p248_sex-f_text-_two_.wav,p248,f,5,20,7.0,7.0,RX81,6,0.0,0.0,7.0,75.34149293193903,babble-reversed_n13_p318-five-p256-nine-p307-eight-p248-two-p245-four-p284-three.wav,5,RX81,6,0.0,0.0,7.0,90.34149293193904,mgb_normalisation,90.34149293193902,90.34149293193902,2,2.0,True,1.312528133392334
,2024-06-27 12:24:19,sub_000,3,distance,cathedral,spatial_unmasking,5,244,0,0,_three_,talker-p248_sex-f_text-_three_.wav,p248,f,5,21,7.0,7.0,RX81,6,0.0,0.0,7.0,75.34149293193902,babble-reversed_n13_p229-two-p256-three-p318-eight-p284-five-p268-four-p245-one.wav,5,RX81,6,0.0,0.0,7.0,90.34149293193904,mgb_normalisation,90.34149293193902,90.34149293193902,3,3.0,True,1.4999876022338867
,2024-06-27 12:24:23,sub_000,3,distance,cathedral,spatial_unmasking,5,245,0,0,_one_,talker-p248_sex-f_text-_one_.wav,p248,f,5,22,7.0,7.0,RX81,6,0.0,0.0,7.0,74.34149293193902,babble-reversed_n13_p256-eight-p318-two-p307-five-p245-four-p268-nine-p284-one.wav,5,RX81,6,0.0,0.0,7.0,90.34149293193904,mgb_normalisation,90.34149293193902,90.34149293193902,1,1.0,True,1.999980926513672
,2024-06-27 12:24:26,sub_000,3,distance,cathedral,spatial_unmasking,5,246,0,0,_two_,talker-p248_sex-f_text-_two_.wav,p248,f,5,23,7.0,7.0,RX81,6,0.0,0.0,7.0,74.34149293193902,babble-reversed_n13_p307-one-p318-five-p229-four-p268-eight-p284-two-p245-three.wav,5,RX81,6,0.0,0.0,7.0,90.341492931939,mgb_normalisation,90.34149293193902,90.34149293193902,2,2.0,True,0.9999902248382568
,2024-06-27 12:24:31,sub_000,3,distance,cathedral,spatial_unmasking,5,247,0,0,_one_,talker-p248_sex-f_text-_one_.wav,p248,f,5,24,7.0,7.0,RX81,6,0.0,0.0,7.0,73.34149293193902,babble-reversed_n13_p307-one-p318-five-p229-four-p268-eight-p284-two-p245-three.wav,5,RX81,6,0.0,0.0,7.0,90.341492931939,mgb_normalisation,90.34149293193902,90.34149293193902,1,1.0,True,2.499974250793457
,2024-06-27 12:24:35,sub_000,3,distance,cathedral,spatial_unmasking,5,248,0,0,_one_,talker-p248_sex-f_text-_one_.wav,p248,f,5,25,7.0,7.0,RX81,6,0.0,0.0,7.0,73.34149293193902,babble-reversed_n13_p307-nine-p318-two-p256-one-p245-three-p268-four-p248-eight.wav,5,RX81,6,0.0,0.0,7.0,90.341492931939,mgb_normalisation,90.34149293193902,90.34149293193902,1,3.0,False,1.6249825954437256
,2024-06-27 12:24:38,sub_000,3,distance,cathedral,spatial_unmasking,5,249,0,0,_five_,talker-p248_sex-f_text-_five_.wav,p248,f,5,26,7.0,7.0,RX81,6,0.0,0.0,7.0,74.341492931939,babble-reversed_n13_p229-two-p256-three-p318-eight-p284-five-p268-four-p245-one.wav,5,RX81,6,0.0,0.0,7.0,90.34149293193904,mgb_normalisation,90.34149293193902,90.34149293193902,5,5.0,True,0.8749909400939941
,2024-06-27 12:24:43,sub_000,3,distance,cathedral,spatial_unmasking,5,250,0,0,_two_,talker-p248_sex-f_text-_two_.wav,p248,f,5,27,7.0,7.0,RX81,6,0.0,0.0,7.0,74.34149293193902,babble-reversed_n13_p229-five-p256-one-p318-three-p248-nine-p268-four-p284-eight.wav,5,RX81,6,0.0,0.0,7.0,90.341492931939,mgb_normalisation,90.34149293193902,90.34149293193902,2,4.0,False,2.124977827072144
,2024-06-27 12:24:47,sub_000,3,distance,cathedral,spatial_unmasking,5,251,0,0,_four_,talker-p248_sex-f_text-_four_.wav,p248,f,5,28,7.0,7.0,RX81,6,0.0,0.0,7.0,75.34149293193902,babble-reversed_n13_p307-four-p318-three-p256-eight-p284-two-p245-nine-p248-five.wav,5,RX81,6,0.0,0.0,7.0,90.341492931939,mgb_normalisation,90.34149293193902,90.34149293193902,4,1.0,False,2.187477827072144
,2024-06-27 12:24:53,sub_000,3,distance,cathedral,spatial_unmasking,5,252,0,0,_three_,talker-p248_sex-f_text-_three_.wav,p248,f,5,29,7.0,7.0,RX81,6,0.0,0.0,7.0,76.34149293193902,babble-reversed_n13_p318-nine-p307-eight-p229-two-p284-one-p248-three-p245-five.wav,5,RX81,6,0.0,0.0,7.0,90.34149293193904,mgb_normalisation,90.34149293193902,90.34149293193902,3,2.0,False,3.9999594688415527
,2024-06-27 12:24:57,sub_000,3,distance,cathedral,spatial_unmasking,5,253,0,0,_two_,talker-p248_sex-f_text-_two_.wav,p248,f,5,30,7.0,7.0,RX81,6,0.0,0.0,7.0,77.34149293193903,babble-reversed_n13_p229-nine-p318-one-p307-two-p248-eight-p245-five-p284-four.wav,5,RX81,6,0.0,0.0,7.0,90.34149293193904,mgb_normalisation,90.34149293193902,90.34149293193902,2,2.0,True,0.9375412464141846
,2024-06-27 12:25:00,sub_000,3,distance,cathedral,spatial_unmasking,5,254,0,0,_three_,talker-p248_sex-f_text-_three_.wav,p248,f,5,31,7.0,7.0,RX81,6,0.0,0.0,7.0,77.34149293193902,babble-reversed_n13_p229-three-p307-one-p318-two-p245-eight-p268-five-p284-four.wav,5,RX81,6,0.0,0.0,7.0,90.34149293193904,mgb_normalisation,90.34149293193902,90.34149293193902,3,4.0,False,1.4374852180480957
,2024-06-27 12:25:04,sub_000,3,distance,cathedral,spatial_unmasking,5,255,0,0,_four_,talker-p248_sex-f_text-_four_.wav,p248,f,5,32,7.0,7.0,RX81,6,0.0,0.0,7.0,78.34149293193902,babble-reversed_n13_p229-five-p318-three-p307-two-p245-four-p284-nine-p248-eight.wav,5,RX81,6,0.0,0.0,7.0,90.34149293193904,mgb_normalisation,90.34149293193902,90.34149293193902,4,2.0,False,1.550452470779419
,2024-06-27 12:25:08,sub_000,3,distance,cathedral,spatial_unmasking,5,256,0,0,_five_,talker-p248_sex-f_text-_five_.wav,p248,f,5,33,7.0,7.0,RX81,6,0.0,0.0,7.0,79.341492931939,babble-reversed_n13_p256-four-p307-eight-p318-two-p248-three-p284-nine-p268-one.wav,5,RX81,6,0.0,0.0,7.0,90.34149293193904,mgb_normalisation,90.34149293193902,90.34149293193902,5,5.0,True,1.187504529953003
,2024-06-27 12:25:11,sub_000,3,distance,cathedral,spatial_unmasking,5,257,0,0,_one_,talker-p248_sex-f_text-_one_.wav,p248,f,5,34,7.0,7.0,RX81,6,0.0,0.0,7.0,79.34149293193902,babble-reversed_n13_p318-nine-p307-eight-p229-two-p284-one-p248-three-p245-five.wav,5,RX81,6,0.0,0.0,7.0,90.34149293193904,mgb_normalisation,90.34149293193902,90.34149293193902,1,1.0,True,1.2499878406524658
,2024-06-27 12:25:14,sub_000,3,distance,cathedral,spatial_unmasking,5,258,0,0,_two_,talker-p248_sex-f_text-_two_.wav,p248,f,5,35,7.0,7.0,RX81,6,0.0,0.0,7.0,78.34149293193902,babble-reversed_n13_p307-two-p256-four-p318-three-p284-eight-p248-five-p245-nine.wav,5,RX81,6,0.0,0.0,7.0,90.34149293193904,mgb_normalisation,90.34149293193902,90.34149293193902,2,2.0,True,0.9374892711639404
,2024-06-27 12:25:18,sub_000,3,distance,cathedral,spatial_unmasking,5,259,0,0,_one_,talker-p248_sex-f_text-_one_.wav,p248,f,5,36,7.0,7.0,RX81,6,0.0,0.0,7.0,78.34149293193902,babble-reversed_n13_p318-five-p229-four-p256-eight-p284-one-p245-three-p248-two.wav,5,RX81,6,0.0,0.0,7.0,90.34149293193904,mgb_normalisation,90.34149293193902,90.34149293193902,1,1.0,True,0.9999892711639404
